*RAS_DATA_START
*RAS_HEADER_START
*DISP_FMT_X "%.2f"
*DISP_FMT_Y "%.0f"
*DISP_FULLSCALE "16316.0000000000"
*DISP_LINE_COLOR "255.0000000000"
*DISP_LINE_STYLE "0.0000000000"
*DISP_LINE_WIDTH "0.2500000000"
*DISP_NOTE "測定データ-3"
*DISP_OFFSET_Y "0.0000000000"
*DISP_PEAKSEARCH_UNIT_Y "cps"
*DISP_RANGE_BOTTOM "0.0000000000"
*DISP_RANGE_LEFT "20.0000000000"
*DISP_RANGE_LOGCUTOFF "0.0100000000"
*DISP_RANGE_RIGHT "70.0000000000"
*DISP_RANGE_TOP "16316.0000000000"
*DISP_SCALE_MODE_Y "0.0000000000"
*DISP_TAB_NAME "2θ/θ"
*DISP_TITLE_Y "強度"
*DISP_UNIT_Y "cps"
*DISP_WINDOW_NAME "MSG_MACROENGINE"
*FILE_COMMENT " "
*FILE_MD5 ""
*FILE_MEMO " "
*FILE_OPERATOR "Administrator"
*FILE_SAMPLE " "
*FILE_TYPE "RAS_RAW"
*FILE_USERGROUP "システムマネージャ"
*FILE_VERSION "1.0000000000"
*HW_ATTACHMENT_ID "ATT0025"
*HW_ATTACHMENT_NAME "標準|Standard"
*HW_COUNTER_ID-0 "CUT0025"
*HW_COUNTER_ID-1 "CUT0020"
*HW_COUNTER_ID-2 "CUT0020"
*HW_COUNTER_ID-3 "CSL0021"
*HW_COUNTER_ID-4 "CMC0021"
*HW_COUNTER_NAME-0 "D/teX Ultra|D/teX Ultra"
*HW_COUNTER_NAME-1 "None|None"
*HW_COUNTER_NAME-2 "None|None"
*HW_COUNTER_NAME-3 "BBM|BBM"
*HW_COUNTER_NAME-4 "検出器モノクロメータ|Detector monochromator"
*HW_COUNTER_SELECT_NAME "D/teX Ultra|D/teX Ultra"
*HW_GONIOMETER_ID "GON0023"
*HW_GONIOMETER_NAME "SmartLab|SmartLab"
*HW_GONIOMETER_RADIUS-0 "90.0"
*HW_GONIOMETER_RADIUS-1 "114.0"
*HW_GONIOMETER_RADIUS-2 "190.0"
*HW_GONIOMETER_RADIUS-3 "300.0"
*HW_GONIOMETER_RADIUS-4 "187.0"
*HW_GONIOMETER_RADIUS-5 "300.0"
*HW_GONIOMETER_RADIUS-6 "113.0"
*HW_GONIOMETER_RADIUS-7 "331.0"
*HW_I_OPT_ID-0 "CBO0021"
*HW_I_OPT_ID-1 "ICR0023"
*HW_I_OPT_ID-2 "ISL0021"
*HW_I_OPT_ID-3 "ISO0021"
*HW_I_OPT_ID-4 "IAD0021"
*HW_I_OPT_ID-5 "IPR0001"
*HW_I_OPT_NAME-0 "CBOユニット|CBO unit"
*HW_I_OPT_NAME-1 "標準入射光学ユニット|Standard incident optical unit"
*HW_I_OPT_NAME-2 "標準入射スリットボックス|Standard incident slit box"
*HW_I_OPT_NAME-3 "入射平行スリット|Incident parallel slit"
*HW_I_OPT_NAME-4 "長手制限スリット|Length limiting slit"
*HW_I_OPT_NAME-5 "None|None"
*HW_R_ATTENUATER_AUTOMODE "0"
*HW_R_OPT_ID-0 "RSS0021"
*HW_R_OPT_ID-1 "RCR0023"
*HW_R_OPT_ID-2 "RSO0021"
*HW_R_OPT_ID-3 "RRS0021"
*HW_R_OPT_ID-4 "ATN0021"
*HW_R_OPT_ID-5 "RFL0021"
*HW_R_OPT_ID-6 "RAD0021"
*HW_R_OPT_NAME-0 "標準受光スリットボックス1|Standard receiving slit box # 1"
*HW_R_OPT_NAME-1 "標準受光光学ユニット1|Standard receiving unit # 1"
*HW_R_OPT_NAME-2 "標準受光光学ユニット2|Standard receiving optical unit # 2"
*HW_R_OPT_NAME-3 "標準受光スリットボックス2|Standard receiving slit box # 2"
*HW_R_OPT_NAME-4 "標準アッテネータ|Standard Attenuator"
*HW_R_OPT_NAME-5 "Cu Kβ|Cu K-beta"
*HW_R_OPT_NAME-6 "調整用受光スリット|Alignment receiving slit"
*HW_SAMPLE_HOLDER_ID "SMP0023"
*HW_SAMPLE_HOLDER_NAME "標準Zステージ|Standard Z stage"
*HW_XG_CURRENT_MAX "50"
*HW_XG_CURRENT_MIN "2"
*HW_XG_CURRENT_RESOLUTION "1"
*HW_XG_CURRENT_UNIT "mA"
*HW_XG_FOCUS "1mm x 10mm"
*HW_XG_FOCUS_TYPE "Normal"
*HW_XG_ID ""
*HW_XG_NAME "3kW 封入管(ID:1200)|3kW Sealed tube(ID:1200)"
*HW_XG_TARGET_ATOMIC_NUMBER "29.0000000000"
*HW_XG_TARGET_NAME "Cu"
*HW_XG_TYPE "Hermetic"
*HW_XG_VOLTAGE_MAX "60"
*HW_XG_VOLTAGE_MIN "20"
*HW_XG_VOLTAGE_RESOLUTION "1"
*HW_XG_VOLTAGE_UNIT "kV"
*HW_XG_WATT_MAX "1.500"
*HW_XG_WATT_UNIT "kW"
*HW_XG_WAVE_LENGTH_ALPHA1 "1.540593"
*HW_XG_WAVE_LENGTH_ALPHA2 "1.544414"
*HW_XG_WAVE_LENGTH_BETA "1.392250"
*MEAS_COND_AXIS_NAME-0 "2θ/θ"
*MEAS_COND_AXIS_NAME-1 "2θ"
*MEAS_COND_AXIS_NAME-2 "ω"
*MEAS_COND_AXIS_NAME-3 "Z"
*MEAS_COND_AXIS_NAME-4 "2θ/ω"
*MEAS_COND_AXIS_NAME-5 "θs"
*MEAS_COND_AXIS_NAME-6 "θd"
*MEAS_COND_AXIS_NAME-7 "Ts"
*MEAS_COND_AXIS_NAME-8 "CBO選択スリット"
*MEAS_COND_AXIS_NAME-9 "M"
*MEAS_COND_AXIS_NAME-10 "入射平行スリット"
*MEAS_COND_AXIS_NAME-11 "入射スリット"
*MEAS_COND_AXIS_NAME-12 ""
*MEAS_COND_AXIS_NAME-13 "Zs"
*MEAS_COND_AXIS_NAME-14 "入射光学素子"
*MEAS_COND_AXIS_NAME-15 "長手制限スリット"
*MEAS_COND_AXIS_NAME-16 "センタースリット"
*MEAS_COND_AXIS_NAME-17 "フィルター"
*MEAS_COND_AXIS_NAME-18 "受光スリット1"
*MEAS_COND_AXIS_NAME-19 "受光スリット2"
*MEAS_COND_AXIS_NAME-20 "受光光学素子"
*MEAS_COND_AXIS_NAME-21 "受光平行スリット"
*MEAS_COND_AXIS_NAME-22 "調整用受光スリット"
*MEAS_COND_AXIS_NAME-23 ""
*MEAS_COND_AXIS_NAME-24 ""
*MEAS_COND_AXIS_NAME-25 "Zd"
*MEAS_COND_AXIS_NAME-26 "アッテネータ"
*MEAS_COND_AXIS_NAME-27 "検出器モノクロメータ"
*MEAS_COND_AXIS_NAME-28 "モノクロメータスリット"
*MEAS_COND_AXIS_NAME-29 "プライマリビーム"
*MEAS_COND_AXIS_NAME-30 "PHA"
*MEAS_COND_AXIS_NAME_INTERNAL-0 "TwoThetaTheta"
*MEAS_COND_AXIS_NAME_INTERNAL-1 "TwoTheta"
*MEAS_COND_AXIS_NAME_INTERNAL-2 "Omega"
*MEAS_COND_AXIS_NAME_INTERNAL-3 "Z"
*MEAS_COND_AXIS_NAME_INTERNAL-4 "TwoThetaOmega"
*MEAS_COND_AXIS_NAME_INTERNAL-5 "ThetaS"
*MEAS_COND_AXIS_NAME_INTERNAL-6 "ThetaD"
*MEAS_COND_AXIS_NAME_INTERNAL-7 "Ts"
*MEAS_COND_AXIS_NAME_INTERNAL-8 "CBO"
*MEAS_COND_AXIS_NAME_INTERNAL-9 "CBO-M"
*MEAS_COND_AXIS_NAME_INTERNAL-10 "IncidentSollerSlit"
*MEAS_COND_AXIS_NAME_INTERNAL-11 "IncidentSlitBox"
*MEAS_COND_AXIS_NAME_INTERNAL-12 "IncidentSlitBox-_Axis"
*MEAS_COND_AXIS_NAME_INTERNAL-13 "Zs"
*MEAS_COND_AXIS_NAME_INTERNAL-14 "IncidentMonochromator"
*MEAS_COND_AXIS_NAME_INTERNAL-15 "IncidentAxdSlit"
*MEAS_COND_AXIS_NAME_INTERNAL-16 "CenterSlit"
*MEAS_COND_AXIS_NAME_INTERNAL-17 "Filter"
*MEAS_COND_AXIS_NAME_INTERNAL-18 "ReceivingSlitBox1"
*MEAS_COND_AXIS_NAME_INTERNAL-19 "ReceivingSlitBox2"
*MEAS_COND_AXIS_NAME_INTERNAL-20 "ReceivingOptics"
*MEAS_COND_AXIS_NAME_INTERNAL-21 "ReceivingSollerSlit"
*MEAS_COND_AXIS_NAME_INTERNAL-22 "ReceivingAxdSlit"
*MEAS_COND_AXIS_NAME_INTERNAL-23 "ReceivingSlitBox1-_Axis"
*MEAS_COND_AXIS_NAME_INTERNAL-24 "ReceivingSlitBox2-_Axis"
*MEAS_COND_AXIS_NAME_INTERNAL-25 "ReceivingSlitBox2-Zd"
*MEAS_COND_AXIS_NAME_INTERNAL-26 "Attenuator"
*MEAS_COND_AXIS_NAME_INTERNAL-27 "CounterMonochromator"
*MEAS_COND_AXIS_NAME_INTERNAL-28 "CounterSlit"
*MEAS_COND_AXIS_NAME_INTERNAL-29 "IncidentPrimary"
*MEAS_COND_AXIS_NAME_INTERNAL-30 "PHA"
*MEAS_COND_AXIS_NAME_MAGICNO-0 "83951616.0000000000"
*MEAS_COND_AXIS_NAME_MAGICNO-1 "268632064.0000000000"
*MEAS_COND_AXIS_NAME_MAGICNO-2 "268500992.0000000000"
*MEAS_COND_AXIS_NAME_MAGICNO-3 "285278208.0000000000"
*MEAS_COND_AXIS_NAME_MAGICNO-4 "83951616.0000000000"
*MEAS_COND_AXIS_NAME_MAGICNO-5 "131072.0000000000"
*MEAS_COND_AXIS_NAME_MAGICNO-6 "131072.0000000000"
*MEAS_COND_AXIS_NAME_MAGICNO-7 "318898176.0000000000"
*MEAS_COND_AXIS_NAME_MAGICNO-8 "20971521.0000000000"
*MEAS_COND_AXIS_NAME_MAGICNO-9 "285343744.0000000000"
*MEAS_COND_AXIS_NAME_MAGICNO-10 "20971521.0000000000"
*MEAS_COND_AXIS_NAME_MAGICNO-11 "22020097.0000000000"
*MEAS_COND_AXIS_NAME_MAGICNO-12 "25165824.0000000000"
*MEAS_COND_AXIS_NAME_MAGICNO-13 "318898176.0000000000"
*MEAS_COND_AXIS_NAME_MAGICNO-14 "1.0000000000"
*MEAS_COND_AXIS_NAME_MAGICNO-15 "20971521.0000000000"
*MEAS_COND_AXIS_NAME_MAGICNO-16 "20971521.0000000000"
*MEAS_COND_AXIS_NAME_MAGICNO-17 "20971521.0000000000"
*MEAS_COND_AXIS_NAME_MAGICNO-18 "23068673.0000000000"
*MEAS_COND_AXIS_NAME_MAGICNO-19 "23068673.0000000000"
*MEAS_COND_AXIS_NAME_MAGICNO-20 "20971521.0000000000"
*MEAS_COND_AXIS_NAME_MAGICNO-21 "20971521.0000000000"
*MEAS_COND_AXIS_NAME_MAGICNO-22 "20971521.0000000000"
*MEAS_COND_AXIS_NAME_MAGICNO-23 "25165824.0000000000"
*MEAS_COND_AXIS_NAME_MAGICNO-24 "25165824.0000000000"
*MEAS_COND_AXIS_NAME_MAGICNO-25 "285343744.0000000000"
*MEAS_COND_AXIS_NAME_MAGICNO-26 "17301505.0000000000"
*MEAS_COND_AXIS_NAME_MAGICNO-27 "20971521.0000000000"
*MEAS_COND_AXIS_NAME_MAGICNO-28 "20971521.0000000000"
*MEAS_COND_AXIS_NAME_MAGICNO-29 "20971521.0000000000"
*MEAS_COND_AXIS_NAME_MAGICNO-30 "0.0000000000"
*MEAS_COND_AXIS_OFFSET-0 "-"
*MEAS_COND_AXIS_OFFSET-1 "-0.1081000000"
*MEAS_COND_AXIS_OFFSET-2 "0.3758000000"
*MEAS_COND_AXIS_OFFSET-3 "-"
*MEAS_COND_AXIS_OFFSET-4 "-"
*MEAS_COND_AXIS_OFFSET-5 "0.3758000000"
*MEAS_COND_AXIS_OFFSET-6 "-0.4839000000"
*MEAS_COND_AXIS_OFFSET-7 "-"
*MEAS_COND_AXIS_OFFSET-8 "-"
*MEAS_COND_AXIS_OFFSET-9 "-"
*MEAS_COND_AXIS_OFFSET-10 "-"
*MEAS_COND_AXIS_OFFSET-11 "-"
*MEAS_COND_AXIS_OFFSET-12 "-"
*MEAS_COND_AXIS_OFFSET-13 "-"
*MEAS_COND_AXIS_OFFSET-14 "-"
*MEAS_COND_AXIS_OFFSET-15 "-"
*MEAS_COND_AXIS_OFFSET-16 "-"
*MEAS_COND_AXIS_OFFSET-17 "-"
*MEAS_COND_AXIS_OFFSET-18 "-"
*MEAS_COND_AXIS_OFFSET-19 "-"
*MEAS_COND_AXIS_OFFSET-20 "-"
*MEAS_COND_AXIS_OFFSET-21 "-"
*MEAS_COND_AXIS_OFFSET-22 "-"
*MEAS_COND_AXIS_OFFSET-23 "-"
*MEAS_COND_AXIS_OFFSET-24 "-"
*MEAS_COND_AXIS_OFFSET-25 "-"
*MEAS_COND_AXIS_OFFSET-26 "-"
*MEAS_COND_AXIS_OFFSET-27 "-"
*MEAS_COND_AXIS_OFFSET-28 "-"
*MEAS_COND_AXIS_OFFSET-29 "-"
*MEAS_COND_AXIS_OFFSET-30 "-"
*MEAS_COND_AXIS_POSITION-0 "0.0000000000"
*MEAS_COND_AXIS_POSITION-1 "0.0000000000"
*MEAS_COND_AXIS_POSITION-2 "0.0000000000"
*MEAS_COND_AXIS_POSITION-3 "-0.5500000000"
*MEAS_COND_AXIS_POSITION-4 "0.0000000000"
*MEAS_COND_AXIS_POSITION-5 "0.0000000000"
*MEAS_COND_AXIS_POSITION-6 "0.0000000000"
*MEAS_COND_AXIS_POSITION-7 "-0.4278800000"
*MEAS_COND_AXIS_POSITION-8 "BB"
*MEAS_COND_AXIS_POSITION-9 "0.0000000000"
*MEAS_COND_AXIS_POSITION-10 "Soller_slit_5.0deg"
*MEAS_COND_AXIS_POSITION-11 "2/3deg"
*MEAS_COND_AXIS_POSITION-12 "2.2088000000"
*MEAS_COND_AXIS_POSITION-13 "-0.4140600000"
*MEAS_COND_AXIS_POSITION-14 "0.0000000000"
*MEAS_COND_AXIS_POSITION-15 "10.0mm"
*MEAS_COND_AXIS_POSITION-16 "None"
*MEAS_COND_AXIS_POSITION-17 "Cu_K-beta"
*MEAS_COND_AXIS_POSITION-18 "13.000mm"
*MEAS_COND_AXIS_POSITION-19 "13.000mm"
*MEAS_COND_AXIS_POSITION-20 "No_unit"
*MEAS_COND_AXIS_POSITION-21 "Soller_slit_5.0deg"
*MEAS_COND_AXIS_POSITION-22 "None"
*MEAS_COND_AXIS_POSITION-23 "13.0000000000"
*MEAS_COND_AXIS_POSITION-24 "13.0000000000"
*MEAS_COND_AXIS_POSITION-25 "0.0109400000"
*MEAS_COND_AXIS_POSITION-26 "Open"
*MEAS_COND_AXIS_POSITION-27 "None"
*MEAS_COND_AXIS_POSITION-28 "None"
*MEAS_COND_AXIS_POSITION-29 "None"
*MEAS_COND_AXIS_POSITION-30 "38.0000000000"
*MEAS_COND_AXIS_UNIT-0 "deg"
*MEAS_COND_AXIS_UNIT-1 "deg"
*MEAS_COND_AXIS_UNIT-2 "deg"
*MEAS_COND_AXIS_UNIT-3 "mm"
*MEAS_COND_AXIS_UNIT-4 "deg"
*MEAS_COND_AXIS_UNIT-5 "deg"
*MEAS_COND_AXIS_UNIT-6 "deg"
*MEAS_COND_AXIS_UNIT-7 "mm"
*MEAS_COND_AXIS_UNIT-8 ""
*MEAS_COND_AXIS_UNIT-9 "pulse"
*MEAS_COND_AXIS_UNIT-10 ""
*MEAS_COND_AXIS_UNIT-11 ""
*MEAS_COND_AXIS_UNIT-12 "mm"
*MEAS_COND_AXIS_UNIT-13 "mm"
*MEAS_COND_AXIS_UNIT-14 ""
*MEAS_COND_AXIS_UNIT-15 ""
*MEAS_COND_AXIS_UNIT-16 ""
*MEAS_COND_AXIS_UNIT-17 ""
*MEAS_COND_AXIS_UNIT-18 ""
*MEAS_COND_AXIS_UNIT-19 ""
*MEAS_COND_AXIS_UNIT-20 ""
*MEAS_COND_AXIS_UNIT-21 ""
*MEAS_COND_AXIS_UNIT-22 ""
*MEAS_COND_AXIS_UNIT-23 "mm"
*MEAS_COND_AXIS_UNIT-24 "mm"
*MEAS_COND_AXIS_UNIT-25 "mm"
*MEAS_COND_AXIS_UNIT-26 ""
*MEAS_COND_AXIS_UNIT-27 ""
*MEAS_COND_AXIS_UNIT-28 ""
*MEAS_COND_AXIS_UNIT-29 ""
*MEAS_COND_AXIS_UNIT-30 "div"
*MEAS_COND_COUNTER_CNTLOSS_CORR "0.0000000000"
*MEAS_COND_COUNTER_PHABASE "38.0000000000"
*MEAS_COND_COUNTER_PHAWINDOW "16.0000000000"
*MEAS_COND_COUNTER_PHA_UNIT "div"
*MEAS_COND_COUNTER_TAUDIFF "30.0000000000"
*MEAS_COND_COUNTER_TAUINT "0.0000000000"
*MEAS_COND_IRRADIATION_MODE "OFF"
*MEAS_COND_IRRADIATION_WIDTH ""
*MEAS_COND_OPT_ATTR "集中法"
*MEAS_COND_OPT_NAME "@集中法"
*MEAS_COND_UNSYMMETRIC_MODE "OFF"
*MEAS_COND_XG_CURRENT "30.0000000000"
*MEAS_COND_XG_VOLTAGE "40.0000000000"
*MEAS_COND_XG_WAVE_TYPE "Ka"
*MEAS_DATA_COUNT "5001.0000000000"
*MEAS_SCAN_AXIS_X "2θ/θ"
*MEAS_SCAN_AXIS_X_INTERNAL "TwoThetaTheta"
*MEAS_SCAN_END_TIME "07/06/21 15:24:12"
*MEAS_SCAN_MODE "CONTINUOUS"
*MEAS_SCAN_MONITOR "0"
*MEAS_SCAN_RESOLUTION_X "0.0002"
*MEAS_SCAN_SPEED "1.0"
*MEAS_SCAN_SPEED_UNIT "deg/min"
*MEAS_SCAN_START "20.0000000000"
*MEAS_SCAN_START_TIME "07/06/21 14:31:18"
*MEAS_SCAN_STEP "0.0100000000"
*MEAS_SCAN_STOP "70.0000000000"
*MEAS_SCAN_UNIT_X "deg"
*MEAS_SCAN_UNIT_Y "counts"
*RAS_HEADER_END
*RAS_INT_START
20.0000 1659.0000 1.0000
20.0100 1628.0000 1.0000
20.0200 1645.0000 1.0000
20.0300 1641.0000 1.0000
20.0400 1702.0000 1.0000
20.0500 1679.0000 1.0000
20.0600 1662.0000 1.0000
20.0700 1621.0000 1.0000
20.0800 1679.0000 1.0000
20.0900 1702.0000 1.0000
20.1000 1762.0000 1.0000
20.1100 1625.0000 1.0000
20.1200 1710.0000 1.0000
20.1300 1708.0000 1.0000
20.1400 1666.0000 1.0000
20.1500 1669.0000 1.0000
20.1600 1634.0000 1.0000
20.1700 1658.0000 1.0000
20.1800 1622.0000 1.0000
20.1900 1640.0000 1.0000
20.2000 1654.0000 1.0000
20.2100 1633.0000 1.0000
20.2200 1672.0000 1.0000
20.2300 1711.0000 1.0000
20.2400 1676.0000 1.0000
20.2500 1688.0000 1.0000
20.2600 1698.0000 1.0000
20.2700 1701.0000 1.0000
20.2800 1687.0000 1.0000
20.2900 1700.0000 1.0000
20.3000 1688.0000 1.0000
20.3100 1693.0000 1.0000
20.3200 1660.0000 1.0000
20.3300 1635.0000 1.0000
20.3400 1648.0000 1.0000
20.3500 1719.0000 1.0000
20.3600 1612.0000 1.0000
20.3700 1656.0000 1.0000
20.3800 1731.0000 1.0000
20.3900 1721.0000 1.0000
20.4000 1673.0000 1.0000
20.4100 1638.0000 1.0000
20.4200 1708.0000 1.0000
20.4300 1661.0000 1.0000
20.4400 1640.0000 1.0000
20.4500 1647.0000 1.0000
20.4600 1631.0000 1.0000
20.4700 1690.0000 1.0000
20.4800 1680.0000 1.0000
20.4900 1654.0000 1.0000
20.5000 1705.0000 1.0000
20.5100 1686.0000 1.0000
20.5200 1742.0000 1.0000
20.5300 1708.0000 1.0000
20.5400 1645.0000 1.0000
20.5500 1655.0000 1.0000
20.5600 1589.0000 1.0000
20.5700 1645.0000 1.0000
20.5800 1610.0000 1.0000
20.5900 1650.0000 1.0000
20.6000 1700.0000 1.0000
20.6100 1674.0000 1.0000
20.6200 1713.0000 1.0000
20.6300 1724.0000 1.0000
20.6400 1631.0000 1.0000
20.6500 1621.0000 1.0000
20.6600 1667.0000 1.0000
20.6700 1694.0000 1.0000
20.6800 1667.0000 1.0000
20.6900 1664.0000 1.0000
20.7000 1623.0000 1.0000
20.7100 1667.0000 1.0000
20.7200 1656.0000 1.0000
20.7300 1690.0000 1.0000
20.7400 1620.0000 1.0000
20.7500 1651.0000 1.0000
20.7600 1647.0000 1.0000
20.7700 1662.0000 1.0000
20.7800 1698.0000 1.0000
20.7900 1679.0000 1.0000
20.8000 1708.0000 1.0000
20.8100 1655.0000 1.0000
20.8200 1679.0000 1.0000
20.8300 1686.0000 1.0000
20.8400 1686.0000 1.0000
20.8500 1671.0000 1.0000
20.8600 1671.0000 1.0000
20.8700 1622.0000 1.0000
20.8800 1679.0000 1.0000
20.8900 1634.0000 1.0000
20.9000 1674.0000 1.0000
20.9100 1639.0000 1.0000
20.9200 1735.0000 1.0000
20.9300 1736.0000 1.0000
20.9400 1674.0000 1.0000
20.9500 1616.0000 1.0000
20.9600 1701.0000 1.0000
20.9700 1687.0000 1.0000
20.9800 1696.0000 1.0000
20.9900 1703.0000 1.0000
21.0000 1657.0000 1.0000
21.0100 1647.0000 1.0000
21.0200 1695.0000 1.0000
21.0300 1662.0000 1.0000
21.0400 1670.0000 1.0000
21.0500 1661.0000 1.0000
21.0600 1707.0000 1.0000
21.0700 1681.0000 1.0000
21.0800 1651.0000 1.0000
21.0900 1739.0000 1.0000
21.1000 1702.0000 1.0000
21.1100 1688.0000 1.0000
21.1200 1700.0000 1.0000
21.1300 1711.0000 1.0000
21.1400 1734.0000 1.0000
21.1500 1657.0000 1.0000
21.1600 1657.0000 1.0000
21.1700 1686.0000 1.0000
21.1800 1677.0000 1.0000
21.1900 1654.0000 1.0000
21.2000 1719.0000 1.0000
21.2100 1657.0000 1.0000
21.2200 1658.0000 1.0000
21.2300 1757.0000 1.0000
21.2400 1610.0000 1.0000
21.2500 1671.0000 1.0000
21.2600 1721.0000 1.0000
21.2700 1665.0000 1.0000
21.2800 1674.0000 1.0000
21.2900 1668.0000 1.0000
21.3000 1706.0000 1.0000
21.3100 1692.0000 1.0000
21.3200 1673.0000 1.0000
21.3300 1757.0000 1.0000
21.3400 1726.0000 1.0000
21.3500 1665.0000 1.0000
21.3600 1734.0000 1.0000
21.3700 1648.0000 1.0000
21.3800 1655.0000 1.0000
21.3900 1618.0000 1.0000
21.4000 1658.0000 1.0000
21.4100 1665.0000 1.0000
21.4200 1701.0000 1.0000
21.4300 1665.0000 1.0000
21.4400 1670.0000 1.0000
21.4500 1677.0000 1.0000
21.4600 1648.0000 1.0000
21.4700 1649.0000 1.0000
21.4800 1680.0000 1.0000
21.4900 1702.0000 1.0000
21.5000 1648.0000 1.0000
21.5100 1704.0000 1.0000
21.5200 1701.0000 1.0000
21.5300 1738.0000 1.0000
21.5400 1648.0000 1.0000
21.5500 1586.0000 1.0000
21.5600 1630.0000 1.0000
21.5700 1710.0000 1.0000
21.5800 1667.0000 1.0000
21.5900 1673.0000 1.0000
21.6000 1654.0000 1.0000
21.6100 1671.0000 1.0000
21.6200 1694.0000 1.0000
21.6300 1715.0000 1.0000
21.6400 1767.0000 1.0000
21.6500 1716.0000 1.0000
21.6600 1701.0000 1.0000
21.6700 1742.0000 1.0000
21.6800 1744.0000 1.0000
21.6900 1688.0000 1.0000
21.7000 1793.0000 1.0000
21.7100 1686.0000 1.0000
21.7200 1715.0000 1.0000
21.7300 1746.0000 1.0000
21.7400 1685.0000 1.0000
21.7500 1666.0000 1.0000
21.7600 1680.0000 1.0000
21.7700 1726.0000 1.0000
21.7800 1680.0000 1.0000
21.7900 1672.0000 1.0000
21.8000 1718.0000 1.0000
21.8100 1694.0000 1.0000
21.8200 1732.0000 1.0000
21.8300 1722.0000 1.0000
21.8400 1718.0000 1.0000
21.8500 1698.0000 1.0000
21.8600 1672.0000 1.0000
21.8700 1647.0000 1.0000
21.8800 1681.0000 1.0000
21.8900 1773.0000 1.0000
21.9000 1673.0000 1.0000
21.9100 1709.0000 1.0000
21.9200 1742.0000 1.0000
21.9300 1662.0000 1.0000
21.9400 1694.0000 1.0000
21.9500 1651.0000 1.0000
21.9600 1675.0000 1.0000
21.9700 1714.0000 1.0000
21.9800 1705.0000 1.0000
21.9900 1709.0000 1.0000
22.0000 1721.0000 1.0000
22.0100 1799.0000 1.0000
22.0200 1672.0000 1.0000
22.0300 1740.0000 1.0000
22.0400 1743.0000 1.0000
22.0500 1729.0000 1.0000
22.0600 1695.0000 1.0000
22.0700 1698.0000 1.0000
22.0800 1710.0000 1.0000
22.0900 1648.0000 1.0000
22.1000 1697.0000 1.0000
22.1100 1720.0000 1.0000
22.1200 1695.0000 1.0000
22.1300 1671.0000 1.0000
22.1400 1734.0000 1.0000
22.1500 1772.0000 1.0000
22.1600 1660.0000 1.0000
22.1700 1702.0000 1.0000
22.1800 1704.0000 1.0000
22.1900 1698.0000 1.0000
22.2000 1716.0000 1.0000
22.2100 1652.0000 1.0000
22.2200 1690.0000 1.0000
22.2300 1710.0000 1.0000
22.2400 1710.0000 1.0000
22.2500 1687.0000 1.0000
22.2600 1745.0000 1.0000
22.2700 1752.0000 1.0000
22.2800 1726.0000 1.0000
22.2900 1746.0000 1.0000
22.3000 1676.0000 1.0000
22.3100 1644.0000 1.0000
22.3200 1704.0000 1.0000
22.3300 1686.0000 1.0000
22.3400 1672.0000 1.0000
22.3500 1643.0000 1.0000
22.3600 1673.0000 1.0000
22.3700 1713.0000 1.0000
22.3800 1740.0000 1.0000
22.3900 1746.0000 1.0000
22.4000 1710.0000 1.0000
22.4100 1716.0000 1.0000
22.4200 1758.0000 1.0000
22.4300 1726.0000 1.0000
22.4400 1727.0000 1.0000
22.4500 1750.0000 1.0000
22.4600 1707.0000 1.0000
22.4700 1688.0000 1.0000
22.4800 1774.0000 1.0000
22.4900 1648.0000 1.0000
22.5000 1696.0000 1.0000
22.5100 1754.0000 1.0000
22.5200 1775.0000 1.0000
22.5300 1751.0000 1.0000
22.5400 1759.0000 1.0000
22.5500 1614.0000 1.0000
22.5600 1646.0000 1.0000
22.5700 1730.0000 1.0000
22.5800 1738.0000 1.0000
22.5900 1754.0000 1.0000
22.6000 1679.0000 1.0000
22.6100 1712.0000 1.0000
22.6200 1671.0000 1.0000
22.6300 1687.0000 1.0000
22.6400 1710.0000 1.0000
22.6500 1669.0000 1.0000
22.6600 1707.0000 1.0000
22.6700 1694.0000 1.0000
22.6800 1698.0000 1.0000
22.6900 1715.0000 1.0000
22.7000 1740.0000 1.0000
22.7100 1764.0000 1.0000
22.7200 1781.0000 1.0000
22.7300 1748.0000 1.0000
22.7400 1761.0000 1.0000
22.7500 1742.0000 1.0000
22.7600 1686.0000 1.0000
22.7700 1724.0000 1.0000
22.7800 1731.0000 1.0000
22.7900 1745.0000 1.0000
22.8000 1708.0000 1.0000
22.8100 1705.0000 1.0000
22.8200 1671.0000 1.0000
22.8300 1674.0000 1.0000
22.8400 1732.0000 1.0000
22.8500 1802.0000 1.0000
22.8600 1770.0000 1.0000
22.8700 1707.0000 1.0000
22.8800 1689.0000 1.0000
22.8900 1744.0000 1.0000
22.9000 1748.0000 1.0000
22.9100 1783.0000 1.0000
22.9200 1772.0000 1.0000
22.9300 1752.0000 1.0000
22.9400 1834.0000 1.0000
22.9500 1817.0000 1.0000
22.9600 1749.0000 1.0000
22.9700 1735.0000 1.0000
22.9800 1736.0000 1.0000
22.9900 1746.0000 1.0000
23.0000 1724.0000 1.0000
23.0100 1778.0000 1.0000
23.0200 1753.0000 1.0000
23.0300 1749.0000 1.0000
23.0400 1758.0000 1.0000
23.0500 1737.0000 1.0000
23.0600 1719.0000 1.0000
23.0700 1655.0000 1.0000
23.0800 1729.0000 1.0000
23.0900 1709.0000 1.0000
23.1000 1694.0000 1.0000
23.1100 1739.0000 1.0000
23.1200 1773.0000 1.0000
23.1300 1734.0000 1.0000
23.1400 1699.0000 1.0000
23.1500 1799.0000 1.0000
23.1600 1743.0000 1.0000
23.1700 1726.0000 1.0000
23.1800 1725.0000 1.0000
23.1900 1689.0000 1.0000
23.2000 1729.0000 1.0000
23.2100 1655.0000 1.0000
23.2200 1715.0000 1.0000
23.2300 1715.0000 1.0000
23.2400 1752.0000 1.0000
23.2500 1784.0000 1.0000
23.2600 1803.0000 1.0000
23.2700 1650.0000 1.0000
23.2800 1739.0000 1.0000
23.2900 1737.0000 1.0000
23.3000 1677.0000 1.0000
23.3100 1780.0000 1.0000
23.3200 1745.0000 1.0000
23.3300 1736.0000 1.0000
23.3400 1686.0000 1.0000
23.3500 1721.0000 1.0000
23.3600 1697.0000 1.0000
23.3700 1691.0000 1.0000
23.3800 1733.0000 1.0000
23.3900 1700.0000 1.0000
23.4000 1764.0000 1.0000
23.4100 1759.0000 1.0000
23.4200 1746.0000 1.0000
23.4300 1779.0000 1.0000
23.4400 1783.0000 1.0000
23.4500 1785.0000 1.0000
23.4600 1770.0000 1.0000
23.4700 1734.0000 1.0000
23.4800 1782.0000 1.0000
23.4900 1801.0000 1.0000
23.5000 1800.0000 1.0000
23.5100 1696.0000 1.0000
23.5200 1747.0000 1.0000
23.5300 1734.0000 1.0000
23.5400 1759.0000 1.0000
23.5500 1793.0000 1.0000
23.5600 1792.0000 1.0000
23.5700 1759.0000 1.0000
23.5800 1768.0000 1.0000
23.5900 1768.0000 1.0000
23.6000 1737.0000 1.0000
23.6100 1715.0000 1.0000
23.6200 1667.0000 1.0000
23.6300 1793.0000 1.0000
23.6400 1689.0000 1.0000
23.6500 1744.0000 1.0000
23.6600 1765.0000 1.0000
23.6700 1824.0000 1.0000
23.6800 1765.0000 1.0000
23.6900 1782.0000 1.0000
23.7000 1743.0000 1.0000
23.7100 1725.0000 1.0000
23.7200 1740.0000 1.0000
23.7300 1761.0000 1.0000
23.7400 1750.0000 1.0000
23.7500 1753.0000 1.0000
23.7600 1746.0000 1.0000
23.7700 1680.0000 1.0000
23.7800 1733.0000 1.0000
23.7900 1792.0000 1.0000
23.8000 1689.0000 1.0000
23.8100 1732.0000 1.0000
23.8200 1697.0000 1.0000
23.8300 1824.0000 1.0000
23.8400 1771.0000 1.0000
23.8500 1781.0000 1.0000
23.8600 1730.0000 1.0000
23.8700 1817.0000 1.0000
23.8800 1724.0000 1.0000
23.8900 1758.0000 1.0000
23.9000 1762.0000 1.0000
23.9100 1728.0000 1.0000
23.9200 1772.0000 1.0000
23.9300 1806.0000 1.0000
23.9400 1753.0000 1.0000
23.9500 1774.0000 1.0000
23.9600 1778.0000 1.0000
23.9700 1736.0000 1.0000
23.9800 1752.0000 1.0000
23.9900 1690.0000 1.0000
24.0000 1767.0000 1.0000
24.0100 1755.0000 1.0000
24.0200 1786.0000 1.0000
24.0300 1753.0000 1.0000
24.0400 1750.0000 1.0000
24.0500 1750.0000 1.0000
24.0600 1704.0000 1.0000
24.0700 1744.0000 1.0000
24.0800 1772.0000 1.0000
24.0900 1728.0000 1.0000
24.1000 1763.0000 1.0000
24.1100 1803.0000 1.0000
24.1200 1762.0000 1.0000
24.1300 1748.0000 1.0000
24.1400 1789.0000 1.0000
24.1500 1791.0000 1.0000
24.1600 1784.0000 1.0000
24.1700 1816.0000 1.0000
24.1800 1763.0000 1.0000
24.1900 1719.0000 1.0000
24.2000 1746.0000 1.0000
24.2100 1796.0000 1.0000
24.2200 1772.0000 1.0000
24.2300 1748.0000 1.0000
24.2400 1788.0000 1.0000
24.2500 1782.0000 1.0000
24.2600 1752.0000 1.0000
24.2700 1830.0000 1.0000
24.2800 1756.0000 1.0000
24.2900 1741.0000 1.0000
24.3000 1725.0000 1.0000
24.3100 1766.0000 1.0000
24.3200 1769.0000 1.0000
24.3300 1771.0000 1.0000
24.3400 1756.0000 1.0000
24.3500 1840.0000 1.0000
24.3600 1806.0000 1.0000
24.3700 1799.0000 1.0000
24.3800 1746.0000 1.0000
24.3900 1741.0000 1.0000
24.4000 1745.0000 1.0000
24.4100 1780.0000 1.0000
24.4200 1808.0000 1.0000
24.4300 1793.0000 1.0000
24.4400 1764.0000 1.0000
24.4500 1731.0000 1.0000
24.4600 1746.0000 1.0000
24.4700 1769.0000 1.0000
24.4800 1792.0000 1.0000
24.4900 1793.0000 1.0000
24.5000 1818.0000 1.0000
24.5100 1740.0000 1.0000
24.5200 1751.0000 1.0000
24.5300 1823.0000 1.0000
24.5400 1779.0000 1.0000
24.5500 1716.0000 1.0000
24.5600 1821.0000 1.0000
24.5700 1696.0000 1.0000
24.5800 1863.0000 1.0000
24.5900 1832.0000 1.0000
24.6000 1847.0000 1.0000
24.6100 1771.0000 1.0000
24.6200 1750.0000 1.0000
24.6300 1806.0000 1.0000
24.6400 1791.0000 1.0000
24.6500 1794.0000 1.0000
24.6600 1840.0000 1.0000
24.6700 1799.0000 1.0000
24.6800 1839.0000 1.0000
24.6900 1826.0000 1.0000
24.7000 1810.0000 1.0000
24.7100 1804.0000 1.0000
24.7200 1839.0000 1.0000
24.7300 1800.0000 1.0000
24.7400 1833.0000 1.0000
24.7500 1840.0000 1.0000
24.7600 1802.0000 1.0000
24.7700 1838.0000 1.0000
24.7800 1827.0000 1.0000
24.7900 1803.0000 1.0000
24.8000 1762.0000 1.0000
24.8100 1875.0000 1.0000
24.8200 1839.0000 1.0000
24.8300 1864.0000 1.0000
24.8400 1879.0000 1.0000
24.8500 1887.0000 1.0000
24.8600 1802.0000 1.0000
24.8700 1821.0000 1.0000
24.8800 1853.0000 1.0000
24.8900 1882.0000 1.0000
24.9000 1896.0000 1.0000
24.9100 1784.0000 1.0000
24.9200 1849.0000 1.0000
24.9300 1806.0000 1.0000
24.9400 1882.0000 1.0000
24.9500 1858.0000 1.0000
24.9600 1869.0000 1.0000
24.9700 1896.0000 1.0000
24.9800 1828.0000 1.0000
24.9900 1913.0000 1.0000
25.0000 1852.0000 1.0000
25.0100 1886.0000 1.0000
25.0200 1785.0000 1.0000
25.0300 1888.0000 1.0000
25.0400 1820.0000 1.0000
25.0500 1875.0000 1.0000
25.0600 1826.0000 1.0000
25.0700 1854.0000 1.0000
25.0800 1822.0000 1.0000
25.0900 1893.0000 1.0000
25.1000 1822.0000 1.0000
25.1100 1850.0000 1.0000
25.1200 1784.0000 1.0000
25.1300 1821.0000 1.0000
25.1400 1861.0000 1.0000
25.1500 1902.0000 1.0000
25.1600 1770.0000 1.0000
25.1700 1793.0000 1.0000
25.1800 1895.0000 1.0000
25.1900 1930.0000 1.0000
25.2000 1864.0000 1.0000
25.2100 1766.0000 1.0000
25.2200 1874.0000 1.0000
25.2300 1774.0000 1.0000
25.2400 1871.0000 1.0000
25.2500 1859.0000 1.0000
25.2600 1738.0000 1.0000
25.2700 1810.0000 1.0000
25.2800 1815.0000 1.0000
25.2900 1814.0000 1.0000
25.3000 1785.0000 1.0000
25.3100 1845.0000 1.0000
25.3200 1791.0000 1.0000
25.3300 1814.0000 1.0000
25.3400 1872.0000 1.0000
25.3500 1779.0000 1.0000
25.3600 1873.0000 1.0000
25.3700 1895.0000 1.0000
25.3800 1843.0000 1.0000
25.3900 1826.0000 1.0000
25.4000 1837.0000 1.0000
25.4100 1763.0000 1.0000
25.4200 1769.0000 1.0000
25.4300 1780.0000 1.0000
25.4400 1813.0000 1.0000
25.4500 1816.0000 1.0000
25.4600 1724.0000 1.0000
25.4700 1865.0000 1.0000
25.4800 1851.0000 1.0000
25.4900 1829.0000 1.0000
25.5000 1831.0000 1.0000
25.5100 1826.0000 1.0000
25.5200 1831.0000 1.0000
25.5300 1824.0000 1.0000
25.5400 1815.0000 1.0000
25.5500 1802.0000 1.0000
25.5600 1795.0000 1.0000
25.5700 1797.0000 1.0000
25.5800 1813.0000 1.0000
25.5900 1830.0000 1.0000
25.6000 1801.0000 1.0000
25.6100 1863.0000 1.0000
25.6200 1808.0000 1.0000
25.6300 1784.0000 1.0000
25.6400 1793.0000 1.0000
25.6500 1745.0000 1.0000
25.6600 1775.0000 1.0000
25.6700 1817.0000 1.0000
25.6800 1806.0000 1.0000
25.6900 1762.0000 1.0000
25.7000 1849.0000 1.0000
25.7100 1812.0000 1.0000
25.7200 1780.0000 1.0000
25.7300 1822.0000 1.0000
25.7400 1796.0000 1.0000
25.7500 1861.0000 1.0000
25.7600 1860.0000 1.0000
25.7700 1799.0000 1.0000
25.7800 1727.0000 1.0000
25.7900 1797.0000 1.0000
25.8000 1804.0000 1.0000
25.8100 1860.0000 1.0000
25.8200 1795.0000 1.0000
25.8300 1726.0000 1.0000
25.8400 1822.0000 1.0000
25.8500 1794.0000 1.0000
25.8600 1849.0000 1.0000
25.8700 1837.0000 1.0000
25.8800 1828.0000 1.0000
25.8900 1789.0000 1.0000
25.9000 1794.0000 1.0000
25.9100 1835.0000 1.0000
25.9200 1798.0000 1.0000
25.9300 1833.0000 1.0000
25.9400 1763.0000 1.0000
25.9500 1809.0000 1.0000
25.9600 1816.0000 1.0000
25.9700 1801.0000 1.0000
25.9800 1784.0000 1.0000
25.9900 1772.0000 1.0000
26.0000 1782.0000 1.0000
26.0100 1785.0000 1.0000
26.0200 1791.0000 1.0000
26.0300 1826.0000 1.0000
26.0400 1799.0000 1.0000
26.0500 1833.0000 1.0000
26.0600 1799.0000 1.0000
26.0700 1800.0000 1.0000
26.0800 1827.0000 1.0000
26.0900 1854.0000 1.0000
26.1000 1831.0000 1.0000
26.1100 1808.0000 1.0000
26.1200 1798.0000 1.0000
26.1300 1817.0000 1.0000
26.1400 1915.0000 1.0000
26.1500 1875.0000 1.0000
26.1600 1869.0000 1.0000
26.1700 1786.0000 1.0000
26.1800 1805.0000 1.0000
26.1900 1767.0000 1.0000
26.2000 1864.0000 1.0000
26.2100 1893.0000 1.0000
26.2200 1818.0000 1.0000
26.2300 1887.0000 1.0000
26.2400 1816.0000 1.0000
26.2500 1808.0000 1.0000
26.2600 1843.0000 1.0000
26.2700 1874.0000 1.0000
26.2800 1808.0000 1.0000
26.2900 1856.0000 1.0000
26.3000 1876.0000 1.0000
26.3100 1850.0000 1.0000
26.3200 1838.0000 1.0000
26.3300 1798.0000 1.0000
26.3400 1860.0000 1.0000
26.3500 1853.0000 1.0000
26.3600 1827.0000 1.0000
26.3700 1863.0000 1.0000
26.3800 1815.0000 1.0000
26.3900 1799.0000 1.0000
26.4000 1884.0000 1.0000
26.4100 1850.0000 1.0000
26.4200 1812.0000 1.0000
26.4300 1874.0000 1.0000
26.4400 1799.0000 1.0000
26.4500 1843.0000 1.0000
26.4600 1877.0000 1.0000
26.4700 1899.0000 1.0000
26.4800 1878.0000 1.0000
26.4900 1850.0000 1.0000
26.5000 1846.0000 1.0000
26.5100 1885.0000 1.0000
26.5200 1928.0000 1.0000
26.5300 1888.0000 1.0000
26.5400 1936.0000 1.0000
26.5500 1914.0000 1.0000
26.5600 1863.0000 1.0000
26.5700 1898.0000 1.0000
26.5800 1855.0000 1.0000
26.5900 1862.0000 1.0000
26.6000 1962.0000 1.0000
26.6100 1953.0000 1.0000
26.6200 1883.0000 1.0000
26.6300 1935.0000 1.0000
26.6400 1975.0000 1.0000
26.6500 1932.0000 1.0000
26.6600 2005.0000 1.0000
26.6700 1949.0000 1.0000
26.6800 1972.0000 1.0000
26.6900 1916.0000 1.0000
26.7000 1975.0000 1.0000
26.7100 1961.0000 1.0000
26.7200 1915.0000 1.0000
26.7300 1878.0000 1.0000
26.7400 2006.0000 1.0000
26.7500 1972.0000 1.0000
26.7600 2008.0000 1.0000
26.7700 1972.0000 1.0000
26.7800 2044.0000 1.0000
26.7900 2019.0000 1.0000
26.8000 2017.0000 1.0000
26.8100 1975.0000 1.0000
26.8200 2095.0000 1.0000
26.8300 2031.0000 1.0000
26.8400 2065.0000 1.0000
26.8500 2084.0000 1.0000
26.8600 2158.0000 1.0000
26.8700 2102.0000 1.0000
26.8800 2116.0000 1.0000
26.8900 2149.0000 1.0000
26.9000 2181.0000 1.0000
26.9100 2157.0000 1.0000
26.9200 2145.0000 1.0000
26.9300 2192.0000 1.0000
26.9400 2219.0000 1.0000
26.9500 2286.0000 1.0000
26.9600 2327.0000 1.0000
26.9700 2198.0000 1.0000
26.9800 2304.0000 1.0000
26.9900 2324.0000 1.0000
27.0000 2475.0000 1.0000
27.0100 2467.0000 1.0000
27.0200 2534.0000 1.0000
27.0300 2612.0000 1.0000
27.0400 2662.0000 1.0000
27.0500 2651.0000 1.0000
27.0600 2750.0000 1.0000
27.0700 2870.0000 1.0000
27.0800 2957.0000 1.0000
27.0900 3006.0000 1.0000
27.1000 3288.0000 1.0000
27.1100 3317.0000 1.0000
27.1200 3373.0000 1.0000
27.1300 3485.0000 1.0000
27.1400 3600.0000 1.0000
27.1500 3796.0000 1.0000
27.1600 3893.0000 1.0000
27.1700 4087.0000 1.0000
27.1800 4373.0000 1.0000
27.1900 4648.0000 1.0000
27.2000 4747.0000 1.0000
27.2100 5075.0000 1.0000
27.2200 5375.0000 1.0000
27.2300 5545.0000 1.0000
27.2400 5866.0000 1.0000
27.2500 6196.0000 1.0000
27.2600 6451.0000 1.0000
27.2700 6714.0000 1.0000
27.2800 6809.0000 1.0000
27.2900 6840.0000 1.0000
27.3000 6816.0000 1.0000
27.3100 6684.0000 1.0000
27.3200 6767.0000 1.0000
27.3300 6676.0000 1.0000
27.3400 6305.0000 1.0000
27.3500 6125.0000 1.0000
27.3600 5936.0000 1.0000
27.3700 5771.0000 1.0000
27.3800 5458.0000 1.0000
27.3900 5080.0000 1.0000
27.4000 4936.0000 1.0000
27.4100 4735.0000 1.0000
27.4200 4462.0000 1.0000
27.4300 4346.0000 1.0000
27.4400 4105.0000 1.0000
27.4500 3951.0000 1.0000
27.4600 3801.0000 1.0000
27.4700 3588.0000 1.0000
27.4800 3363.0000 1.0000
27.4900 3295.0000 1.0000
27.5000 3242.0000 1.0000
27.5100 3092.0000 1.0000
27.5200 2903.0000 1.0000
27.5300 2837.0000 1.0000
27.5400 2841.0000 1.0000
27.5500 2723.0000 1.0000
27.5600 2607.0000 1.0000
27.5700 2550.0000 1.0000
27.5800 2538.0000 1.0000
27.5900 2487.0000 1.0000
27.6000 2416.0000 1.0000
27.6100 2430.0000 1.0000
27.6200 2265.0000 1.0000
27.6300 2248.0000 1.0000
27.6400 2197.0000 1.0000
27.6500 2197.0000 1.0000
27.6600 2275.0000 1.0000
27.6700 2181.0000 1.0000
27.6800 2218.0000 1.0000
27.6900 2165.0000 1.0000
27.7000 2165.0000 1.0000
27.7100 2129.0000 1.0000
27.7200 2060.0000 1.0000
27.7300 2146.0000 1.0000
27.7400 2035.0000 1.0000
27.7500 2015.0000 1.0000
27.7600 1991.0000 1.0000
27.7700 2020.0000 1.0000
27.7800 2006.0000 1.0000
27.7900 1967.0000 1.0000
27.8000 1982.0000 1.0000
27.8100 1975.0000 1.0000
27.8200 1981.0000 1.0000
27.8300 1957.0000 1.0000
27.8400 1955.0000 1.0000
27.8500 1899.0000 1.0000
27.8600 1967.0000 1.0000
27.8700 2014.0000 1.0000
27.8800 1924.0000 1.0000
27.8900 1908.0000 1.0000
27.9000 1918.0000 1.0000
27.9100 1869.0000 1.0000
27.9200 1910.0000 1.0000
27.9300 1898.0000 1.0000
27.9400 1888.0000 1.0000
27.9500 1893.0000 1.0000
27.9600 1932.0000 1.0000
27.9700 1881.0000 1.0000
27.9800 1914.0000 1.0000
27.9900 1880.0000 1.0000
28.0000 1886.0000 1.0000
28.0100 1886.0000 1.0000
28.0200 1910.0000 1.0000
28.0300 1832.0000 1.0000
28.0400 1843.0000 1.0000
28.0500 1897.0000 1.0000
28.0600 1862.0000 1.0000
28.0700 1863.0000 1.0000
28.0800 1796.0000 1.0000
28.0900 1756.0000 1.0000
28.1000 1791.0000 1.0000
28.1100 1829.0000 1.0000
28.1200 1843.0000 1.0000
28.1300 1738.0000 1.0000
28.1400 1809.0000 1.0000
28.1500 1800.0000 1.0000
28.1600 1760.0000 1.0000
28.1700 1718.0000 1.0000
28.1800 1766.0000 1.0000
28.1900 1750.0000 1.0000
28.2000 1772.0000 1.0000
28.2100 1784.0000 1.0000
28.2200 1764.0000 1.0000
28.2300 1836.0000 1.0000
28.2400 1871.0000 1.0000
28.2500 1772.0000 1.0000
28.2600 1781.0000 1.0000
28.2700 1776.0000 1.0000
28.2800 1760.0000 1.0000
28.2900 1684.0000 1.0000
28.3000 1706.0000 1.0000
28.3100 1781.0000 1.0000
28.3200 1795.0000 1.0000
28.3300 1720.0000 1.0000
28.3400 1656.0000 1.0000
28.3500 1773.0000 1.0000
28.3600 1690.0000 1.0000
28.3700 1781.0000 1.0000
28.3800 1777.0000 1.0000
28.3900 1758.0000 1.0000
28.4000 1703.0000 1.0000
28.4100 1701.0000 1.0000
28.4200 1724.0000 1.0000
28.4300 1841.0000 1.0000
28.4400 1797.0000 1.0000
28.4500 1713.0000 1.0000
28.4600 1728.0000 1.0000
28.4700 1665.0000 1.0000
28.4800 1718.0000 1.0000
28.4900 1814.0000 1.0000
28.5000 1822.0000 1.0000
28.5100 1719.0000 1.0000
28.5200 1677.0000 1.0000
28.5300 1711.0000 1.0000
28.5400 1783.0000 1.0000
28.5500 1701.0000 1.0000
28.5600 1711.0000 1.0000
28.5700 1775.0000 1.0000
28.5800 1681.0000 1.0000
28.5900 1713.0000 1.0000
28.6000 1757.0000 1.0000
28.6100 1714.0000 1.0000
28.6200 1690.0000 1.0000
28.6300 1727.0000 1.0000
28.6400 1760.0000 1.0000
28.6500 1736.0000 1.0000
28.6600 1691.0000 1.0000
28.6700 1704.0000 1.0000
28.6800 1700.0000 1.0000
28.6900 1714.0000 1.0000
28.7000 1669.0000 1.0000
28.7100 1655.0000 1.0000
28.7200 1728.0000 1.0000
28.7300 1686.0000 1.0000
28.7400 1735.0000 1.0000
28.7500 1660.0000 1.0000
28.7600 1723.0000 1.0000
28.7700 1674.0000 1.0000
28.7800 1651.0000 1.0000
28.7900 1622.0000 1.0000
28.8000 1657.0000 1.0000
28.8100 1671.0000 1.0000
28.8200 1664.0000 1.0000
28.8300 1628.0000 1.0000
28.8400 1715.0000 1.0000
28.8500 1704.0000 1.0000
28.8600 1722.0000 1.0000
28.8700 1680.0000 1.0000
28.8800 1628.0000 1.0000
28.8900 1681.0000 1.0000
28.9000 1692.0000 1.0000
28.9100 1657.0000 1.0000
28.9200 1682.0000 1.0000
28.9300 1692.0000 1.0000
28.9400 1725.0000 1.0000
28.9500 1704.0000 1.0000
28.9600 1639.0000 1.0000
28.9700 1653.0000 1.0000
28.9800 1668.0000 1.0000
28.9900 1593.0000 1.0000
29.0000 1744.0000 1.0000
29.0100 1642.0000 1.0000
29.0200 1627.0000 1.0000
29.0300 1716.0000 1.0000
29.0400 1672.0000 1.0000
29.0500 1720.0000 1.0000
29.0600 1747.0000 1.0000
29.0700 1720.0000 1.0000
29.0800 1682.0000 1.0000
29.0900 1741.0000 1.0000
29.1000 1719.0000 1.0000
29.1100 1736.0000 1.0000
29.1200 1606.0000 1.0000
29.1300 1667.0000 1.0000
29.1400 1708.0000 1.0000
29.1500 1613.0000 1.0000
29.1600 1663.0000 1.0000
29.1700 1652.0000 1.0000
29.1800 1627.0000 1.0000
29.1900 1676.0000 1.0000
29.2000 1692.0000 1.0000
29.2100 1657.0000 1.0000
29.2200 1703.0000 1.0000
29.2300 1691.0000 1.0000
29.2400 1664.0000 1.0000
29.2500 1650.0000 1.0000
29.2600 1645.0000 1.0000
29.2700 1618.0000 1.0000
29.2800 1593.0000 1.0000
29.2900 1613.0000 1.0000
29.3000 1558.0000 1.0000
29.3100 1639.0000 1.0000
29.3200 1686.0000 1.0000
29.3300 1677.0000 1.0000
29.3400 1631.0000 1.0000
29.3500 1672.0000 1.0000
29.3600 1603.0000 1.0000
29.3700 1560.0000 1.0000
29.3800 1696.0000 1.0000
29.3900 1598.0000 1.0000
29.4000 1718.0000 1.0000
29.4100 1666.0000 1.0000
29.4200 1671.0000 1.0000
29.4300 1619.0000 1.0000
29.4400 1630.0000 1.0000
29.4500 1647.0000 1.0000
29.4600 1709.0000 1.0000
29.4700 1675.0000 1.0000
29.4800 1685.0000 1.0000
29.4900 1678.0000 1.0000
29.5000 1608.0000 1.0000
29.5100 1620.0000 1.0000
29.5200 1608.0000 1.0000
29.5300 1593.0000 1.0000
29.5400 1625.0000 1.0000
29.5500 1649.0000 1.0000
29.5600 1681.0000 1.0000
29.5700 1579.0000 1.0000
29.5800 1564.0000 1.0000
29.5900 1623.0000 1.0000
29.6000 1601.0000 1.0000
29.6100 1618.0000 1.0000
29.6200 1645.0000 1.0000
29.6300 1632.0000 1.0000
29.6400 1648.0000 1.0000
29.6500 1540.0000 1.0000
29.6600 1595.0000 1.0000
29.6700 1579.0000 1.0000
29.6800 1619.0000 1.0000
29.6900 1653.0000 1.0000
29.7000 1616.0000 1.0000
29.7100 1591.0000 1.0000
29.7200 1621.0000 1.0000
29.7300 1672.0000 1.0000
29.7400 1611.0000 1.0000
29.7500 1610.0000 1.0000
29.7600 1611.0000 1.0000
29.7700 1586.0000 1.0000
29.7800 1590.0000 1.0000
29.7900 1598.0000 1.0000
29.8000 1539.0000 1.0000
29.8100 1680.0000 1.0000
29.8200 1649.0000 1.0000
29.8300 1617.0000 1.0000
29.8400 1621.0000 1.0000
29.8500 1616.0000 1.0000
29.8600 1610.0000 1.0000
29.8700 1604.0000 1.0000
29.8800 1634.0000 1.0000
29.8900 1576.0000 1.0000
29.9000 1618.0000 1.0000
29.9100 1640.0000 1.0000
29.9200 1571.0000 1.0000
29.9300 1679.0000 1.0000
29.9400 1609.0000 1.0000
29.9500 1655.0000 1.0000
29.9600 1622.0000 1.0000
29.9700 1625.0000 1.0000
29.9800 1644.0000 1.0000
29.9900 1567.0000 1.0000
30.0000 1595.0000 1.0000
30.0100 1610.0000 1.0000
30.0200 1596.0000 1.0000
30.0300 1629.0000 1.0000
30.0400 1588.0000 1.0000
30.0500 1564.0000 1.0000
30.0600 1596.0000 1.0000
30.0700 1576.0000 1.0000
30.0800 1607.0000 1.0000
30.0900 1592.0000 1.0000
30.1000 1633.0000 1.0000
30.1100 1578.0000 1.0000
30.1200 1571.0000 1.0000
30.1300 1572.0000 1.0000
30.1400 1559.0000 1.0000
30.1500 1579.0000 1.0000
30.1600 1581.0000 1.0000
30.1700 1633.0000 1.0000
30.1800 1620.0000 1.0000
30.1900 1612.0000 1.0000
30.2000 1548.0000 1.0000
30.2100 1555.0000 1.0000
30.2200 1533.0000 1.0000
30.2300 1584.0000 1.0000
30.2400 1556.0000 1.0000
30.2500 1595.0000 1.0000
30.2600 1563.0000 1.0000
30.2700 1568.0000 1.0000
30.2800 1603.0000 1.0000
30.2900 1581.0000 1.0000
30.3000 1630.0000 1.0000
30.3100 1618.0000 1.0000
30.3200 1576.0000 1.0000
30.3300 1651.0000 1.0000
30.3400 1648.0000 1.0000
30.3500 1648.0000 1.0000
30.3600 1574.0000 1.0000
30.3700 1577.0000 1.0000
30.3800 1617.0000 1.0000
30.3900 1576.0000 1.0000
30.4000 1545.0000 1.0000
30.4100 1562.0000 1.0000
30.4200 1546.0000 1.0000
30.4300 1574.0000 1.0000
30.4400 1596.0000 1.0000
30.4500 1558.0000 1.0000
30.4600 1539.0000 1.0000
30.4700 1569.0000 1.0000
30.4800 1591.0000 1.0000
30.4900 1556.0000 1.0000
30.5000 1580.0000 1.0000
30.5100 1589.0000 1.0000
30.5200 1596.0000 1.0000
30.5300 1603.0000 1.0000
30.5400 1589.0000 1.0000
30.5500 1606.0000 1.0000
30.5600 1526.0000 1.0000
30.5700 1557.0000 1.0000
30.5800 1542.0000 1.0000
30.5900 1555.0000 1.0000
30.6000 1571.0000 1.0000
30.6100 1564.0000 1.0000
30.6200 1560.0000 1.0000
30.6300 1553.0000 1.0000
30.6400 1629.0000 1.0000
30.6500 1578.0000 1.0000
30.6600 1569.0000 1.0000
30.6700 1605.0000 1.0000
30.6800 1599.0000 1.0000
30.6900 1535.0000 1.0000
30.7000 1570.0000 1.0000
30.7100 1544.0000 1.0000
30.7200 1489.0000 1.0000
30.7300 1526.0000 1.0000
30.7400 1507.0000 1.0000
30.7500 1556.0000 1.0000
30.7600 1602.0000 1.0000
30.7700 1567.0000 1.0000
30.7800 1568.0000 1.0000
30.7900 1549.0000 1.0000
30.8000 1482.0000 1.0000
30.8100 1526.0000 1.0000
30.8200 1580.0000 1.0000
30.8300 1504.0000 1.0000
30.8400 1575.0000 1.0000
30.8500 1532.0000 1.0000
30.8600 1622.0000 1.0000
30.8700 1600.0000 1.0000
30.8800 1542.0000 1.0000
30.8900 1518.0000 1.0000
30.9000 1529.0000 1.0000
30.9100 1542.0000 1.0000
30.9200 1648.0000 1.0000
30.9300 1514.0000 1.0000
30.9400 1565.0000 1.0000
30.9500 1577.0000 1.0000
30.9600 1585.0000 1.0000
30.9700 1529.0000 1.0000
30.9800 1525.0000 1.0000
30.9900 1530.0000 1.0000
31.0000 1467.0000 1.0000
31.0100 1524.0000 1.0000
31.0200 1495.0000 1.0000
31.0300 1486.0000 1.0000
31.0400 1524.0000 1.0000
31.0500 1570.0000 1.0000
31.0600 1571.0000 1.0000
31.0700 1495.0000 1.0000
31.0800 1551.0000 1.0000
31.0900 1563.0000 1.0000
31.1000 1494.0000 1.0000
31.1100 1552.0000 1.0000
31.1200 1611.0000 1.0000
31.1300 1588.0000 1.0000
31.1400 1526.0000 1.0000
31.1500 1513.0000 1.0000
31.1600 1473.0000 1.0000
31.1700 1530.0000 1.0000
31.1800 1512.0000 1.0000
31.1900 1518.0000 1.0000
31.2000 1466.0000 1.0000
31.2100 1526.0000 1.0000
31.2200 1521.0000 1.0000
31.2300 1543.0000 1.0000
31.2400 1523.0000 1.0000
31.2500 1512.0000 1.0000
31.2600 1566.0000 1.0000
31.2700 1549.0000 1.0000
31.2800 1505.0000 1.0000
31.2900 1568.0000 1.0000
31.3000 1548.0000 1.0000
31.3100 1501.0000 1.0000
31.3200 1476.0000 1.0000
31.3300 1528.0000 1.0000
31.3400 1498.0000 1.0000
31.3500 1537.0000 1.0000
31.3600 1518.0000 1.0000
31.3700 1489.0000 1.0000
31.3800 1524.0000 1.0000
31.3900 1508.0000 1.0000
31.4000 1516.0000 1.0000
31.4100 1494.0000 1.0000
31.4200 1536.0000 1.0000
31.4300 1552.0000 1.0000
31.4400 1573.0000 1.0000
31.4500 1534.0000 1.0000
31.4600 1525.0000 1.0000
31.4700 1484.0000 1.0000
31.4800 1439.0000 1.0000
31.4900 1469.0000 1.0000
31.5000 1476.0000 1.0000
31.5100 1528.0000 1.0000
31.5200 1526.0000 1.0000
31.5300 1523.0000 1.0000
31.5400 1463.0000 1.0000
31.5500 1523.0000 1.0000
31.5600 1451.0000 1.0000
31.5700 1514.0000 1.0000
31.5800 1445.0000 1.0000
31.5900 1516.0000 1.0000
31.6000 1498.0000 1.0000
31.6100 1512.0000 1.0000
31.6200 1528.0000 1.0000
31.6300 1489.0000 1.0000
31.6400 1541.0000 1.0000
31.6500 1481.0000 1.0000
31.6600 1487.0000 1.0000
31.6700 1521.0000 1.0000
31.6800 1471.0000 1.0000
31.6900 1511.0000 1.0000
31.7000 1506.0000 1.0000
31.7100 1537.0000 1.0000
31.7200 1464.0000 1.0000
31.7300 1438.0000 1.0000
31.7400 1506.0000 1.0000
31.7500 1458.0000 1.0000
31.7600 1507.0000 1.0000
31.7700 1536.0000 1.0000
31.7800 1470.0000 1.0000
31.7900 1452.0000 1.0000
31.8000 1540.0000 1.0000
31.8100 1483.0000 1.0000
31.8200 1507.0000 1.0000
31.8300 1503.0000 1.0000
31.8400 1499.0000 1.0000
31.8500 1561.0000 1.0000
31.8600 1501.0000 1.0000
31.8700 1548.0000 1.0000
31.8800 1610.0000 1.0000
31.8900 1556.0000 1.0000
31.9000 1567.0000 1.0000
31.9100 1558.0000 1.0000
31.9200 1499.0000 1.0000
31.9300 1506.0000 1.0000
31.9400 1500.0000 1.0000
31.9500 1496.0000 1.0000
31.9600 1566.0000 1.0000
31.9700 1570.0000 1.0000
31.9800 1596.0000 1.0000
31.9900 1615.0000 1.0000
32.0000 1568.0000 1.0000
32.0100 1526.0000 1.0000
32.0200 1479.0000 1.0000
32.0300 1540.0000 1.0000
32.0400 1568.0000 1.0000
32.0500 1555.0000 1.0000
32.0600 1544.0000 1.0000
32.0700 1491.0000 1.0000
32.0800 1509.0000 1.0000
32.0900 1518.0000 1.0000
32.1000 1509.0000 1.0000
32.1100 1571.0000 1.0000
32.1200 1523.0000 1.0000
32.1300 1611.0000 1.0000
32.1400 1526.0000 1.0000
32.1500 1543.0000 1.0000
32.1600 1474.0000 1.0000
32.1700 1496.0000 1.0000
32.1800 1523.0000 1.0000
32.1900 1534.0000 1.0000
32.2000 1492.0000 1.0000
32.2100 1506.0000 1.0000
32.2200 1520.0000 1.0000
32.2300 1456.0000 1.0000
32.2400 1504.0000 1.0000
32.2500 1484.0000 1.0000
32.2600 1479.0000 1.0000
32.2700 1472.0000 1.0000
32.2800 1473.0000 1.0000
32.2900 1488.0000 1.0000
32.3000 1463.0000 1.0000
32.3100 1480.0000 1.0000
32.3200 1465.0000 1.0000
32.3300 1474.0000 1.0000
32.3400 1484.0000 1.0000
32.3500 1493.0000 1.0000
32.3600 1483.0000 1.0000
32.3700 1466.0000 1.0000
32.3800 1462.0000 1.0000
32.3900 1472.0000 1.0000
32.4000 1472.0000 1.0000
32.4100 1436.0000 1.0000
32.4200 1504.0000 1.0000
32.4300 1476.0000 1.0000
32.4400 1487.0000 1.0000
32.4500 1503.0000 1.0000
32.4600 1491.0000 1.0000
32.4700 1432.0000 1.0000
32.4800 1382.0000 1.0000
32.4900 1426.0000 1.0000
32.5000 1433.0000 1.0000
32.5100 1442.0000 1.0000
32.5200 1507.0000 1.0000
32.5300 1469.0000 1.0000
32.5400 1480.0000 1.0000
32.5500 1468.0000 1.0000
32.5600 1436.0000 1.0000
32.5700 1459.0000 1.0000
32.5800 1446.0000 1.0000
32.5900 1454.0000 1.0000
32.6000 1458.0000 1.0000
32.6100 1455.0000 1.0000
32.6200 1469.0000 1.0000
32.6300 1415.0000 1.0000
32.6400 1476.0000 1.0000
32.6500 1523.0000 1.0000
32.6600 1438.0000 1.0000
32.6700 1429.0000 1.0000
32.6800 1400.0000 1.0000
32.6900 1387.0000 1.0000
32.7000 1424.0000 1.0000
32.7100 1396.0000 1.0000
32.7200 1473.0000 1.0000
32.7300 1418.0000 1.0000
32.7400 1458.0000 1.0000
32.7500 1478.0000 1.0000
32.7600 1477.0000 1.0000
32.7700 1493.0000 1.0000
32.7800 1428.0000 1.0000
32.7900 1428.0000 1.0000
32.8000 1434.0000 1.0000
32.8100 1416.0000 1.0000
32.8200 1465.0000 1.0000
32.8300 1501.0000 1.0000
32.8400 1469.0000 1.0000
32.8500 1407.0000 1.0000
32.8600 1399.0000 1.0000
32.8700 1427.0000 1.0000
32.8800 1455.0000 1.0000
32.8900 1440.0000 1.0000
32.9000 1422.0000 1.0000
32.9100 1401.0000 1.0000
32.9200 1459.0000 1.0000
32.9300 1502.0000 1.0000
32.9400 1477.0000 1.0000
32.9500 1467.0000 1.0000
32.9600 1451.0000 1.0000
32.9700 1421.0000 1.0000
32.9800 1375.0000 1.0000
32.9900 1344.0000 1.0000
33.0000 1476.0000 1.0000
33.0100 1416.0000 1.0000
33.0200 1424.0000 1.0000
33.0300 1412.0000 1.0000
33.0400 1409.0000 1.0000
33.0500 1418.0000 1.0000
33.0600 1379.0000 1.0000
33.0700 1388.0000 1.0000
33.0800 1416.0000 1.0000
33.0900 1398.0000 1.0000
33.1000 1412.0000 1.0000
33.1100 1429.0000 1.0000
33.1200 1376.0000 1.0000
33.1300 1467.0000 1.0000
33.1400 1471.0000 1.0000
33.1500 1459.0000 1.0000
33.1600 1466.0000 1.0000
33.1700 1415.0000 1.0000
33.1800 1448.0000 1.0000
33.1900 1462.0000 1.0000
33.2000 1396.0000 1.0000
33.2100 1414.0000 1.0000
33.2200 1409.0000 1.0000
33.2300 1410.0000 1.0000
33.2400 1445.0000 1.0000
33.2500 1433.0000 1.0000
33.2600 1439.0000 1.0000
33.2700 1461.0000 1.0000
33.2800 1391.0000 1.0000
33.2900 1408.0000 1.0000
33.3000 1447.0000 1.0000
33.3100 1464.0000 1.0000
33.3200 1493.0000 1.0000
33.3300 1462.0000 1.0000
33.3400 1381.0000 1.0000
33.3500 1417.0000 1.0000
33.3600 1431.0000 1.0000
33.3700 1422.0000 1.0000
33.3800 1436.0000 1.0000
33.3900 1450.0000 1.0000
33.4000 1430.0000 1.0000
33.4100 1410.0000 1.0000
33.4200 1484.0000 1.0000
33.4300 1392.0000 1.0000
33.4400 1410.0000 1.0000
33.4500 1342.0000 1.0000
33.4600 1435.0000 1.0000
33.4700 1376.0000 1.0000
33.4800 1400.0000 1.0000
33.4900 1327.0000 1.0000
33.5000 1409.0000 1.0000
33.5100 1430.0000 1.0000
33.5200 1438.0000 1.0000
33.5300 1430.0000 1.0000
33.5400 1405.0000 1.0000
33.5500 1439.0000 1.0000
33.5600 1443.0000 1.0000
33.5700 1459.0000 1.0000
33.5800 1459.0000 1.0000
33.5900 1448.0000 1.0000
33.6000 1407.0000 1.0000
33.6100 1404.0000 1.0000
33.6200 1392.0000 1.0000
33.6300 1399.0000 1.0000
33.6400 1356.0000 1.0000
33.6500 1504.0000 1.0000
33.6600 1437.0000 1.0000
33.6700 1383.0000 1.0000
33.6800 1383.0000 1.0000
33.6900 1421.0000 1.0000
33.7000 1440.0000 1.0000
33.7100 1446.0000 1.0000
33.7200 1421.0000 1.0000
33.7300 1390.0000 1.0000
33.7400 1457.0000 1.0000
33.7500 1426.0000 1.0000
33.7600 1400.0000 1.0000
33.7700 1439.0000 1.0000
33.7800 1441.0000 1.0000
33.7900 1458.0000 1.0000
33.8000 1440.0000 1.0000
33.8100 1508.0000 1.0000
33.8200 1543.0000 1.0000
33.8300 1522.0000 1.0000
33.8400 1495.0000 1.0000
33.8500 1600.0000 1.0000
33.8600 1579.0000 1.0000
33.8700 1538.0000 1.0000
33.8800 1561.0000 1.0000
33.8900 1605.0000 1.0000
33.9000 1658.0000 1.0000
33.9100 1642.0000 1.0000
33.9200 1627.0000 1.0000
33.9300 1637.0000 1.0000
33.9400 1650.0000 1.0000
33.9500 1691.0000 1.0000
33.9600 1665.0000 1.0000
33.9700 1648.0000 1.0000
33.9800 1670.0000 1.0000
33.9900 1619.0000 1.0000
34.0000 1659.0000 1.0000
34.0100 1658.0000 1.0000
34.0200 1693.0000 1.0000
34.0300 1560.0000 1.0000
34.0400 1585.0000 1.0000
34.0500 1649.0000 1.0000
34.0600 1537.0000 1.0000
34.0700 1545.0000 1.0000
34.0800 1545.0000 1.0000
34.0900 1579.0000 1.0000
34.1000 1606.0000 1.0000
34.1100 1627.0000 1.0000
34.1200 1640.0000 1.0000
34.1300 1536.0000 1.0000
34.1400 1596.0000 1.0000
34.1500 1571.0000 1.0000
34.1600 1553.0000 1.0000
34.1700 1617.0000 1.0000
34.1800 1643.0000 1.0000
34.1900 1650.0000 1.0000
34.2000 1677.0000 1.0000
34.2100 1680.0000 1.0000
34.2200 1749.0000 1.0000
34.2300 1708.0000 1.0000
34.2400 1688.0000 1.0000
34.2500 1724.0000 1.0000
34.2600 1684.0000 1.0000
34.2700 1805.0000 1.0000
34.2800 1855.0000 1.0000
34.2900 1824.0000 1.0000
34.3000 1926.0000 1.0000
34.3100 1922.0000 1.0000
34.3200 1950.0000 1.0000
34.3300 1977.0000 1.0000
34.3400 2067.0000 1.0000
34.3500 2084.0000 1.0000
34.3600 2166.0000 1.0000
34.3700 2184.0000 1.0000
34.3800 2295.0000 1.0000
34.3900 2454.0000 1.0000
34.4000 2534.0000 1.0000
34.4100 2635.0000 1.0000
34.4200 2673.0000 1.0000
34.4300 2667.0000 1.0000
34.4400 2900.0000 1.0000
34.4500 2969.0000 1.0000
34.4600 3082.0000 1.0000
34.4700 3153.0000 1.0000
34.4800 3129.0000 1.0000
34.4900 3052.0000 1.0000
34.5000 3120.0000 1.0000
34.5100 3143.0000 1.0000
34.5200 3083.0000 1.0000
34.5300 3062.0000 1.0000
34.5400 3018.0000 1.0000
34.5500 2961.0000 1.0000
34.5600 2834.0000 1.0000
34.5700 2872.0000 1.0000
34.5800 2746.0000 1.0000
34.5900 2626.0000 1.0000
34.6000 2520.0000 1.0000
34.6100 2507.0000 1.0000
34.6200 2379.0000 1.0000
34.6300 2316.0000 1.0000
34.6400 2296.0000 1.0000
34.6500 2121.0000 1.0000
34.6600 2058.0000 1.0000
34.6700 2019.0000 1.0000
34.6800 2017.0000 1.0000
34.6900 1929.0000 1.0000
34.7000 1924.0000 1.0000
34.7100 1864.0000 1.0000
34.7200 1862.0000 1.0000
34.7300 1763.0000 1.0000
34.7400 1755.0000 1.0000
34.7500 1762.0000 1.0000
34.7600 1787.0000 1.0000
34.7700 1687.0000 1.0000
34.7800 1666.0000 1.0000
34.7900 1692.0000 1.0000
34.8000 1626.0000 1.0000
34.8100 1585.0000 1.0000
34.8200 1622.0000 1.0000
34.8300 1571.0000 1.0000
34.8400 1557.0000 1.0000
34.8500 1511.0000 1.0000
34.8600 1514.0000 1.0000
34.8700 1520.0000 1.0000
34.8800 1488.0000 1.0000
34.8900 1493.0000 1.0000
34.9000 1482.0000 1.0000
34.9100 1423.0000 1.0000
34.9200 1449.0000 1.0000
34.9300 1515.0000 1.0000
34.9400 1393.0000 1.0000
34.9500 1536.0000 1.0000
34.9600 1421.0000 1.0000
34.9700 1403.0000 1.0000
34.9800 1443.0000 1.0000
34.9900 1388.0000 1.0000
35.0000 1417.0000 1.0000
35.0100 1418.0000 1.0000
35.0200 1399.0000 1.0000
35.0300 1358.0000 1.0000
35.0400 1319.0000 1.0000
35.0500 1403.0000 1.0000
35.0600 1381.0000 1.0000
35.0700 1393.0000 1.0000
35.0800 1393.0000 1.0000
35.0900 1365.0000 1.0000
35.1000 1335.0000 1.0000
35.1100 1304.0000 1.0000
35.1200 1330.0000 1.0000
35.1300 1293.0000 1.0000
35.1400 1308.0000 1.0000
35.1500 1244.0000 1.0000
35.1600 1343.0000 1.0000
35.1700 1332.0000 1.0000
35.1800 1281.0000 1.0000
35.1900 1355.0000 1.0000
35.2000 1326.0000 1.0000
35.2100 1297.0000 1.0000
35.2200 1318.0000 1.0000
35.2300 1295.0000 1.0000
35.2400 1295.0000 1.0000
35.2500 1295.0000 1.0000
35.2600 1319.0000 1.0000
35.2700 1274.0000 1.0000
35.2800 1263.0000 1.0000
35.2900 1299.0000 1.0000
35.3000 1247.0000 1.0000
35.3100 1287.0000 1.0000
35.3200 1234.0000 1.0000
35.3300 1322.0000 1.0000
35.3400 1325.0000 1.0000
35.3500 1273.0000 1.0000
35.3600 1252.0000 1.0000
35.3700 1297.0000 1.0000
35.3800 1280.0000 1.0000
35.3900 1247.0000 1.0000
35.4000 1240.0000 1.0000
35.4100 1286.0000 1.0000
35.4200 1257.0000 1.0000
35.4300 1246.0000 1.0000
35.4400 1174.0000 1.0000
35.4500 1266.0000 1.0000
35.4600 1245.0000 1.0000
35.4700 1296.0000 1.0000
35.4800 1258.0000 1.0000
35.4900 1232.0000 1.0000
35.5000 1244.0000 1.0000
35.5100 1308.0000 1.0000
35.5200 1275.0000 1.0000
35.5300 1254.0000 1.0000
35.5400 1273.0000 1.0000
35.5500 1286.0000 1.0000
35.5600 1310.0000 1.0000
35.5700 1208.0000 1.0000
35.5800 1231.0000 1.0000
35.5900 1263.0000 1.0000
35.6000 1289.0000 1.0000
35.6100 1266.0000 1.0000
35.6200 1229.0000 1.0000
35.6300 1220.0000 1.0000
35.6400 1185.0000 1.0000
35.6500 1222.0000 1.0000
35.6600 1161.0000 1.0000
35.6700 1182.0000 1.0000
35.6800 1212.0000 1.0000
35.6900 1181.0000 1.0000
35.7000 1223.0000 1.0000
35.7100 1249.0000 1.0000
35.7200 1261.0000 1.0000
35.7300 1255.0000 1.0000
35.7400 1217.0000 1.0000
35.7500 1253.0000 1.0000
35.7600 1193.0000 1.0000
35.7700 1239.0000 1.0000
35.7800 1176.0000 1.0000
35.7900 1177.0000 1.0000
35.8000 1203.0000 1.0000
35.8100 1256.0000 1.0000
35.8200 1205.0000 1.0000
35.8300 1193.0000 1.0000
35.8400 1213.0000 1.0000
35.8500 1207.0000 1.0000
35.8600 1214.0000 1.0000
35.8700 1223.0000 1.0000
35.8800 1171.0000 1.0000
35.8900 1196.0000 1.0000
35.9000 1219.0000 1.0000
35.9100 1166.0000 1.0000
35.9200 1160.0000 1.0000
35.9300 1214.0000 1.0000
35.9400 1189.0000 1.0000
35.9500 1200.0000 1.0000
35.9600 1207.0000 1.0000
35.9700 1249.0000 1.0000
35.9800 1229.0000 1.0000
35.9900 1253.0000 1.0000
36.0000 1276.0000 1.0000
36.0100 1173.0000 1.0000
36.0200 1216.0000 1.0000
36.0300 1266.0000 1.0000
36.0400 1239.0000 1.0000
36.0500 1246.0000 1.0000
36.0600 1224.0000 1.0000
36.0700 1201.0000 1.0000
36.0800 1250.0000 1.0000
36.0900 1269.0000 1.0000
36.1000 1230.0000 1.0000
36.1100 1229.0000 1.0000
36.1200 1249.0000 1.0000
36.1300 1240.0000 1.0000
36.1400 1283.0000 1.0000
36.1500 1268.0000 1.0000
36.1600 1303.0000 1.0000
36.1700 1280.0000 1.0000
36.1800 1297.0000 1.0000
36.1900 1277.0000 1.0000
36.2000 1316.0000 1.0000
36.2100 1382.0000 1.0000
36.2200 1370.0000 1.0000
36.2300 1379.0000 1.0000
36.2400 1445.0000 1.0000
36.2500 1373.0000 1.0000
36.2600 1504.0000 1.0000
36.2700 1485.0000 1.0000
36.2800 1602.0000 1.0000
36.2900 1587.0000 1.0000
36.3000 1663.0000 1.0000
36.3100 1732.0000 1.0000
36.3200 1770.0000 1.0000
36.3300 1894.0000 1.0000
36.3400 2002.0000 1.0000
36.3500 2027.0000 1.0000
36.3600 2155.0000 1.0000
36.3700 2263.0000 1.0000
36.3800 2327.0000 1.0000
36.3900 2335.0000 1.0000
36.4000 2478.0000 1.0000
36.4100 2382.0000 1.0000
36.4200 2370.0000 1.0000
36.4300 2291.0000 1.0000
36.4400 2338.0000 1.0000
36.4500 2210.0000 1.0000
36.4600 2060.0000 1.0000
36.4700 2060.0000 1.0000
36.4800 1940.0000 1.0000
36.4900 1862.0000 1.0000
36.5000 1867.0000 1.0000
36.5100 1811.0000 1.0000
36.5200 1775.0000 1.0000
36.5300 1645.0000 1.0000
36.5400 1629.0000 1.0000
36.5500 1557.0000 1.0000
36.5600 1491.0000 1.0000
36.5700 1445.0000 1.0000
36.5800 1380.0000 1.0000
36.5900 1368.0000 1.0000
36.6000 1282.0000 1.0000
36.6100 1309.0000 1.0000
36.6200 1302.0000 1.0000
36.6300 1274.0000 1.0000
36.6400 1233.0000 1.0000
36.6500 1244.0000 1.0000
36.6600 1237.0000 1.0000
36.6700 1190.0000 1.0000
36.6800 1222.0000 1.0000
36.6900 1219.0000 1.0000
36.7000 1158.0000 1.0000
36.7100 1113.0000 1.0000
36.7200 1187.0000 1.0000
36.7300 1243.0000 1.0000
36.7400 1216.0000 1.0000
36.7500 1181.0000 1.0000
36.7600 1114.0000 1.0000
36.7700 1168.0000 1.0000
36.7800 1131.0000 1.0000
36.7900 1138.0000 1.0000
36.8000 1143.0000 1.0000
36.8100 1147.0000 1.0000
36.8200 1163.0000 1.0000
36.8300 1136.0000 1.0000
36.8400 1172.0000 1.0000
36.8500 1188.0000 1.0000
36.8600 1112.0000 1.0000
36.8700 1061.0000 1.0000
36.8800 1085.0000 1.0000
36.8900 1149.0000 1.0000
36.9000 1157.0000 1.0000
36.9100 1110.0000 1.0000
36.9200 1128.0000 1.0000
36.9300 1107.0000 1.0000
36.9400 1206.0000 1.0000
36.9500 1127.0000 1.0000
36.9600 1198.0000 1.0000
36.9700 1110.0000 1.0000
36.9800 1127.0000 1.0000
36.9900 1075.0000 1.0000
37.0000 1083.0000 1.0000
37.0100 1086.0000 1.0000
37.0200 1114.0000 1.0000
37.0300 1083.0000 1.0000
37.0400 1096.0000 1.0000
37.0500 1080.0000 1.0000
37.0600 1100.0000 1.0000
37.0700 1099.0000 1.0000
37.0800 1116.0000 1.0000
37.0900 1130.0000 1.0000
37.1000 1082.0000 1.0000
37.1100 1103.0000 1.0000
37.1200 1127.0000 1.0000
37.1300 1106.0000 1.0000
37.1400 1146.0000 1.0000
37.1500 1147.0000 1.0000
37.1600 1100.0000 1.0000
37.1700 1140.0000 1.0000
37.1800 1146.0000 1.0000
37.1900 1120.0000 1.0000
37.2000 1146.0000 1.0000
37.2100 1099.0000 1.0000
37.2200 1106.0000 1.0000
37.2300 1101.0000 1.0000
37.2400 1084.0000 1.0000
37.2500 1116.0000 1.0000
37.2600 1127.0000 1.0000
37.2700 1110.0000 1.0000
37.2800 1103.0000 1.0000
37.2900 1184.0000 1.0000
37.3000 1143.0000 1.0000
37.3100 1127.0000 1.0000
37.3200 1149.0000 1.0000
37.3300 1087.0000 1.0000
37.3400 1082.0000 1.0000
37.3500 1118.0000 1.0000
37.3600 1144.0000 1.0000
37.3700 1109.0000 1.0000
37.3800 1130.0000 1.0000
37.3900 1139.0000 1.0000
37.4000 1156.0000 1.0000
37.4100 1135.0000 1.0000
37.4200 1144.0000 1.0000
37.4300 1165.0000 1.0000
37.4400 1119.0000 1.0000
37.4500 1148.0000 1.0000
37.4600 1136.0000 1.0000
37.4700 1104.0000 1.0000
37.4800 1132.0000 1.0000
37.4900 1126.0000 1.0000
37.5000 1145.0000 1.0000
37.5100 1119.0000 1.0000
37.5200 1090.0000 1.0000
37.5300 1102.0000 1.0000
37.5400 1143.0000 1.0000
37.5500 1120.0000 1.0000
37.5600 1077.0000 1.0000
37.5700 1141.0000 1.0000
37.5800 1139.0000 1.0000
37.5900 1102.0000 1.0000
37.6000 1131.0000 1.0000
37.6100 1138.0000 1.0000
37.6200 1132.0000 1.0000
37.6300 1126.0000 1.0000
37.6400 1125.0000 1.0000
37.6500 1086.0000 1.0000
37.6600 1084.0000 1.0000
37.6700 1160.0000 1.0000
37.6800 1196.0000 1.0000
37.6900 1128.0000 1.0000
37.7000 1154.0000 1.0000
37.7100 1158.0000 1.0000
37.7200 1092.0000 1.0000
37.7300 1096.0000 1.0000
37.7400 1107.0000 1.0000
37.7500 1122.0000 1.0000
37.7600 1141.0000 1.0000
37.7700 1150.0000 1.0000
37.7800 1108.0000 1.0000
37.7900 1102.0000 1.0000
37.8000 1093.0000 1.0000
37.8100 1093.0000 1.0000
37.8200 1158.0000 1.0000
37.8300 1129.0000 1.0000
37.8400 1161.0000 1.0000
37.8500 1161.0000 1.0000
37.8600 1098.0000 1.0000
37.8700 1118.0000 1.0000
37.8800 1168.0000 1.0000
37.8900 1175.0000 1.0000
37.9000 1182.0000 1.0000
37.9100 1113.0000 1.0000
37.9200 1167.0000 1.0000
37.9300 1200.0000 1.0000
37.9400 1211.0000 1.0000
37.9500 1122.0000 1.0000
37.9600 1208.0000 1.0000
37.9700 1217.0000 1.0000
37.9800 1189.0000 1.0000
37.9900 1204.0000 1.0000
38.0000 1195.0000 1.0000
38.0100 1230.0000 1.0000
38.0200 1223.0000 1.0000
38.0300 1204.0000 1.0000
38.0400 1212.0000 1.0000
38.0500 1222.0000 1.0000
38.0600 1249.0000 1.0000
38.0700 1232.0000 1.0000
38.0800 1311.0000 1.0000
38.0900 1279.0000 1.0000
38.1000 1216.0000 1.0000
38.1100 1350.0000 1.0000
38.1200 1353.0000 1.0000
38.1300 1390.0000 1.0000
38.1400 1407.0000 1.0000
38.1500 1410.0000 1.0000
38.1600 1408.0000 1.0000
38.1700 1391.0000 1.0000
38.1800 1440.0000 1.0000
38.1900 1528.0000 1.0000
38.2000 1534.0000 1.0000
38.2100 1559.0000 1.0000
38.2200 1671.0000 1.0000
38.2300 1720.0000 1.0000
38.2400 1784.0000 1.0000
38.2500 1843.0000 1.0000
38.2600 1902.0000 1.0000
38.2700 1927.0000 1.0000
38.2800 1980.0000 1.0000
38.2900 2137.0000 1.0000
38.3000 2180.0000 1.0000
38.3100 2293.0000 1.0000
38.3200 2373.0000 1.0000
38.3300 2407.0000 1.0000
38.3400 2624.0000 1.0000
38.3500 2720.0000 1.0000
38.3600 2920.0000 1.0000
38.3700 3122.0000 1.0000
38.3800 3366.0000 1.0000
38.3900 3633.0000 1.0000
38.4000 3838.0000 1.0000
38.4100 4128.0000 1.0000
38.4200 4496.0000 1.0000
38.4300 4705.0000 1.0000
38.4400 5063.0000 1.0000
38.4500 5460.0000 1.0000
38.4600 5787.0000 1.0000
38.4700 6144.0000 1.0000
38.4800 6625.0000 1.0000
38.4900 7006.0000 1.0000
38.5000 7338.0000 1.0000
38.5100 7707.0000 1.0000
38.5200 7753.0000 1.0000
38.5300 8067.0000 1.0000
38.5400 8096.0000 1.0000
38.5500 8146.0000 1.0000
38.5600 8158.0000 1.0000
38.5700 8115.0000 1.0000
38.5800 8034.0000 1.0000
38.5900 7715.0000 1.0000
38.6000 7535.0000 1.0000
38.6100 7295.0000 1.0000
38.6200 7013.0000 1.0000
38.6300 6777.0000 1.0000
38.6400 6263.0000 1.0000
38.6500 6039.0000 1.0000
38.6600 5855.0000 1.0000
38.6700 5467.0000 1.0000
38.6800 4990.0000 1.0000
38.6900 4687.0000 1.0000
38.7000 4382.0000 1.0000
38.7100 4103.0000 1.0000
38.7200 3750.0000 1.0000
38.7300 3569.0000 1.0000
38.7400 3364.0000 1.0000
38.7500 3143.0000 1.0000
38.7600 2801.0000 1.0000
38.7700 2693.0000 1.0000
38.7800 2521.0000 1.0000
38.7900 2371.0000 1.0000
38.8000 2296.0000 1.0000
38.8100 2117.0000 1.0000
38.8200 2106.0000 1.0000
38.8300 2028.0000 1.0000
38.8400 1863.0000 1.0000
38.8500 1856.0000 1.0000
38.8600 1781.0000 1.0000
38.8700 1740.0000 1.0000
38.8800 1667.0000 1.0000
38.8900 1557.0000 1.0000
38.9000 1531.0000 1.0000
38.9100 1455.0000 1.0000
38.9200 1447.0000 1.0000
38.9300 1430.0000 1.0000
38.9400 1347.0000 1.0000
38.9500 1361.0000 1.0000
38.9600 1344.0000 1.0000
38.9700 1318.0000 1.0000
38.9800 1308.0000 1.0000
38.9900 1330.0000 1.0000
39.0000 1290.0000 1.0000
39.0100 1281.0000 1.0000
39.0200 1222.0000 1.0000
39.0300 1204.0000 1.0000
39.0400 1211.0000 1.0000
39.0500 1144.0000 1.0000
39.0600 1172.0000 1.0000
39.0700 1172.0000 1.0000
39.0800 1182.0000 1.0000
39.0900 1211.0000 1.0000
39.1000 1120.0000 1.0000
39.1100 1114.0000 1.0000
39.1200 1145.0000 1.0000
39.1300 1185.0000 1.0000
39.1400 1122.0000 1.0000
39.1500 1100.0000 1.0000
39.1600 1091.0000 1.0000
39.1700 1124.0000 1.0000
39.1800 1120.0000 1.0000
39.1900 1059.0000 1.0000
39.2000 1057.0000 1.0000
39.2100 1054.0000 1.0000
39.2200 1040.0000 1.0000
39.2300 1122.0000 1.0000
39.2400 1034.0000 1.0000
39.2500 1064.0000 1.0000
39.2600 1090.0000 1.0000
39.2700 1100.0000 1.0000
39.2800 1019.0000 1.0000
39.2900 1079.0000 1.0000
39.3000 1036.0000 1.0000
39.3100 1090.0000 1.0000
39.3200 1048.0000 1.0000
39.3300 1055.0000 1.0000
39.3400 1090.0000 1.0000
39.3500 1053.0000 1.0000
39.3600 1063.0000 1.0000
39.3700 1018.0000 1.0000
39.3800 1038.0000 1.0000
39.3900 1002.0000 1.0000
39.4000 1071.0000 1.0000
39.4100 1058.0000 1.0000
39.4200 1010.0000 1.0000
39.4300 1018.0000 1.0000
39.4400 1083.0000 1.0000
39.4500 1069.0000 1.0000
39.4600 1035.0000 1.0000
39.4700 1055.0000 1.0000
39.4800 1047.0000 1.0000
39.4900 1063.0000 1.0000
39.5000 1050.0000 1.0000
39.5100 1011.0000 1.0000
39.5200 1047.0000 1.0000
39.5300 1059.0000 1.0000
39.5400 1043.0000 1.0000
39.5500 1039.0000 1.0000
39.5600 1028.0000 1.0000
39.5700 1026.0000 1.0000
39.5800 1051.0000 1.0000
39.5900 1068.0000 1.0000
39.6000 1037.0000 1.0000
39.6100 1068.0000 1.0000
39.6200 1056.0000 1.0000
39.6300 1071.0000 1.0000
39.6400 1066.0000 1.0000
39.6500 1060.0000 1.0000
39.6600 992.0000 1.0000
39.6700 1076.0000 1.0000
39.6800 1057.0000 1.0000
39.6900 1041.0000 1.0000
39.7000 1061.0000 1.0000
39.7100 1024.0000 1.0000
39.7200 1025.0000 1.0000
39.7300 969.0000 1.0000
39.7400 954.0000 1.0000
39.7500 1018.0000 1.0000
39.7600 1028.0000 1.0000
39.7700 1009.0000 1.0000
39.7800 978.0000 1.0000
39.7900 1000.0000 1.0000
39.8000 1021.0000 1.0000
39.8100 997.0000 1.0000
39.8200 1003.0000 1.0000
39.8300 985.0000 1.0000
39.8400 1001.0000 1.0000
39.8500 999.0000 1.0000
39.8600 990.0000 1.0000
39.8700 1023.0000 1.0000
39.8800 1015.0000 1.0000
39.8900 952.0000 1.0000
39.9000 1003.0000 1.0000
39.9100 993.0000 1.0000
39.9200 1008.0000 1.0000
39.9300 983.0000 1.0000
39.9400 945.0000 1.0000
39.9500 980.0000 1.0000
39.9600 979.0000 1.0000
39.9700 989.0000 1.0000
39.9800 1010.0000 1.0000
39.9900 935.0000 1.0000
40.0000 987.0000 1.0000
40.0100 1032.0000 1.0000
40.0200 1008.0000 1.0000
40.0300 962.0000 1.0000
40.0400 959.0000 1.0000
40.0500 972.0000 1.0000
40.0600 944.0000 1.0000
40.0700 985.0000 1.0000
40.0800 987.0000 1.0000
40.0900 948.0000 1.0000
40.1000 985.0000 1.0000
40.1100 944.0000 1.0000
40.1200 979.0000 1.0000
40.1300 885.0000 1.0000
40.1400 976.0000 1.0000
40.1500 959.0000 1.0000
40.1600 985.0000 1.0000
40.1700 947.0000 1.0000
40.1800 962.0000 1.0000
40.1900 951.0000 1.0000
40.2000 958.0000 1.0000
40.2100 972.0000 1.0000
40.2200 986.0000 1.0000
40.2300 940.0000 1.0000
40.2400 924.0000 1.0000
40.2500 978.0000 1.0000
40.2600 990.0000 1.0000
40.2700 990.0000 1.0000
40.2800 961.0000 1.0000
40.2900 972.0000 1.0000
40.3000 935.0000 1.0000
40.3100 907.0000 1.0000
40.3200 920.0000 1.0000
40.3300 934.0000 1.0000
40.3400 951.0000 1.0000
40.3500 940.0000 1.0000
40.3600 954.0000 1.0000
40.3700 977.0000 1.0000
40.3800 971.0000 1.0000
40.3900 976.0000 1.0000
40.4000 966.0000 1.0000
40.4100 913.0000 1.0000
40.4200 905.0000 1.0000
40.4300 954.0000 1.0000
40.4400 935.0000 1.0000
40.4500 969.0000 1.0000
40.4600 941.0000 1.0000
40.4700 916.0000 1.0000
40.4800 940.0000 1.0000
40.4900 929.0000 1.0000
40.5000 942.0000 1.0000
40.5100 900.0000 1.0000
40.5200 912.0000 1.0000
40.5300 928.0000 1.0000
40.5400 962.0000 1.0000
40.5500 936.0000 1.0000
40.5600 983.0000 1.0000
40.5700 945.0000 1.0000
40.5800 901.0000 1.0000
40.5900 925.0000 1.0000
40.6000 923.0000 1.0000
40.6100 930.0000 1.0000
40.6200 960.0000 1.0000
40.6300 925.0000 1.0000
40.6400 913.0000 1.0000
40.6500 921.0000 1.0000
40.6600 949.0000 1.0000
40.6700 953.0000 1.0000
40.6800 908.0000 1.0000
40.6900 957.0000 1.0000
40.7000 901.0000 1.0000
40.7100 945.0000 1.0000
40.7200 993.0000 1.0000
40.7300 911.0000 1.0000
40.7400 945.0000 1.0000
40.7500 909.0000 1.0000
40.7600 934.0000 1.0000
40.7700 923.0000 1.0000
40.7800 883.0000 1.0000
40.7900 934.0000 1.0000
40.8000 891.0000 1.0000
40.8100 931.0000 1.0000
40.8200 915.0000 1.0000
40.8300 949.0000 1.0000
40.8400 955.0000 1.0000
40.8500 867.0000 1.0000
40.8600 932.0000 1.0000
40.8700 908.0000 1.0000
40.8800 924.0000 1.0000
40.8900 915.0000 1.0000
40.9000 947.0000 1.0000
40.9100 898.0000 1.0000
40.9200 951.0000 1.0000
40.9300 943.0000 1.0000
40.9400 920.0000 1.0000
40.9500 909.0000 1.0000
40.9600 909.0000 1.0000
40.9700 940.0000 1.0000
40.9800 930.0000 1.0000
40.9900 918.0000 1.0000
41.0000 912.0000 1.0000
41.0100 880.0000 1.0000
41.0200 948.0000 1.0000
41.0300 940.0000 1.0000
41.0400 926.0000 1.0000
41.0500 915.0000 1.0000
41.0600 913.0000 1.0000
41.0700 915.0000 1.0000
41.0800 879.0000 1.0000
41.0900 975.0000 1.0000
41.1000 963.0000 1.0000
41.1100 892.0000 1.0000
41.1200 928.0000 1.0000
41.1300 927.0000 1.0000
41.1400 882.0000 1.0000
41.1500 918.0000 1.0000
41.1600 936.0000 1.0000
41.1700 961.0000 1.0000
41.1800 953.0000 1.0000
41.1900 967.0000 1.0000
41.2000 928.0000 1.0000
41.2100 965.0000 1.0000
41.2200 902.0000 1.0000
41.2300 951.0000 1.0000
41.2400 919.0000 1.0000
41.2500 919.0000 1.0000
41.2600 943.0000 1.0000
41.2700 905.0000 1.0000
41.2800 911.0000 1.0000
41.2900 935.0000 1.0000
41.3000 861.0000 1.0000
41.3100 921.0000 1.0000
41.3200 910.0000 1.0000
41.3300 872.0000 1.0000
41.3400 958.0000 1.0000
41.3500 957.0000 1.0000
41.3600 865.0000 1.0000
41.3700 866.0000 1.0000
41.3800 956.0000 1.0000
41.3900 887.0000 1.0000
41.4000 935.0000 1.0000
41.4100 914.0000 1.0000
41.4200 943.0000 1.0000
41.4300 937.0000 1.0000
41.4400 876.0000 1.0000
41.4500 956.0000 1.0000
41.4600 952.0000 1.0000
41.4700 918.0000 1.0000
41.4800 937.0000 1.0000
41.4900 937.0000 1.0000
41.5000 955.0000 1.0000
41.5100 913.0000 1.0000
41.5200 922.0000 1.0000
41.5300 937.0000 1.0000
41.5400 914.0000 1.0000
41.5500 918.0000 1.0000
41.5600 913.0000 1.0000
41.5700 957.0000 1.0000
41.5800 961.0000 1.0000
41.5900 903.0000 1.0000
41.6000 938.0000 1.0000
41.6100 887.0000 1.0000
41.6200 909.0000 1.0000
41.6300 892.0000 1.0000
41.6400 939.0000 1.0000
41.6500 919.0000 1.0000
41.6600 911.0000 1.0000
41.6700 928.0000 1.0000
41.6800 943.0000 1.0000
41.6900 947.0000 1.0000
41.7000 917.0000 1.0000
41.7100 912.0000 1.0000
41.7200 932.0000 1.0000
41.7300 919.0000 1.0000
41.7400 917.0000 1.0000
41.7500 950.0000 1.0000
41.7600 888.0000 1.0000
41.7700 913.0000 1.0000
41.7800 925.0000 1.0000
41.7900 930.0000 1.0000
41.8000 898.0000 1.0000
41.8100 932.0000 1.0000
41.8200 890.0000 1.0000
41.8300 914.0000 1.0000
41.8400 948.0000 1.0000
41.8500 941.0000 1.0000
41.8600 886.0000 1.0000
41.8700 907.0000 1.0000
41.8800 925.0000 1.0000
41.8900 887.0000 1.0000
41.9000 916.0000 1.0000
41.9100 970.0000 1.0000
41.9200 927.0000 1.0000
41.9300 883.0000 1.0000
41.9400 903.0000 1.0000
41.9500 931.0000 1.0000
41.9600 879.0000 1.0000
41.9700 912.0000 1.0000
41.9800 932.0000 1.0000
41.9900 928.0000 1.0000
42.0000 904.0000 1.0000
42.0100 859.0000 1.0000
42.0200 881.0000 1.0000
42.0300 880.0000 1.0000
42.0400 912.0000 1.0000
42.0500 957.0000 1.0000
42.0600 913.0000 1.0000
42.0700 892.0000 1.0000
42.0800 875.0000 1.0000
42.0900 921.0000 1.0000
42.1000 925.0000 1.0000
42.1100 910.0000 1.0000
42.1200 901.0000 1.0000
42.1300 897.0000 1.0000
42.1400 867.0000 1.0000
42.1500 913.0000 1.0000
42.1600 949.0000 1.0000
42.1700 887.0000 1.0000
42.1800 912.0000 1.0000
42.1900 858.0000 1.0000
42.2000 919.0000 1.0000
42.2100 917.0000 1.0000
42.2200 908.0000 1.0000
42.2300 903.0000 1.0000
42.2400 898.0000 1.0000
42.2500 865.0000 1.0000
42.2600 888.0000 1.0000
42.2700 889.0000 1.0000
42.2800 882.0000 1.0000
42.2900 884.0000 1.0000
42.3000 901.0000 1.0000
42.3100 885.0000 1.0000
42.3200 927.0000 1.0000
42.3300 940.0000 1.0000
42.3400 921.0000 1.0000
42.3500 915.0000 1.0000
42.3600 896.0000 1.0000
42.3700 924.0000 1.0000
42.3800 881.0000 1.0000
42.3900 977.0000 1.0000
42.4000 890.0000 1.0000
42.4100 911.0000 1.0000
42.4200 822.0000 1.0000
42.4300 825.0000 1.0000
42.4400 880.0000 1.0000
42.4500 878.0000 1.0000
42.4600 899.0000 1.0000
42.4700 893.0000 1.0000
42.4800 901.0000 1.0000
42.4900 921.0000 1.0000
42.5000 880.0000 1.0000
42.5100 909.0000 1.0000
42.5200 869.0000 1.0000
42.5300 878.0000 1.0000
42.5400 895.0000 1.0000
42.5500 888.0000 1.0000
42.5600 906.0000 1.0000
42.5700 886.0000 1.0000
42.5800 877.0000 1.0000
42.5900 940.0000 1.0000
42.6000 913.0000 1.0000
42.6100 897.0000 1.0000
42.6200 936.0000 1.0000
42.6300 917.0000 1.0000
42.6400 939.0000 1.0000
42.6500 916.0000 1.0000
42.6600 914.0000 1.0000
42.6700 875.0000 1.0000
42.6800 937.0000 1.0000
42.6900 858.0000 1.0000
42.7000 874.0000 1.0000
42.7100 870.0000 1.0000
42.7200 910.0000 1.0000
42.7300 870.0000 1.0000
42.7400 889.0000 1.0000
42.7500 887.0000 1.0000
42.7600 903.0000 1.0000
42.7700 893.0000 1.0000
42.7800 876.0000 1.0000
42.7900 855.0000 1.0000
42.8000 910.0000 1.0000
42.8100 937.0000 1.0000
42.8200 912.0000 1.0000
42.8300 949.0000 1.0000
42.8400 885.0000 1.0000
42.8500 900.0000 1.0000
42.8600 904.0000 1.0000
42.8700 932.0000 1.0000
42.8800 947.0000 1.0000
42.8900 868.0000 1.0000
42.9000 890.0000 1.0000
42.9100 926.0000 1.0000
42.9200 965.0000 1.0000
42.9300 882.0000 1.0000
42.9400 923.0000 1.0000
42.9500 874.0000 1.0000
42.9600 916.0000 1.0000
42.9700 889.0000 1.0000
42.9800 929.0000 1.0000
42.9900 910.0000 1.0000
43.0000 927.0000 1.0000
43.0100 973.0000 1.0000
43.0200 950.0000 1.0000
43.0300 952.0000 1.0000
43.0400 906.0000 1.0000
43.0500 911.0000 1.0000
43.0600 934.0000 1.0000
43.0700 900.0000 1.0000
43.0800 886.0000 1.0000
43.0900 963.0000 1.0000
43.1000 921.0000 1.0000
43.1100 933.0000 1.0000
43.1200 958.0000 1.0000
43.1300 978.0000 1.0000
43.1400 921.0000 1.0000
43.1500 916.0000 1.0000
43.1600 941.0000 1.0000
43.1700 927.0000 1.0000
43.1800 1017.0000 1.0000
43.1900 918.0000 1.0000
43.2000 991.0000 1.0000
43.2100 937.0000 1.0000
43.2200 1022.0000 1.0000
43.2300 971.0000 1.0000
43.2400 970.0000 1.0000
43.2500 964.0000 1.0000
43.2600 952.0000 1.0000
43.2700 947.0000 1.0000
43.2800 977.0000 1.0000
43.2900 958.0000 1.0000
43.3000 949.0000 1.0000
43.3100 975.0000 1.0000
43.3200 972.0000 1.0000
43.3300 924.0000 1.0000
43.3400 933.0000 1.0000
43.3500 919.0000 1.0000
43.3600 940.0000 1.0000
43.3700 939.0000 1.0000
43.3800 927.0000 1.0000
43.3900 911.0000 1.0000
43.4000 897.0000 1.0000
43.4100 924.0000 1.0000
43.4200 879.0000 1.0000
43.4300 874.0000 1.0000
43.4400 953.0000 1.0000
43.4500 918.0000 1.0000
43.4600 887.0000 1.0000
43.4700 896.0000 1.0000
43.4800 933.0000 1.0000
43.4900 909.0000 1.0000
43.5000 909.0000 1.0000
43.5100 886.0000 1.0000
43.5200 903.0000 1.0000
43.5300 907.0000 1.0000
43.5400 885.0000 1.0000
43.5500 927.0000 1.0000
43.5600 926.0000 1.0000
43.5700 911.0000 1.0000
43.5800 882.0000 1.0000
43.5900 889.0000 1.0000
43.6000 917.0000 1.0000
43.6100 939.0000 1.0000
43.6200 882.0000 1.0000
43.6300 883.0000 1.0000
43.6400 838.0000 1.0000
43.6500 888.0000 1.0000
43.6600 870.0000 1.0000
43.6700 875.0000 1.0000
43.6800 920.0000 1.0000
43.6900 944.0000 1.0000
43.7000 895.0000 1.0000
43.7100 870.0000 1.0000
43.7200 919.0000 1.0000
43.7300 883.0000 1.0000
43.7400 847.0000 1.0000
43.7500 868.0000 1.0000
43.7600 862.0000 1.0000
43.7700 856.0000 1.0000
43.7800 908.0000 1.0000
43.7900 904.0000 1.0000
43.8000 852.0000 1.0000
43.8100 846.0000 1.0000
43.8200 847.0000 1.0000
43.8300 925.0000 1.0000
43.8400 860.0000 1.0000
43.8500 869.0000 1.0000
43.8600 903.0000 1.0000
43.8700 887.0000 1.0000
43.8800 899.0000 1.0000
43.8900 877.0000 1.0000
43.9000 855.0000 1.0000
43.9100 888.0000 1.0000
43.9200 832.0000 1.0000
43.9300 873.0000 1.0000
43.9400 850.0000 1.0000
43.9500 885.0000 1.0000
43.9600 892.0000 1.0000
43.9700 891.0000 1.0000
43.9800 862.0000 1.0000
43.9900 892.0000 1.0000
44.0000 879.0000 1.0000
44.0100 846.0000 1.0000
44.0200 857.0000 1.0000
44.0300 877.0000 1.0000
44.0400 861.0000 1.0000
44.0500 905.0000 1.0000
44.0600 855.0000 1.0000
44.0700 930.0000 1.0000
44.0800 902.0000 1.0000
44.0900 865.0000 1.0000
44.1000 835.0000 1.0000
44.1100 842.0000 1.0000
44.1200 842.0000 1.0000
44.1300 840.0000 1.0000
44.1400 838.0000 1.0000
44.1500 876.0000 1.0000
44.1600 878.0000 1.0000
44.1700 897.0000 1.0000
44.1800 880.0000 1.0000
44.1900 883.0000 1.0000
44.2000 874.0000 1.0000
44.2100 860.0000 1.0000
44.2200 869.0000 1.0000
44.2300 872.0000 1.0000
44.2400 917.0000 1.0000
44.2500 895.0000 1.0000
44.2600 862.0000 1.0000
44.2700 875.0000 1.0000
44.2800 841.0000 1.0000
44.2900 902.0000 1.0000
44.3000 875.0000 1.0000
44.3100 845.0000 1.0000
44.3200 878.0000 1.0000
44.3300 830.0000 1.0000
44.3400 882.0000 1.0000
44.3500 870.0000 1.0000
44.3600 849.0000 1.0000
44.3700 877.0000 1.0000
44.3800 948.0000 1.0000
44.3900 878.0000 1.0000
44.4000 820.0000 1.0000
44.4100 821.0000 1.0000
44.4200 883.0000 1.0000
44.4300 871.0000 1.0000
44.4400 893.0000 1.0000
44.4500 885.0000 1.0000
44.4600 886.0000 1.0000
44.4700 905.0000 1.0000
44.4800 851.0000 1.0000
44.4900 862.0000 1.0000
44.5000 853.0000 1.0000
44.5100 884.0000 1.0000
44.5200 891.0000 1.0000
44.5300 874.0000 1.0000
44.5400 896.0000 1.0000
44.5500 853.0000 1.0000
44.5600 843.0000 1.0000
44.5700 890.0000 1.0000
44.5800 861.0000 1.0000
44.5900 839.0000 1.0000
44.6000 861.0000 1.0000
44.6100 863.0000 1.0000
44.6200 877.0000 1.0000
44.6300 858.0000 1.0000
44.6400 867.0000 1.0000
44.6500 851.0000 1.0000
44.6600 841.0000 1.0000
44.6700 886.0000 1.0000
44.6800 877.0000 1.0000
44.6900 835.0000 1.0000
44.7000 834.0000 1.0000
44.7100 838.0000 1.0000
44.7200 858.0000 1.0000
44.7300 873.0000 1.0000
44.7400 838.0000 1.0000
44.7500 826.0000 1.0000
44.7600 870.0000 1.0000
44.7700 858.0000 1.0000
44.7800 832.0000 1.0000
44.7900 861.0000 1.0000
44.8000 813.0000 1.0000
44.8100 837.0000 1.0000
44.8200 896.0000 1.0000
44.8300 895.0000 1.0000
44.8400 850.0000 1.0000
44.8500 870.0000 1.0000
44.8600 809.0000 1.0000
44.8700 801.0000 1.0000
44.8800 844.0000 1.0000
44.8900 756.0000 1.0000
44.9000 881.0000 1.0000
44.9100 838.0000 1.0000
44.9200 820.0000 1.0000
44.9300 858.0000 1.0000
44.9400 848.0000 1.0000
44.9500 879.0000 1.0000
44.9600 893.0000 1.0000
44.9700 863.0000 1.0000
44.9800 899.0000 1.0000
44.9900 897.0000 1.0000
45.0000 889.0000 1.0000
45.0100 810.0000 1.0000
45.0200 878.0000 1.0000
45.0300 899.0000 1.0000
45.0400 864.0000 1.0000
45.0500 846.0000 1.0000
45.0600 822.0000 1.0000
45.0700 852.0000 1.0000
45.0800 850.0000 1.0000
45.0900 869.0000 1.0000
45.1000 847.0000 1.0000
45.1100 841.0000 1.0000
45.1200 823.0000 1.0000
45.1300 876.0000 1.0000
45.1400 899.0000 1.0000
45.1500 835.0000 1.0000
45.1600 872.0000 1.0000
45.1700 843.0000 1.0000
45.1800 826.0000 1.0000
45.1900 844.0000 1.0000
45.2000 844.0000 1.0000
45.2100 883.0000 1.0000
45.2200 871.0000 1.0000
45.2300 808.0000 1.0000
45.2400 846.0000 1.0000
45.2500 875.0000 1.0000
45.2600 831.0000 1.0000
45.2700 849.0000 1.0000
45.2800 858.0000 1.0000
45.2900 828.0000 1.0000
45.3000 860.0000 1.0000
45.3100 867.0000 1.0000
45.3200 862.0000 1.0000
45.3300 864.0000 1.0000
45.3400 828.0000 1.0000
45.3500 851.0000 1.0000
45.3600 846.0000 1.0000
45.3700 841.0000 1.0000
45.3800 840.0000 1.0000
45.3900 804.0000 1.0000
45.4000 863.0000 1.0000
45.4100 861.0000 1.0000
45.4200 866.0000 1.0000
45.4300 860.0000 1.0000
45.4400 817.0000 1.0000
45.4500 855.0000 1.0000
45.4600 853.0000 1.0000
45.4700 885.0000 1.0000
45.4800 862.0000 1.0000
45.4900 863.0000 1.0000
45.5000 830.0000 1.0000
45.5100 854.0000 1.0000
45.5200 831.0000 1.0000
45.5300 850.0000 1.0000
45.5400 809.0000 1.0000
45.5500 880.0000 1.0000
45.5600 842.0000 1.0000
45.5700 841.0000 1.0000
45.5800 821.0000 1.0000
45.5900 855.0000 1.0000
45.6000 846.0000 1.0000
45.6100 864.0000 1.0000
45.6200 883.0000 1.0000
45.6300 821.0000 1.0000
45.6400 810.0000 1.0000
45.6500 825.0000 1.0000
45.6600 807.0000 1.0000
45.6700 883.0000 1.0000
45.6800 814.0000 1.0000
45.6900 816.0000 1.0000
45.7000 834.0000 1.0000
45.7100 845.0000 1.0000
45.7200 830.0000 1.0000
45.7300 811.0000 1.0000
45.7400 818.0000 1.0000
45.7500 865.0000 1.0000
45.7600 785.0000 1.0000
45.7700 770.0000 1.0000
45.7800 824.0000 1.0000
45.7900 846.0000 1.0000
45.8000 847.0000 1.0000
45.8100 816.0000 1.0000
45.8200 851.0000 1.0000
45.8300 794.0000 1.0000
45.8400 805.0000 1.0000
45.8500 804.0000 1.0000
45.8600 856.0000 1.0000
45.8700 838.0000 1.0000
45.8800 823.0000 1.0000
45.8900 810.0000 1.0000
45.9000 817.0000 1.0000
45.9100 848.0000 1.0000
45.9200 837.0000 1.0000
45.9300 833.0000 1.0000
45.9400 829.0000 1.0000
45.9500 805.0000 1.0000
45.9600 836.0000 1.0000
45.9700 762.0000 1.0000
45.9800 861.0000 1.0000
45.9900 874.0000 1.0000
46.0000 793.0000 1.0000
46.0100 788.0000 1.0000
46.0200 860.0000 1.0000
46.0300 830.0000 1.0000
46.0400 850.0000 1.0000
46.0500 867.0000 1.0000
46.0600 822.0000 1.0000
46.0700 836.0000 1.0000
46.0800 830.0000 1.0000
46.0900 880.0000 1.0000
46.1000 846.0000 1.0000
46.1100 825.0000 1.0000
46.1200 808.0000 1.0000
46.1300 852.0000 1.0000
46.1400 864.0000 1.0000
46.1500 839.0000 1.0000
46.1600 861.0000 1.0000
46.1700 823.0000 1.0000
46.1800 837.0000 1.0000
46.1900 841.0000 1.0000
46.2000 816.0000 1.0000
46.2100 804.0000 1.0000
46.2200 877.0000 1.0000
46.2300 840.0000 1.0000
46.2400 822.0000 1.0000
46.2500 813.0000 1.0000
46.2600 822.0000 1.0000
46.2700 825.0000 1.0000
46.2800 823.0000 1.0000
46.2900 817.0000 1.0000
46.3000 777.0000 1.0000
46.3100 850.0000 1.0000
46.3200 824.0000 1.0000
46.3300 829.0000 1.0000
46.3400 842.0000 1.0000
46.3500 783.0000 1.0000
46.3600 796.0000 1.0000
46.3700 760.0000 1.0000
46.3800 811.0000 1.0000
46.3900 799.0000 1.0000
46.4000 758.0000 1.0000
46.4100 826.0000 1.0000
46.4200 781.0000 1.0000
46.4300 800.0000 1.0000
46.4400 796.0000 1.0000
46.4500 765.0000 1.0000
46.4600 827.0000 1.0000
46.4700 790.0000 1.0000
46.4800 820.0000 1.0000
46.4900 796.0000 1.0000
46.5000 794.0000 1.0000
46.5100 819.0000 1.0000
46.5200 828.0000 1.0000
46.5300 781.0000 1.0000
46.5400 840.0000 1.0000
46.5500 813.0000 1.0000
46.5600 821.0000 1.0000
46.5700 873.0000 1.0000
46.5800 840.0000 1.0000
46.5900 792.0000 1.0000
46.6000 759.0000 1.0000
46.6100 753.0000 1.0000
46.6200 772.0000 1.0000
46.6300 794.0000 1.0000
46.6400 799.0000 1.0000
46.6500 814.0000 1.0000
46.6600 797.0000 1.0000
46.6700 811.0000 1.0000
46.6800 819.0000 1.0000
46.6900 808.0000 1.0000
46.7000 766.0000 1.0000
46.7100 809.0000 1.0000
46.7200 835.0000 1.0000
46.7300 835.0000 1.0000
46.7400 852.0000 1.0000
46.7500 825.0000 1.0000
46.7600 809.0000 1.0000
46.7700 805.0000 1.0000
46.7800 816.0000 1.0000
46.7900 849.0000 1.0000
46.8000 805.0000 1.0000
46.8100 839.0000 1.0000
46.8200 868.0000 1.0000
46.8300 844.0000 1.0000
46.8400 789.0000 1.0000
46.8500 831.0000 1.0000
46.8600 812.0000 1.0000
46.8700 827.0000 1.0000
46.8800 845.0000 1.0000
46.8900 854.0000 1.0000
46.9000 832.0000 1.0000
46.9100 859.0000 1.0000
46.9200 770.0000 1.0000
46.9300 796.0000 1.0000
46.9400 834.0000 1.0000
46.9500 841.0000 1.0000
46.9600 832.0000 1.0000
46.9700 835.0000 1.0000
46.9800 866.0000 1.0000
46.9900 819.0000 1.0000
47.0000 859.0000 1.0000
47.0100 877.0000 1.0000
47.0200 834.0000 1.0000
47.0300 836.0000 1.0000
47.0400 834.0000 1.0000
47.0500 836.0000 1.0000
47.0600 809.0000 1.0000
47.0700 796.0000 1.0000
47.0800 808.0000 1.0000
47.0900 854.0000 1.0000
47.1000 819.0000 1.0000
47.1100 804.0000 1.0000
47.1200 787.0000 1.0000
47.1300 808.0000 1.0000
47.1400 797.0000 1.0000
47.1500 808.0000 1.0000
47.1600 785.0000 1.0000
47.1700 818.0000 1.0000
47.1800 788.0000 1.0000
47.1900 806.0000 1.0000
47.2000 818.0000 1.0000
47.2100 843.0000 1.0000
47.2200 768.0000 1.0000
47.2300 829.0000 1.0000
47.2400 802.0000 1.0000
47.2500 830.0000 1.0000
47.2600 807.0000 1.0000
47.2700 795.0000 1.0000
47.2800 770.0000 1.0000
47.2900 811.0000 1.0000
47.3000 749.0000 1.0000
47.3100 764.0000 1.0000
47.3200 788.0000 1.0000
47.3300 837.0000 1.0000
47.3400 849.0000 1.0000
47.3500 784.0000 1.0000
47.3600 795.0000 1.0000
47.3700 830.0000 1.0000
47.3800 774.0000 1.0000
47.3900 796.0000 1.0000
47.4000 827.0000 1.0000
47.4100 782.0000 1.0000
47.4200 781.0000 1.0000
47.4300 795.0000 1.0000
47.4400 838.0000 1.0000
47.4500 776.0000 1.0000
47.4600 777.0000 1.0000
47.4700 760.0000 1.0000
47.4800 812.0000 1.0000
47.4900 789.0000 1.0000
47.5000 848.0000 1.0000
47.5100 844.0000 1.0000
47.5200 794.0000 1.0000
47.5300 790.0000 1.0000
47.5400 830.0000 1.0000
47.5500 784.0000 1.0000
47.5600 797.0000 1.0000
47.5700 816.0000 1.0000
47.5800 788.0000 1.0000
47.5900 792.0000 1.0000
47.6000 797.0000 1.0000
47.6100 734.0000 1.0000
47.6200 776.0000 1.0000
47.6300 770.0000 1.0000
47.6400 764.0000 1.0000
47.6500 834.0000 1.0000
47.6600 812.0000 1.0000
47.6700 762.0000 1.0000
47.6800 756.0000 1.0000
47.6900 771.0000 1.0000
47.7000 781.0000 1.0000
47.7100 760.0000 1.0000
47.7200 803.0000 1.0000
47.7300 844.0000 1.0000
47.7400 792.0000 1.0000
47.7500 766.0000 1.0000
47.7600 770.0000 1.0000
47.7700 759.0000 1.0000
47.7800 847.0000 1.0000
47.7900 799.0000 1.0000
47.8000 783.0000 1.0000
47.8100 791.0000 1.0000
47.8200 782.0000 1.0000
47.8300 792.0000 1.0000
47.8400 827.0000 1.0000
47.8500 809.0000 1.0000
47.8600 780.0000 1.0000
47.8700 775.0000 1.0000
47.8800 746.0000 1.0000
47.8900 777.0000 1.0000
47.9000 771.0000 1.0000
47.9100 774.0000 1.0000
47.9200 799.0000 1.0000
47.9300 800.0000 1.0000
47.9400 788.0000 1.0000
47.9500 782.0000 1.0000
47.9600 766.0000 1.0000
47.9700 766.0000 1.0000
47.9800 786.0000 1.0000
47.9900 781.0000 1.0000
48.0000 752.0000 1.0000
48.0100 809.0000 1.0000
48.0200 775.0000 1.0000
48.0300 787.0000 1.0000
48.0400 815.0000 1.0000
48.0500 788.0000 1.0000
48.0600 749.0000 1.0000
48.0700 803.0000 1.0000
48.0800 814.0000 1.0000
48.0900 802.0000 1.0000
48.1000 785.0000 1.0000
48.1100 769.0000 1.0000
48.1200 720.0000 1.0000
48.1300 759.0000 1.0000
48.1400 763.0000 1.0000
48.1500 826.0000 1.0000
48.1600 799.0000 1.0000
48.1700 805.0000 1.0000
48.1800 764.0000 1.0000
48.1900 783.0000 1.0000
48.2000 803.0000 1.0000
48.2100 807.0000 1.0000
48.2200 800.0000 1.0000
48.2300 776.0000 1.0000
48.2400 791.0000 1.0000
48.2500 775.0000 1.0000
48.2600 767.0000 1.0000
48.2700 771.0000 1.0000
48.2800 813.0000 1.0000
48.2900 769.0000 1.0000
48.3000 789.0000 1.0000
48.3100 787.0000 1.0000
48.3200 750.0000 1.0000
48.3300 747.0000 1.0000
48.3400 727.0000 1.0000
48.3500 735.0000 1.0000
48.3600 764.0000 1.0000
48.3700 789.0000 1.0000
48.3800 749.0000 1.0000
48.3900 745.0000 1.0000
48.4000 746.0000 1.0000
48.4100 771.0000 1.0000
48.4200 778.0000 1.0000
48.4300 783.0000 1.0000
48.4400 800.0000 1.0000
48.4500 774.0000 1.0000
48.4600 796.0000 1.0000
48.4700 761.0000 1.0000
48.4800 801.0000 1.0000
48.4900 779.0000 1.0000
48.5000 791.0000 1.0000
48.5100 783.0000 1.0000
48.5200 848.0000 1.0000
48.5300 804.0000 1.0000
48.5400 752.0000 1.0000
48.5500 763.0000 1.0000
48.5600 727.0000 1.0000
48.5700 741.0000 1.0000
48.5800 749.0000 1.0000
48.5900 732.0000 1.0000
48.6000 787.0000 1.0000
48.6100 819.0000 1.0000
48.6200 773.0000 1.0000
48.6300 741.0000 1.0000
48.6400 747.0000 1.0000
48.6500 754.0000 1.0000
48.6600 759.0000 1.0000
48.6700 797.0000 1.0000
48.6800 790.0000 1.0000
48.6900 715.0000 1.0000
48.7000 769.0000 1.0000
48.7100 756.0000 1.0000
48.7200 765.0000 1.0000
48.7300 780.0000 1.0000
48.7400 774.0000 1.0000
48.7500 807.0000 1.0000
48.7600 749.0000 1.0000
48.7700 769.0000 1.0000
48.7800 753.0000 1.0000
48.7900 751.0000 1.0000
48.8000 790.0000 1.0000
48.8100 706.0000 1.0000
48.8200 772.0000 1.0000
48.8300 793.0000 1.0000
48.8400 781.0000 1.0000
48.8500 759.0000 1.0000
48.8600 789.0000 1.0000
48.8700 768.0000 1.0000
48.8800 784.0000 1.0000
48.8900 760.0000 1.0000
48.9000 757.0000 1.0000
48.9100 797.0000 1.0000
48.9200 802.0000 1.0000
48.9300 729.0000 1.0000
48.9400 735.0000 1.0000
48.9500 804.0000 1.0000
48.9600 757.0000 1.0000
48.9700 813.0000 1.0000
48.9800 788.0000 1.0000
48.9900 727.0000 1.0000
49.0000 766.0000 1.0000
49.0100 777.0000 1.0000
49.0200 775.0000 1.0000
49.0300 746.0000 1.0000
49.0400 800.0000 1.0000
49.0500 789.0000 1.0000
49.0600 762.0000 1.0000
49.0700 771.0000 1.0000
49.0800 795.0000 1.0000
49.0900 759.0000 1.0000
49.1000 737.0000 1.0000
49.1100 765.0000 1.0000
49.1200 764.0000 1.0000
49.1300 740.0000 1.0000
49.1400 783.0000 1.0000
49.1500 740.0000 1.0000
49.1600 799.0000 1.0000
49.1700 828.0000 1.0000
49.1800 758.0000 1.0000
49.1900 752.0000 1.0000
49.2000 717.0000 1.0000
49.2100 737.0000 1.0000
49.2200 749.0000 1.0000
49.2300 738.0000 1.0000
49.2400 769.0000 1.0000
49.2500 742.0000 1.0000
49.2600 758.0000 1.0000
49.2700 718.0000 1.0000
49.2800 796.0000 1.0000
49.2900 754.0000 1.0000
49.3000 772.0000 1.0000
49.3100 737.0000 1.0000
49.3200 757.0000 1.0000
49.3300 789.0000 1.0000
49.3400 777.0000 1.0000
49.3500 762.0000 1.0000
49.3600 714.0000 1.0000
49.3700 777.0000 1.0000
49.3800 768.0000 1.0000
49.3900 744.0000 1.0000
49.4000 770.0000 1.0000
49.4100 774.0000 1.0000
49.4200 766.0000 1.0000
49.4300 788.0000 1.0000
49.4400 756.0000 1.0000
49.4500 767.0000 1.0000
49.4600 804.0000 1.0000
49.4700 733.0000 1.0000
49.4800 744.0000 1.0000
49.4900 773.0000 1.0000
49.5000 718.0000 1.0000
49.5100 724.0000 1.0000
49.5200 743.0000 1.0000
49.5300 731.0000 1.0000
49.5400 757.0000 1.0000
49.5500 748.0000 1.0000
49.5600 780.0000 1.0000
49.5700 779.0000 1.0000
49.5800 758.0000 1.0000
49.5900 784.0000 1.0000
49.6000 781.0000 1.0000
49.6100 771.0000 1.0000
49.6200 740.0000 1.0000
49.6300 737.0000 1.0000
49.6400 737.0000 1.0000
49.6500 769.0000 1.0000
49.6600 762.0000 1.0000
49.6700 727.0000 1.0000
49.6800 746.0000 1.0000
49.6900 771.0000 1.0000
49.7000 733.0000 1.0000
49.7100 772.0000 1.0000
49.7200 779.0000 1.0000
49.7300 761.0000 1.0000
49.7400 793.0000 1.0000
49.7500 724.0000 1.0000
49.7600 761.0000 1.0000
49.7700 775.0000 1.0000
49.7800 779.0000 1.0000
49.7900 786.0000 1.0000
49.8000 753.0000 1.0000
49.8100 737.0000 1.0000
49.8200 724.0000 1.0000
49.8300 753.0000 1.0000
49.8400 745.0000 1.0000
49.8500 743.0000 1.0000
49.8600 737.0000 1.0000
49.8700 743.0000 1.0000
49.8800 730.0000 1.0000
49.8900 743.0000 1.0000
49.9000 757.0000 1.0000
49.9100 778.0000 1.0000
49.9200 747.0000 1.0000
49.9300 738.0000 1.0000
49.9400 720.0000 1.0000
49.9500 747.0000 1.0000
49.9600 757.0000 1.0000
49.9700 768.0000 1.0000
49.9800 774.0000 1.0000
49.9900 752.0000 1.0000
50.0000 796.0000 1.0000
50.0100 802.0000 1.0000
50.0200 818.0000 1.0000
50.0300 793.0000 1.0000
50.0400 755.0000 1.0000
50.0500 811.0000 1.0000
50.0600 810.0000 1.0000
50.0700 810.0000 1.0000
50.0800 783.0000 1.0000
50.0900 767.0000 1.0000
50.1000 791.0000 1.0000
50.1100 781.0000 1.0000
50.1200 787.0000 1.0000
50.1300 795.0000 1.0000
50.1400 804.0000 1.0000
50.1500 765.0000 1.0000
50.1600 789.0000 1.0000
50.1700 823.0000 1.0000
50.1800 773.0000 1.0000
50.1900 809.0000 1.0000
50.2000 827.0000 1.0000
50.2100 733.0000 1.0000
50.2200 846.0000 1.0000
50.2300 766.0000 1.0000
50.2400 777.0000 1.0000
50.2500 779.0000 1.0000
50.2600 804.0000 1.0000
50.2700 802.0000 1.0000
50.2800 753.0000 1.0000
50.2900 744.0000 1.0000
50.3000 767.0000 1.0000
50.3100 794.0000 1.0000
50.3200 813.0000 1.0000
50.3300 817.0000 1.0000
50.3400 791.0000 1.0000
50.3500 802.0000 1.0000
50.3600 799.0000 1.0000
50.3700 811.0000 1.0000
50.3800 822.0000 1.0000
50.3900 755.0000 1.0000
50.4000 764.0000 1.0000
50.4100 757.0000 1.0000
50.4200 756.0000 1.0000
50.4300 776.0000 1.0000
50.4400 740.0000 1.0000
50.4500 760.0000 1.0000
50.4600 807.0000 1.0000
50.4700 813.0000 1.0000
50.4800 754.0000 1.0000
50.4900 794.0000 1.0000
50.5000 741.0000 1.0000
50.5100 765.0000 1.0000
50.5200 803.0000 1.0000
50.5300 807.0000 1.0000
50.5400 806.0000 1.0000
50.5500 784.0000 1.0000
50.5600 815.0000 1.0000
50.5700 767.0000 1.0000
50.5800 788.0000 1.0000
50.5900 778.0000 1.0000
50.6000 755.0000 1.0000
50.6100 816.0000 1.0000
50.6200 802.0000 1.0000
50.6300 767.0000 1.0000
50.6400 740.0000 1.0000
50.6500 769.0000 1.0000
50.6600 772.0000 1.0000
50.6700 760.0000 1.0000
50.6800 763.0000 1.0000
50.6900 764.0000 1.0000
50.7000 803.0000 1.0000
50.7100 808.0000 1.0000
50.7200 748.0000 1.0000
50.7300 748.0000 1.0000
50.7400 764.0000 1.0000
50.7500 812.0000 1.0000
50.7600 766.0000 1.0000
50.7700 780.0000 1.0000
50.7800 793.0000 1.0000
50.7900 784.0000 1.0000
50.8000 763.0000 1.0000
50.8100 778.0000 1.0000
50.8200 806.0000 1.0000
50.8300 758.0000 1.0000
50.8400 790.0000 1.0000
50.8500 770.0000 1.0000
50.8600 787.0000 1.0000
50.8700 742.0000 1.0000
50.8800 750.0000 1.0000
50.8900 760.0000 1.0000
50.9000 780.0000 1.0000
50.9100 799.0000 1.0000
50.9200 782.0000 1.0000
50.9300 805.0000 1.0000
50.9400 782.0000 1.0000
50.9500 716.0000 1.0000
50.9600 805.0000 1.0000
50.9700 791.0000 1.0000
50.9800 821.0000 1.0000
50.9900 782.0000 1.0000
51.0000 766.0000 1.0000
51.0100 750.0000 1.0000
51.0200 774.0000 1.0000
51.0300 788.0000 1.0000
51.0400 764.0000 1.0000
51.0500 757.0000 1.0000
51.0600 772.0000 1.0000
51.0700 766.0000 1.0000
51.0800 783.0000 1.0000
51.0900 768.0000 1.0000
51.1000 772.0000 1.0000
51.1100 736.0000 1.0000
51.1200 800.0000 1.0000
51.1300 764.0000 1.0000
51.1400 733.0000 1.0000
51.1500 773.0000 1.0000
51.1600 805.0000 1.0000
51.1700 772.0000 1.0000
51.1800 764.0000 1.0000
51.1900 779.0000 1.0000
51.2000 770.0000 1.0000
51.2100 718.0000 1.0000
51.2200 809.0000 1.0000
51.2300 775.0000 1.0000
51.2400 786.0000 1.0000
51.2500 855.0000 1.0000
51.2600 826.0000 1.0000
51.2700 730.0000 1.0000
51.2800 760.0000 1.0000
51.2900 773.0000 1.0000
51.3000 780.0000 1.0000
51.3100 765.0000 1.0000
51.3200 755.0000 1.0000
51.3300 777.0000 1.0000
51.3400 797.0000 1.0000
51.3500 786.0000 1.0000
51.3600 758.0000 1.0000
51.3700 764.0000 1.0000
51.3800 802.0000 1.0000
51.3900 796.0000 1.0000
51.4000 770.0000 1.0000
51.4100 801.0000 1.0000
51.4200 750.0000 1.0000
51.4300 771.0000 1.0000
51.4400 835.0000 1.0000
51.4500 810.0000 1.0000
51.4600 714.0000 1.0000
51.4700 772.0000 1.0000
51.4800 811.0000 1.0000
51.4900 806.0000 1.0000
51.5000 817.0000 1.0000
51.5100 816.0000 1.0000
51.5200 758.0000 1.0000
51.5300 804.0000 1.0000
51.5400 784.0000 1.0000
51.5500 797.0000 1.0000
51.5600 802.0000 1.0000
51.5700 838.0000 1.0000
51.5800 827.0000 1.0000
51.5900 805.0000 1.0000
51.6000 829.0000 1.0000
51.6100 787.0000 1.0000
51.6200 800.0000 1.0000
51.6300 796.0000 1.0000
51.6400 815.0000 1.0000
51.6500 789.0000 1.0000
51.6600 830.0000 1.0000
51.6700 795.0000 1.0000
51.6800 772.0000 1.0000
51.6900 817.0000 1.0000
51.7000 830.0000 1.0000
51.7100 830.0000 1.0000
51.7200 814.0000 1.0000
51.7300 834.0000 1.0000
51.7400 832.0000 1.0000
51.7500 880.0000 1.0000
51.7600 880.0000 1.0000
51.7700 832.0000 1.0000
51.7800 864.0000 1.0000
51.7900 836.0000 1.0000
51.8000 870.0000 1.0000
51.8100 848.0000 1.0000
51.8200 900.0000 1.0000
51.8300 856.0000 1.0000
51.8400 907.0000 1.0000
51.8500 888.0000 1.0000
51.8600 926.0000 1.0000
51.8700 911.0000 1.0000
51.8800 943.0000 1.0000
51.8900 956.0000 1.0000
51.9000 984.0000 1.0000
51.9100 996.0000 1.0000
51.9200 967.0000 1.0000
51.9300 975.0000 1.0000
51.9400 1067.0000 1.0000
51.9500 1008.0000 1.0000
51.9600 1093.0000 1.0000
51.9700 1121.0000 1.0000
51.9800 1106.0000 1.0000
51.9900 1167.0000 1.0000
52.0000 1232.0000 1.0000
52.0100 1293.0000 1.0000
52.0200 1324.0000 1.0000
52.0300 1317.0000 1.0000
52.0400 1377.0000 1.0000
52.0500 1423.0000 1.0000
52.0600 1530.0000 1.0000
52.0700 1585.0000 1.0000
52.0800 1618.0000 1.0000
52.0900 1739.0000 1.0000
52.1000 1795.0000 1.0000
52.1100 1890.0000 1.0000
52.1200 2021.0000 1.0000
52.1300 2214.0000 1.0000
52.1400 2378.0000 1.0000
52.1500 2515.0000 1.0000
52.1600 2810.0000 1.0000
52.1700 3037.0000 1.0000
52.1800 3287.0000 1.0000
52.1900 3553.0000 1.0000
52.2000 3881.0000 1.0000
52.2100 4104.0000 1.0000
52.2200 4463.0000 1.0000
52.2300 4627.0000 1.0000
52.2400 4911.0000 1.0000
52.2500 4883.0000 1.0000
52.2600 5172.0000 1.0000
52.2700 5331.0000 1.0000
52.2800 5340.0000 1.0000
52.2900 5130.0000 1.0000
52.3000 5079.0000 1.0000
52.3100 4906.0000 1.0000
52.3200 4692.0000 1.0000
52.3300 4522.0000 1.0000
52.3400 4406.0000 1.0000
52.3500 4327.0000 1.0000
52.3600 4222.0000 1.0000
52.3700 4162.0000 1.0000
52.3800 4002.0000 1.0000
52.3900 3900.0000 1.0000
52.4000 3858.0000 1.0000
52.4100 3705.0000 1.0000
52.4200 3570.0000 1.0000
52.4300 3338.0000 1.0000
52.4400 3160.0000 1.0000
52.4500 2963.0000 1.0000
52.4600 2758.0000 1.0000
52.4700 2639.0000 1.0000
52.4800 2452.0000 1.0000
52.4900 2297.0000 1.0000
52.5000 2057.0000 1.0000
52.5100 1936.0000 1.0000
52.5200 1881.0000 1.0000
52.5300 1751.0000 1.0000
52.5400 1632.0000 1.0000
52.5500 1593.0000 1.0000
52.5600 1497.0000 1.0000
52.5700 1500.0000 1.0000
52.5800 1387.0000 1.0000
52.5900 1345.0000 1.0000
52.6000 1307.0000 1.0000
52.6100 1296.0000 1.0000
52.6200 1272.0000 1.0000
52.6300 1218.0000 1.0000
52.6400 1262.0000 1.0000
52.6500 1120.0000 1.0000
52.6600 1128.0000 1.0000
52.6700 1078.0000 1.0000
52.6800 1037.0000 1.0000
52.6900 1024.0000 1.0000
52.7000 1004.0000 1.0000
52.7100 1002.0000 1.0000
52.7200 1025.0000 1.0000
52.7300 991.0000 1.0000
52.7400 958.0000 1.0000
52.7500 942.0000 1.0000
52.7600 949.0000 1.0000
52.7700 908.0000 1.0000
52.7800 920.0000 1.0000
52.7900 899.0000 1.0000
52.8000 911.0000 1.0000
52.8100 928.0000 1.0000
52.8200 905.0000 1.0000
52.8300 829.0000 1.0000
52.8400 874.0000 1.0000
52.8500 813.0000 1.0000
52.8600 883.0000 1.0000
52.8700 858.0000 1.0000
52.8800 887.0000 1.0000
52.8900 863.0000 1.0000
52.9000 885.0000 1.0000
52.9100 820.0000 1.0000
52.9200 830.0000 1.0000
52.9300 863.0000 1.0000
52.9400 851.0000 1.0000
52.9500 855.0000 1.0000
52.9600 828.0000 1.0000
52.9700 819.0000 1.0000
52.9800 799.0000 1.0000
52.9900 822.0000 1.0000
53.0000 798.0000 1.0000
53.0100 808.0000 1.0000
53.0200 799.0000 1.0000
53.0300 781.0000 1.0000
53.0400 874.0000 1.0000
53.0500 782.0000 1.0000
53.0600 793.0000 1.0000
53.0700 765.0000 1.0000
53.0800 756.0000 1.0000
53.0900 788.0000 1.0000
53.1000 805.0000 1.0000
53.1100 800.0000 1.0000
53.1200 852.0000 1.0000
53.1300 821.0000 1.0000
53.1400 798.0000 1.0000
53.1500 763.0000 1.0000
53.1600 817.0000 1.0000
53.1700 805.0000 1.0000
53.1800 785.0000 1.0000
53.1900 775.0000 1.0000
53.2000 784.0000 1.0000
53.2100 786.0000 1.0000
53.2200 843.0000 1.0000
53.2300 799.0000 1.0000
53.2400 805.0000 1.0000
53.2500 804.0000 1.0000
53.2600 776.0000 1.0000
53.2700 783.0000 1.0000
53.2800 753.0000 1.0000
53.2900 773.0000 1.0000
53.3000 790.0000 1.0000
53.3100 764.0000 1.0000
53.3200 801.0000 1.0000
53.3300 759.0000 1.0000
53.3400 752.0000 1.0000
53.3500 740.0000 1.0000
53.3600 754.0000 1.0000
53.3700 770.0000 1.0000
53.3800 795.0000 1.0000
53.3900 752.0000 1.0000
53.4000 778.0000 1.0000
53.4100 728.0000 1.0000
53.4200 730.0000 1.0000
53.4300 761.0000 1.0000
53.4400 760.0000 1.0000
53.4500 718.0000 1.0000
53.4600 766.0000 1.0000
53.4700 758.0000 1.0000
53.4800 823.0000 1.0000
53.4900 786.0000 1.0000
53.5000 743.0000 1.0000
53.5100 744.0000 1.0000
53.5200 770.0000 1.0000
53.5300 788.0000 1.0000
53.5400 759.0000 1.0000
53.5500 756.0000 1.0000
53.5600 773.0000 1.0000
53.5700 746.0000 1.0000
53.5800 763.0000 1.0000
53.5900 746.0000 1.0000
53.6000 744.0000 1.0000
53.6100 751.0000 1.0000
53.6200 770.0000 1.0000
53.6300 741.0000 1.0000
53.6400 748.0000 1.0000
53.6500 744.0000 1.0000
53.6600 725.0000 1.0000
53.6700 726.0000 1.0000
53.6800 745.0000 1.0000
53.6900 766.0000 1.0000
53.7000 756.0000 1.0000
53.7100 759.0000 1.0000
53.7200 742.0000 1.0000
53.7300 773.0000 1.0000
53.7400 745.0000 1.0000
53.7500 738.0000 1.0000
53.7600 740.0000 1.0000
53.7700 762.0000 1.0000
53.7800 739.0000 1.0000
53.7900 745.0000 1.0000
53.8000 769.0000 1.0000
53.8100 770.0000 1.0000
53.8200 728.0000 1.0000
53.8300 741.0000 1.0000
53.8400 751.0000 1.0000
53.8500 738.0000 1.0000
53.8600 764.0000 1.0000
53.8700 731.0000 1.0000
53.8800 759.0000 1.0000
53.8900 756.0000 1.0000
53.9000 759.0000 1.0000
53.9100 748.0000 1.0000
53.9200 746.0000 1.0000
53.9300 729.0000 1.0000
53.9400 760.0000 1.0000
53.9500 718.0000 1.0000
53.9600 759.0000 1.0000
53.9700 775.0000 1.0000
53.9800 736.0000 1.0000
53.9900 761.0000 1.0000
54.0000 758.0000 1.0000
54.0100 756.0000 1.0000
54.0200 739.0000 1.0000
54.0300 724.0000 1.0000
54.0400 717.0000 1.0000
54.0500 764.0000 1.0000
54.0600 754.0000 1.0000
54.0700 687.0000 1.0000
54.0800 730.0000 1.0000
54.0900 737.0000 1.0000
54.1000 764.0000 1.0000
54.1100 753.0000 1.0000
54.1200 754.0000 1.0000
54.1300 748.0000 1.0000
54.1400 766.0000 1.0000
54.1500 755.0000 1.0000
54.1600 772.0000 1.0000
54.1700 719.0000 1.0000
54.1800 733.0000 1.0000
54.1900 729.0000 1.0000
54.2000 730.0000 1.0000
54.2100 745.0000 1.0000
54.2200 745.0000 1.0000
54.2300 738.0000 1.0000
54.2400 737.0000 1.0000
54.2500 752.0000 1.0000
54.2600 795.0000 1.0000
54.2700 743.0000 1.0000
54.2800 728.0000 1.0000
54.2900 739.0000 1.0000
54.3000 760.0000 1.0000
54.3100 716.0000 1.0000
54.3200 742.0000 1.0000
54.3300 739.0000 1.0000
54.3400 733.0000 1.0000
54.3500 755.0000 1.0000
54.3600 781.0000 1.0000
54.3700 727.0000 1.0000
54.3800 770.0000 1.0000
54.3900 733.0000 1.0000
54.4000 751.0000 1.0000
54.4100 729.0000 1.0000
54.4200 751.0000 1.0000
54.4300 755.0000 1.0000
54.4400 794.0000 1.0000
54.4500 768.0000 1.0000
54.4600 734.0000 1.0000
54.4700 743.0000 1.0000
54.4800 730.0000 1.0000
54.4900 743.0000 1.0000
54.5000 688.0000 1.0000
54.5100 766.0000 1.0000
54.5200 739.0000 1.0000
54.5300 766.0000 1.0000
54.5400 750.0000 1.0000
54.5500 722.0000 1.0000
54.5600 753.0000 1.0000
54.5700 720.0000 1.0000
54.5800 751.0000 1.0000
54.5900 706.0000 1.0000
54.6000 747.0000 1.0000
54.6100 775.0000 1.0000
54.6200 776.0000 1.0000
54.6300 757.0000 1.0000
54.6400 731.0000 1.0000
54.6500 776.0000 1.0000
54.6600 768.0000 1.0000
54.6700 788.0000 1.0000
54.6800 745.0000 1.0000
54.6900 798.0000 1.0000
54.7000 751.0000 1.0000
54.7100 786.0000 1.0000
54.7200 786.0000 1.0000
54.7300 793.0000 1.0000
54.7400 805.0000 1.0000
54.7500 788.0000 1.0000
54.7600 795.0000 1.0000
54.7700 759.0000 1.0000
54.7800 806.0000 1.0000
54.7900 855.0000 1.0000
54.8000 822.0000 1.0000
54.8100 774.0000 1.0000
54.8200 790.0000 1.0000
54.8300 781.0000 1.0000
54.8400 804.0000 1.0000
54.8500 802.0000 1.0000
54.8600 786.0000 1.0000
54.8700 790.0000 1.0000
54.8800 816.0000 1.0000
54.8900 841.0000 1.0000
54.9000 818.0000 1.0000
54.9100 790.0000 1.0000
54.9200 805.0000 1.0000
54.9300 822.0000 1.0000
54.9400 822.0000 1.0000
54.9500 885.0000 1.0000
54.9600 807.0000 1.0000
54.9700 840.0000 1.0000
54.9800 818.0000 1.0000
54.9900 793.0000 1.0000
55.0000 837.0000 1.0000
55.0100 811.0000 1.0000
55.0200 827.0000 1.0000
55.0300 846.0000 1.0000
55.0400 868.0000 1.0000
55.0500 871.0000 1.0000
55.0600 836.0000 1.0000
55.0700 902.0000 1.0000
55.0800 861.0000 1.0000
55.0900 889.0000 1.0000
55.1000 880.0000 1.0000
55.1100 867.0000 1.0000
55.1200 905.0000 1.0000
55.1300 951.0000 1.0000
55.1400 898.0000 1.0000
55.1500 949.0000 1.0000
55.1600 923.0000 1.0000
55.1700 951.0000 1.0000
55.1800 1010.0000 1.0000
55.1900 1101.0000 1.0000
55.2000 1048.0000 1.0000
55.2100 1025.0000 1.0000
55.2200 1077.0000 1.0000
55.2300 1065.0000 1.0000
55.2400 1091.0000 1.0000
55.2500 1102.0000 1.0000
55.2600 1157.0000 1.0000
55.2700 1130.0000 1.0000
55.2800 1141.0000 1.0000
55.2900 1152.0000 1.0000
55.3000 1101.0000 1.0000
55.3100 1062.0000 1.0000
55.3200 1115.0000 1.0000
55.3300 1104.0000 1.0000
55.3400 1130.0000 1.0000
55.3500 1115.0000 1.0000
55.3600 1065.0000 1.0000
55.3700 1133.0000 1.0000
55.3800 1106.0000 1.0000
55.3900 1072.0000 1.0000
55.4000 1073.0000 1.0000
55.4100 1060.0000 1.0000
55.4200 1005.0000 1.0000
55.4300 1032.0000 1.0000
55.4400 1043.0000 1.0000
55.4500 1015.0000 1.0000
55.4600 1002.0000 1.0000
55.4700 958.0000 1.0000
55.4800 925.0000 1.0000
55.4900 971.0000 1.0000
55.5000 962.0000 1.0000
55.5100 893.0000 1.0000
55.5200 909.0000 1.0000
55.5300 898.0000 1.0000
55.5400 923.0000 1.0000
55.5500 927.0000 1.0000
55.5600 867.0000 1.0000
55.5700 925.0000 1.0000
55.5800 849.0000 1.0000
55.5900 832.0000 1.0000
55.6000 878.0000 1.0000
55.6100 853.0000 1.0000
55.6200 832.0000 1.0000
55.6300 742.0000 1.0000
55.6400 813.0000 1.0000
55.6500 838.0000 1.0000
55.6600 779.0000 1.0000
55.6700 778.0000 1.0000
55.6800 772.0000 1.0000
55.6900 793.0000 1.0000
55.7000 789.0000 1.0000
55.7100 771.0000 1.0000
55.7200 727.0000 1.0000
55.7300 819.0000 1.0000
55.7400 800.0000 1.0000
55.7500 790.0000 1.0000
55.7600 751.0000 1.0000
55.7700 741.0000 1.0000
55.7800 762.0000 1.0000
55.7900 707.0000 1.0000
55.8000 735.0000 1.0000
55.8100 805.0000 1.0000
55.8200 759.0000 1.0000
55.8300 703.0000 1.0000
55.8400 699.0000 1.0000
55.8500 727.0000 1.0000
55.8600 791.0000 1.0000
55.8700 751.0000 1.0000
55.8800 715.0000 1.0000
55.8900 712.0000 1.0000
55.9000 732.0000 1.0000
55.9100 732.0000 1.0000
55.9200 778.0000 1.0000
55.9300 788.0000 1.0000
55.9400 711.0000 1.0000
55.9500 739.0000 1.0000
55.9600 742.0000 1.0000
55.9700 711.0000 1.0000
55.9800 759.0000 1.0000
55.9900 760.0000 1.0000
56.0000 743.0000 1.0000
56.0100 746.0000 1.0000
56.0200 724.0000 1.0000
56.0300 733.0000 1.0000
56.0400 706.0000 1.0000
56.0500 751.0000 1.0000
56.0600 749.0000 1.0000
56.0700 759.0000 1.0000
56.0800 745.0000 1.0000
56.0900 745.0000 1.0000
56.1000 743.0000 1.0000
56.1100 744.0000 1.0000
56.1200 751.0000 1.0000
56.1300 716.0000 1.0000
56.1400 748.0000 1.0000
56.1500 772.0000 1.0000
56.1600 729.0000 1.0000
56.1700 741.0000 1.0000
56.1800 757.0000 1.0000
56.1900 693.0000 1.0000
56.2000 721.0000 1.0000
56.2100 714.0000 1.0000
56.2200 728.0000 1.0000
56.2300 732.0000 1.0000
56.2400 750.0000 1.0000
56.2500 736.0000 1.0000
56.2600 694.0000 1.0000
56.2700 705.0000 1.0000
56.2800 713.0000 1.0000
56.2900 721.0000 1.0000
56.3000 738.0000 1.0000
56.3100 735.0000 1.0000
56.3200 706.0000 1.0000
56.3300 747.0000 1.0000
56.3400 733.0000 1.0000
56.3500 718.0000 1.0000
56.3600 718.0000 1.0000
56.3700 765.0000 1.0000
56.3800 724.0000 1.0000
56.3900 697.0000 1.0000
56.4000 700.0000 1.0000
56.4100 764.0000 1.0000
56.4200 711.0000 1.0000
56.4300 725.0000 1.0000
56.4400 703.0000 1.0000
56.4500 667.0000 1.0000
56.4600 684.0000 1.0000
56.4700 755.0000 1.0000
56.4800 741.0000 1.0000
56.4900 711.0000 1.0000
56.5000 724.0000 1.0000
56.5100 736.0000 1.0000
56.5200 689.0000 1.0000
56.5300 717.0000 1.0000
56.5400 705.0000 1.0000
56.5500 736.0000 1.0000
56.5600 686.0000 1.0000
56.5700 719.0000 1.0000
56.5800 738.0000 1.0000
56.5900 725.0000 1.0000
56.6000 730.0000 1.0000
56.6100 710.0000 1.0000
56.6200 743.0000 1.0000
56.6300 708.0000 1.0000
56.6400 725.0000 1.0000
56.6500 729.0000 1.0000
56.6600 727.0000 1.0000
56.6700 760.0000 1.0000
56.6800 708.0000 1.0000
56.6900 700.0000 1.0000
56.7000 707.0000 1.0000
56.7100 716.0000 1.0000
56.7200 745.0000 1.0000
56.7300 700.0000 1.0000
56.7400 707.0000 1.0000
56.7500 721.0000 1.0000
56.7600 742.0000 1.0000
56.7700 722.0000 1.0000
56.7800 689.0000 1.0000
56.7900 749.0000 1.0000
56.8000 721.0000 1.0000
56.8100 734.0000 1.0000
56.8200 729.0000 1.0000
56.8300 721.0000 1.0000
56.8400 703.0000 1.0000
56.8500 733.0000 1.0000
56.8600 727.0000 1.0000
56.8700 709.0000 1.0000
56.8800 700.0000 1.0000
56.8900 683.0000 1.0000
56.9000 716.0000 1.0000
56.9100 723.0000 1.0000
56.9200 756.0000 1.0000
56.9300 755.0000 1.0000
56.9400 679.0000 1.0000
56.9500 704.0000 1.0000
56.9600 729.0000 1.0000
56.9700 708.0000 1.0000
56.9800 704.0000 1.0000
56.9900 683.0000 1.0000
57.0000 668.0000 1.0000
57.0100 669.0000 1.0000
57.0200 698.0000 1.0000
57.0300 742.0000 1.0000
57.0400 725.0000 1.0000
57.0500 721.0000 1.0000
57.0600 689.0000 1.0000
57.0700 685.0000 1.0000
57.0800 723.0000 1.0000
57.0900 723.0000 1.0000
57.1000 767.0000 1.0000
57.1100 729.0000 1.0000
57.1200 699.0000 1.0000
57.1300 715.0000 1.0000
57.1400 715.0000 1.0000
57.1500 708.0000 1.0000
57.1600 726.0000 1.0000
57.1700 726.0000 1.0000
57.1800 686.0000 1.0000
57.1900 727.0000 1.0000
57.2000 703.0000 1.0000
57.2100 747.0000 1.0000
57.2200 698.0000 1.0000
57.2300 674.0000 1.0000
57.2400 737.0000 1.0000
57.2500 709.0000 1.0000
57.2600 731.0000 1.0000
57.2700 746.0000 1.0000
57.2800 738.0000 1.0000
57.2900 686.0000 1.0000
57.3000 675.0000 1.0000
57.3100 706.0000 1.0000
57.3200 754.0000 1.0000
57.3300 714.0000 1.0000
57.3400 760.0000 1.0000
57.3500 732.0000 1.0000
57.3600 734.0000 1.0000
57.3700 728.0000 1.0000
57.3800 738.0000 1.0000
57.3900 680.0000 1.0000
57.4000 688.0000 1.0000
57.4100 720.0000 1.0000
57.4200 739.0000 1.0000
57.4300 688.0000 1.0000
57.4400 688.0000 1.0000
57.4500 720.0000 1.0000
57.4600 745.0000 1.0000
57.4700 723.0000 1.0000
57.4800 721.0000 1.0000
57.4900 726.0000 1.0000
57.5000 684.0000 1.0000
57.5100 711.0000 1.0000
57.5200 714.0000 1.0000
57.5300 772.0000 1.0000
57.5400 753.0000 1.0000
57.5500 693.0000 1.0000
57.5600 713.0000 1.0000
57.5700 701.0000 1.0000
57.5800 735.0000 1.0000
57.5900 727.0000 1.0000
57.6000 674.0000 1.0000
57.6100 770.0000 1.0000
57.6200 730.0000 1.0000
57.6300 724.0000 1.0000
57.6400 750.0000 1.0000
57.6500 742.0000 1.0000
57.6600 676.0000 1.0000
57.6700 711.0000 1.0000
57.6800 740.0000 1.0000
57.6900 750.0000 1.0000
57.7000 720.0000 1.0000
57.7100 734.0000 1.0000
57.7200 696.0000 1.0000
57.7300 743.0000 1.0000
57.7400 702.0000 1.0000
57.7500 690.0000 1.0000
57.7600 686.0000 1.0000
57.7700 680.0000 1.0000
57.7800 723.0000 1.0000
57.7900 722.0000 1.0000
57.8000 707.0000 1.0000
57.8100 710.0000 1.0000
57.8200 728.0000 1.0000
57.8300 741.0000 1.0000
57.8400 702.0000 1.0000
57.8500 764.0000 1.0000
57.8600 746.0000 1.0000
57.8700 760.0000 1.0000
57.8800 713.0000 1.0000
57.8900 734.0000 1.0000
57.9000 677.0000 1.0000
57.9100 708.0000 1.0000
57.9200 720.0000 1.0000
57.9300 710.0000 1.0000
57.9400 755.0000 1.0000
57.9500 714.0000 1.0000
57.9600 694.0000 1.0000
57.9700 713.0000 1.0000
57.9800 726.0000 1.0000
57.9900 747.0000 1.0000
58.0000 744.0000 1.0000
58.0100 718.0000 1.0000
58.0200 734.0000 1.0000
58.0300 745.0000 1.0000
58.0400 738.0000 1.0000
58.0500 731.0000 1.0000
58.0600 743.0000 1.0000
58.0700 715.0000 1.0000
58.0800 702.0000 1.0000
58.0900 715.0000 1.0000
58.1000 703.0000 1.0000
58.1100 699.0000 1.0000
58.1200 780.0000 1.0000
58.1300 712.0000 1.0000
58.1400 742.0000 1.0000
58.1500 747.0000 1.0000
58.1600 719.0000 1.0000
58.1700 743.0000 1.0000
58.1800 741.0000 1.0000
58.1900 727.0000 1.0000
58.2000 732.0000 1.0000
58.2100 706.0000 1.0000
58.2200 688.0000 1.0000
58.2300 719.0000 1.0000
58.2400 759.0000 1.0000
58.2500 783.0000 1.0000
58.2600 744.0000 1.0000
58.2700 711.0000 1.0000
58.2800 706.0000 1.0000
58.2900 745.0000 1.0000
58.3000 746.0000 1.0000
58.3100 738.0000 1.0000
58.3200 696.0000 1.0000
58.3300 775.0000 1.0000
58.3400 757.0000 1.0000
58.3500 788.0000 1.0000
58.3600 743.0000 1.0000
58.3700 761.0000 1.0000
58.3800 770.0000 1.0000
58.3900 727.0000 1.0000
58.4000 707.0000 1.0000
58.4100 733.0000 1.0000
58.4200 747.0000 1.0000
58.4300 732.0000 1.0000
58.4400 734.0000 1.0000
58.4500 785.0000 1.0000
58.4600 757.0000 1.0000
58.4700 699.0000 1.0000
58.4800 735.0000 1.0000
58.4900 708.0000 1.0000
58.5000 697.0000 1.0000
58.5100 724.0000 1.0000
58.5200 703.0000 1.0000
58.5300 709.0000 1.0000
58.5400 743.0000 1.0000
58.5500 754.0000 1.0000
58.5600 676.0000 1.0000
58.5700 732.0000 1.0000
58.5800 733.0000 1.0000
58.5900 721.0000 1.0000
58.6000 741.0000 1.0000
58.6100 713.0000 1.0000
58.6200 761.0000 1.0000
58.6300 704.0000 1.0000
58.6400 710.0000 1.0000
58.6500 736.0000 1.0000
58.6600 730.0000 1.0000
58.6700 720.0000 1.0000
58.6800 677.0000 1.0000
58.6900 712.0000 1.0000
58.7000 738.0000 1.0000
58.7100 741.0000 1.0000
58.7200 739.0000 1.0000
58.7300 704.0000 1.0000
58.7400 707.0000 1.0000
58.7500 731.0000 1.0000
58.7600 705.0000 1.0000
58.7700 754.0000 1.0000
58.7800 721.0000 1.0000
58.7900 741.0000 1.0000
58.8000 712.0000 1.0000
58.8100 683.0000 1.0000
58.8200 714.0000 1.0000
58.8300 718.0000 1.0000
58.8400 675.0000 1.0000
58.8500 688.0000 1.0000
58.8600 771.0000 1.0000
58.8700 693.0000 1.0000
58.8800 699.0000 1.0000
58.8900 681.0000 1.0000
58.9000 687.0000 1.0000
58.9100 712.0000 1.0000
58.9200 696.0000 1.0000
58.9300 722.0000 1.0000
58.9400 720.0000 1.0000
58.9500 728.0000 1.0000
58.9600 681.0000 1.0000
58.9700 732.0000 1.0000
58.9800 728.0000 1.0000
58.9900 737.0000 1.0000
59.0000 739.0000 1.0000
59.0100 709.0000 1.0000
59.0200 748.0000 1.0000
59.0300 699.0000 1.0000
59.0400 713.0000 1.0000
59.0500 672.0000 1.0000
59.0600 679.0000 1.0000
59.0700 723.0000 1.0000
59.0800 731.0000 1.0000
59.0900 760.0000 1.0000
59.1000 708.0000 1.0000
59.1100 707.0000 1.0000
59.1200 699.0000 1.0000
59.1300 713.0000 1.0000
59.1400 714.0000 1.0000
59.1500 701.0000 1.0000
59.1600 713.0000 1.0000
59.1700 696.0000 1.0000
59.1800 735.0000 1.0000
59.1900 702.0000 1.0000
59.2000 724.0000 1.0000
59.2100 702.0000 1.0000
59.2200 732.0000 1.0000
59.2300 722.0000 1.0000
59.2400 743.0000 1.0000
59.2500 715.0000 1.0000
59.2600 757.0000 1.0000
59.2700 756.0000 1.0000
59.2800 674.0000 1.0000
59.2900 737.0000 1.0000
59.3000 750.0000 1.0000
59.3100 668.0000 1.0000
59.3200 709.0000 1.0000
59.3300 736.0000 1.0000
59.3400 780.0000 1.0000
59.3500 715.0000 1.0000
59.3600 745.0000 1.0000
59.3700 709.0000 1.0000
59.3800 728.0000 1.0000
59.3900 690.0000 1.0000
59.4000 727.0000 1.0000
59.4100 718.0000 1.0000
59.4200 682.0000 1.0000
59.4300 682.0000 1.0000
59.4400 665.0000 1.0000
59.4500 729.0000 1.0000
59.4600 694.0000 1.0000
59.4700 716.0000 1.0000
59.4800 758.0000 1.0000
59.4900 749.0000 1.0000
59.5000 720.0000 1.0000
59.5100 655.0000 1.0000
59.5200 689.0000 1.0000
59.5300 715.0000 1.0000
59.5400 694.0000 1.0000
59.5500 724.0000 1.0000
59.5600 743.0000 1.0000
59.5700 706.0000 1.0000
59.5800 688.0000 1.0000
59.5900 716.0000 1.0000
59.6000 727.0000 1.0000
59.6100 686.0000 1.0000
59.6200 697.0000 1.0000
59.6300 697.0000 1.0000
59.6400 718.0000 1.0000
59.6500 692.0000 1.0000
59.6600 698.0000 1.0000
59.6700 675.0000 1.0000
59.6800 734.0000 1.0000
59.6900 741.0000 1.0000
59.7000 695.0000 1.0000
59.7100 694.0000 1.0000
59.7200 699.0000 1.0000
59.7300 721.0000 1.0000
59.7400 743.0000 1.0000
59.7500 736.0000 1.0000
59.7600 729.0000 1.0000
59.7700 741.0000 1.0000
59.7800 716.0000 1.0000
59.7900 723.0000 1.0000
59.8000 740.0000 1.0000
59.8100 735.0000 1.0000
59.8200 727.0000 1.0000
59.8300 732.0000 1.0000
59.8400 712.0000 1.0000
59.8500 734.0000 1.0000
59.8600 690.0000 1.0000
59.8700 709.0000 1.0000
59.8800 730.0000 1.0000
59.8900 703.0000 1.0000
59.9000 662.0000 1.0000
59.9100 707.0000 1.0000
59.9200 708.0000 1.0000
59.9300 690.0000 1.0000
59.9400 680.0000 1.0000
59.9500 683.0000 1.0000
59.9600 686.0000 1.0000
59.9700 685.0000 1.0000
59.9800 698.0000 1.0000
59.9900 716.0000 1.0000
60.0000 683.0000 1.0000
60.0100 706.0000 1.0000
60.0200 727.0000 1.0000
60.0300 673.0000 1.0000
60.0400 719.0000 1.0000
60.0500 703.0000 1.0000
60.0600 722.0000 1.0000
60.0700 714.0000 1.0000
60.0800 702.0000 1.0000
60.0900 678.0000 1.0000
60.1000 715.0000 1.0000
60.1100 729.0000 1.0000
60.1200 708.0000 1.0000
60.1300 725.0000 1.0000
60.1400 734.0000 1.0000
60.1500 733.0000 1.0000
60.1600 718.0000 1.0000
60.1700 679.0000 1.0000
60.1800 723.0000 1.0000
60.1900 721.0000 1.0000
60.2000 708.0000 1.0000
60.2100 706.0000 1.0000
60.2200 719.0000 1.0000
60.2300 736.0000 1.0000
60.2400 747.0000 1.0000
60.2500 718.0000 1.0000
60.2600 739.0000 1.0000
60.2700 714.0000 1.0000
60.2800 710.0000 1.0000
60.2900 734.0000 1.0000
60.3000 704.0000 1.0000
60.3100 706.0000 1.0000
60.3200 699.0000 1.0000
60.3300 720.0000 1.0000
60.3400 677.0000 1.0000
60.3500 719.0000 1.0000
60.3600 705.0000 1.0000
60.3700 715.0000 1.0000
60.3800 722.0000 1.0000
60.3900 692.0000 1.0000
60.4000 675.0000 1.0000
60.4100 704.0000 1.0000
60.4200 726.0000 1.0000
60.4300 686.0000 1.0000
60.4400 681.0000 1.0000
60.4500 694.0000 1.0000
60.4600 727.0000 1.0000
60.4700 709.0000 1.0000
60.4800 714.0000 1.0000
60.4900 737.0000 1.0000
60.5000 663.0000 1.0000
60.5100 704.0000 1.0000
60.5200 705.0000 1.0000
60.5300 711.0000 1.0000
60.5400 717.0000 1.0000
60.5500 687.0000 1.0000
60.5600 720.0000 1.0000
60.5700 695.0000 1.0000
60.5800 699.0000 1.0000
60.5900 670.0000 1.0000
60.6000 691.0000 1.0000
60.6100 727.0000 1.0000
60.6200 692.0000 1.0000
60.6300 696.0000 1.0000
60.6400 690.0000 1.0000
60.6500 715.0000 1.0000
60.6600 707.0000 1.0000
60.6700 709.0000 1.0000
60.6800 693.0000 1.0000
60.6900 718.0000 1.0000
60.7000 686.0000 1.0000
60.7100 718.0000 1.0000
60.7200 696.0000 1.0000
60.7300 704.0000 1.0000
60.7400 746.0000 1.0000
60.7500 690.0000 1.0000
60.7600 715.0000 1.0000
60.7700 681.0000 1.0000
60.7800 713.0000 1.0000
60.7900 679.0000 1.0000
60.8000 702.0000 1.0000
60.8100 700.0000 1.0000
60.8200 718.0000 1.0000
60.8300 713.0000 1.0000
60.8400 730.0000 1.0000
60.8500 743.0000 1.0000
60.8600 724.0000 1.0000
60.8700 714.0000 1.0000
60.8800 717.0000 1.0000
60.8900 700.0000 1.0000
60.9000 753.0000 1.0000
60.9100 734.0000 1.0000
60.9200 700.0000 1.0000
60.9300 719.0000 1.0000
60.9400 717.0000 1.0000
60.9500 705.0000 1.0000
60.9600 719.0000 1.0000
60.9700 729.0000 1.0000
60.9800 704.0000 1.0000
60.9900 714.0000 1.0000
61.0000 726.0000 1.0000
61.0100 682.0000 1.0000
61.0200 696.0000 1.0000
61.0300 705.0000 1.0000
61.0400 767.0000 1.0000
61.0500 773.0000 1.0000
61.0600 744.0000 1.0000
61.0700 732.0000 1.0000
61.0800 715.0000 1.0000
61.0900 698.0000 1.0000
61.1000 701.0000 1.0000
61.1100 683.0000 1.0000
61.1200 687.0000 1.0000
61.1300 695.0000 1.0000
61.1400 716.0000 1.0000
61.1500 713.0000 1.0000
61.1600 726.0000 1.0000
61.1700 698.0000 1.0000
61.1800 769.0000 1.0000
61.1900 741.0000 1.0000
61.2000 713.0000 1.0000
61.2100 682.0000 1.0000
61.2200 685.0000 1.0000
61.2300 691.0000 1.0000
61.2400 729.0000 1.0000
61.2500 702.0000 1.0000
61.2600 740.0000 1.0000
61.2700 729.0000 1.0000
61.2800 706.0000 1.0000
61.2900 733.0000 1.0000
61.3000 743.0000 1.0000
61.3100 705.0000 1.0000
61.3200 689.0000 1.0000
61.3300 751.0000 1.0000
61.3400 743.0000 1.0000
61.3500 733.0000 1.0000
61.3600 704.0000 1.0000
61.3700 722.0000 1.0000
61.3800 721.0000 1.0000
61.3900 674.0000 1.0000
61.4000 673.0000 1.0000
61.4100 689.0000 1.0000
61.4200 778.0000 1.0000
61.4300 773.0000 1.0000
61.4400 723.0000 1.0000
61.4500 762.0000 1.0000
61.4600 761.0000 1.0000
61.4700 807.0000 1.0000
61.4800 749.0000 1.0000
61.4900 713.0000 1.0000
61.5000 741.0000 1.0000
61.5100 714.0000 1.0000
61.5200 756.0000 1.0000
61.5300 700.0000 1.0000
61.5400 764.0000 1.0000
61.5500 792.0000 1.0000
61.5600 754.0000 1.0000
61.5700 719.0000 1.0000
61.5800 725.0000 1.0000
61.5900 717.0000 1.0000
61.6000 778.0000 1.0000
61.6100 746.0000 1.0000
61.6200 769.0000 1.0000
61.6300 728.0000 1.0000
61.6400 746.0000 1.0000
61.6500 739.0000 1.0000
61.6600 758.0000 1.0000
61.6700 752.0000 1.0000
61.6800 734.0000 1.0000
61.6900 774.0000 1.0000
61.7000 766.0000 1.0000
61.7100 758.0000 1.0000
61.7200 816.0000 1.0000
61.7300 801.0000 1.0000
61.7400 781.0000 1.0000
61.7500 799.0000 1.0000
61.7600 770.0000 1.0000
61.7700 779.0000 1.0000
61.7800 763.0000 1.0000
61.7900 804.0000 1.0000
61.8000 779.0000 1.0000
61.8100 758.0000 1.0000
61.8200 746.0000 1.0000
61.8300 788.0000 1.0000
61.8400 780.0000 1.0000
61.8500 836.0000 1.0000
61.8600 797.0000 1.0000
61.8700 797.0000 1.0000
61.8800 808.0000 1.0000
61.8900 801.0000 1.0000
61.9000 845.0000 1.0000
61.9100 859.0000 1.0000
61.9200 823.0000 1.0000
61.9300 818.0000 1.0000
61.9400 848.0000 1.0000
61.9500 871.0000 1.0000
61.9600 849.0000 1.0000
61.9700 880.0000 1.0000
61.9800 867.0000 1.0000
61.9900 864.0000 1.0000
62.0000 945.0000 1.0000
62.0100 932.0000 1.0000
62.0200 975.0000 1.0000
62.0300 982.0000 1.0000
62.0400 971.0000 1.0000
62.0500 1014.0000 1.0000
62.0600 1038.0000 1.0000
62.0700 1077.0000 1.0000
62.0800 1112.0000 1.0000
62.0900 1122.0000 1.0000
62.1000 1108.0000 1.0000
62.1100 1140.0000 1.0000
62.1200 1229.0000 1.0000
62.1300 1211.0000 1.0000
62.1400 1255.0000 1.0000
62.1500 1312.0000 1.0000
62.1600 1256.0000 1.0000
62.1700 1382.0000 1.0000
62.1800 1406.0000 1.0000
62.1900 1459.0000 1.0000
62.2000 1463.0000 1.0000
62.2100 1519.0000 1.0000
62.2200 1548.0000 1.0000
62.2300 1561.0000 1.0000
62.2400 1640.0000 1.0000
62.2500 1667.0000 1.0000
62.2600 1663.0000 1.0000
62.2700 1689.0000 1.0000
62.2800 1731.0000 1.0000
62.2900 1734.0000 1.0000
62.3000 1722.0000 1.0000
62.3100 1769.0000 1.0000
62.3200 1771.0000 1.0000
62.3300 1802.0000 1.0000
62.3400 1736.0000 1.0000
62.3500 1714.0000 1.0000
62.3600 1747.0000 1.0000
62.3700 1667.0000 1.0000
62.3800 1706.0000 1.0000
62.3900 1705.0000 1.0000
62.4000 1656.0000 1.0000
62.4100 1641.0000 1.0000
62.4200 1640.0000 1.0000
62.4300 1638.0000 1.0000
62.4400 1569.0000 1.0000
62.4500 1530.0000 1.0000
62.4600 1544.0000 1.0000
62.4700 1442.0000 1.0000
62.4800 1477.0000 1.0000
62.4900 1426.0000 1.0000
62.5000 1469.0000 1.0000
62.5100 1394.0000 1.0000
62.5200 1368.0000 1.0000
62.5300 1260.0000 1.0000
62.5400 1332.0000 1.0000
62.5500 1268.0000 1.0000
62.5600 1298.0000 1.0000
62.5700 1198.0000 1.0000
62.5800 1194.0000 1.0000
62.5900 1197.0000 1.0000
62.6000 1117.0000 1.0000
62.6100 1156.0000 1.0000
62.6200 1065.0000 1.0000
62.6300 1137.0000 1.0000
62.6400 1056.0000 1.0000
62.6500 1074.0000 1.0000
62.6600 1001.0000 1.0000
62.6700 1031.0000 1.0000
62.6800 961.0000 1.0000
62.6900 962.0000 1.0000
62.7000 963.0000 1.0000
62.7100 981.0000 1.0000
62.7200 952.0000 1.0000
62.7300 951.0000 1.0000
62.7400 918.0000 1.0000
62.7500 862.0000 1.0000
62.7600 831.0000 1.0000
62.7700 877.0000 1.0000
62.7800 894.0000 1.0000
62.7900 864.0000 1.0000
62.8000 888.0000 1.0000
62.8100 870.0000 1.0000
62.8200 825.0000 1.0000
62.8300 817.0000 1.0000
62.8400 841.0000 1.0000
62.8500 849.0000 1.0000
62.8600 854.0000 1.0000
62.8700 787.0000 1.0000
62.8800 781.0000 1.0000
62.8900 837.0000 1.0000
62.9000 835.0000 1.0000
62.9100 795.0000 1.0000
62.9200 816.0000 1.0000
62.9300 816.0000 1.0000
62.9400 816.0000 1.0000
62.9500 783.0000 1.0000
62.9600 810.0000 1.0000
62.9700 806.0000 1.0000
62.9800 780.0000 1.0000
62.9900 805.0000 1.0000
63.0000 769.0000 1.0000
63.0100 761.0000 1.0000
63.0200 795.0000 1.0000
63.0300 787.0000 1.0000
63.0400 784.0000 1.0000
63.0500 805.0000 1.0000
63.0600 791.0000 1.0000
63.0700 772.0000 1.0000
63.0800 810.0000 1.0000
63.0900 763.0000 1.0000
63.1000 765.0000 1.0000
63.1100 734.0000 1.0000
63.1200 775.0000 1.0000
63.1300 730.0000 1.0000
63.1400 824.0000 1.0000
63.1500 847.0000 1.0000
63.1600 800.0000 1.0000
63.1700 772.0000 1.0000
63.1800 775.0000 1.0000
63.1900 787.0000 1.0000
63.2000 764.0000 1.0000
63.2100 781.0000 1.0000
63.2200 760.0000 1.0000
63.2300 782.0000 1.0000
63.2400 746.0000 1.0000
63.2500 746.0000 1.0000
63.2600 733.0000 1.0000
63.2700 784.0000 1.0000
63.2800 779.0000 1.0000
63.2900 745.0000 1.0000
63.3000 773.0000 1.0000
63.3100 753.0000 1.0000
63.3200 789.0000 1.0000
63.3300 783.0000 1.0000
63.3400 791.0000 1.0000
63.3500 742.0000 1.0000
63.3600 748.0000 1.0000
63.3700 727.0000 1.0000
63.3800 754.0000 1.0000
63.3900 747.0000 1.0000
63.4000 751.0000 1.0000
63.4100 737.0000 1.0000
63.4200 732.0000 1.0000
63.4300 725.0000 1.0000
63.4400 773.0000 1.0000
63.4500 761.0000 1.0000
63.4600 727.0000 1.0000
63.4700 732.0000 1.0000
63.4800 738.0000 1.0000
63.4900 713.0000 1.0000
63.5000 748.0000 1.0000
63.5100 749.0000 1.0000
63.5200 726.0000 1.0000
63.5300 689.0000 1.0000
63.5400 699.0000 1.0000
63.5500 722.0000 1.0000
63.5600 744.0000 1.0000
63.5700 726.0000 1.0000
63.5800 739.0000 1.0000
63.5900 719.0000 1.0000
63.6000 771.0000 1.0000
63.6100 732.0000 1.0000
63.6200 711.0000 1.0000
63.6300 707.0000 1.0000
63.6400 734.0000 1.0000
63.6500 749.0000 1.0000
63.6600 688.0000 1.0000
63.6700 712.0000 1.0000
63.6800 733.0000 1.0000
63.6900 740.0000 1.0000
63.7000 745.0000 1.0000
63.7100 704.0000 1.0000
63.7200 757.0000 1.0000
63.7300 682.0000 1.0000
63.7400 644.0000 1.0000
63.7500 755.0000 1.0000
63.7600 703.0000 1.0000
63.7700 700.0000 1.0000
63.7800 679.0000 1.0000
63.7900 701.0000 1.0000
63.8000 710.0000 1.0000
63.8100 716.0000 1.0000
63.8200 713.0000 1.0000
63.8300 696.0000 1.0000
63.8400 717.0000 1.0000
63.8500 707.0000 1.0000
63.8600 714.0000 1.0000
63.8700 694.0000 1.0000
63.8800 764.0000 1.0000
63.8900 750.0000 1.0000
63.9000 720.0000 1.0000
63.9100 735.0000 1.0000
63.9200 693.0000 1.0000
63.9300 700.0000 1.0000
63.9400 768.0000 1.0000
63.9500 769.0000 1.0000
63.9600 683.0000 1.0000
63.9700 687.0000 1.0000
63.9800 722.0000 1.0000
63.9900 715.0000 1.0000
64.0000 730.0000 1.0000
64.0100 705.0000 1.0000
64.0200 709.0000 1.0000
64.0300 728.0000 1.0000
64.0400 731.0000 1.0000
64.0500 728.0000 1.0000
64.0600 742.0000 1.0000
64.0700 713.0000 1.0000
64.0800 709.0000 1.0000
64.0900 695.0000 1.0000
64.1000 690.0000 1.0000
64.1100 725.0000 1.0000
64.1200 730.0000 1.0000
64.1300 716.0000 1.0000
64.1400 733.0000 1.0000
64.1500 709.0000 1.0000
64.1600 725.0000 1.0000
64.1700 716.0000 1.0000
64.1800 736.0000 1.0000
64.1900 732.0000 1.0000
64.2000 744.0000 1.0000
64.2100 741.0000 1.0000
64.2200 687.0000 1.0000
64.2300 786.0000 1.0000
64.2400 739.0000 1.0000
64.2500 768.0000 1.0000
64.2600 736.0000 1.0000
64.2700 747.0000 1.0000
64.2800 775.0000 1.0000
64.2900 729.0000 1.0000
64.3000 687.0000 1.0000
64.3100 714.0000 1.0000
64.3200 733.0000 1.0000
64.3300 737.0000 1.0000
64.3400 721.0000 1.0000
64.3500 709.0000 1.0000
64.3600 786.0000 1.0000
64.3700 736.0000 1.0000
64.3800 756.0000 1.0000
64.3900 751.0000 1.0000
64.4000 715.0000 1.0000
64.4100 713.0000 1.0000
64.4200 736.0000 1.0000
64.4300 739.0000 1.0000
64.4400 718.0000 1.0000
64.4500 743.0000 1.0000
64.4600 725.0000 1.0000
64.4700 718.0000 1.0000
64.4800 728.0000 1.0000
64.4900 764.0000 1.0000
64.5000 751.0000 1.0000
64.5100 758.0000 1.0000
64.5200 743.0000 1.0000
64.5300 767.0000 1.0000
64.5400 792.0000 1.0000
64.5500 780.0000 1.0000
64.5600 822.0000 1.0000
64.5700 823.0000 1.0000
64.5800 800.0000 1.0000
64.5900 820.0000 1.0000
64.6000 810.0000 1.0000
64.6100 833.0000 1.0000
64.6200 869.0000 1.0000
64.6300 863.0000 1.0000
64.6400 911.0000 1.0000
64.6500 904.0000 1.0000
64.6600 944.0000 1.0000
64.6700 938.0000 1.0000
64.6800 955.0000 1.0000
64.6900 978.0000 1.0000
64.7000 940.0000 1.0000
64.7100 885.0000 1.0000
64.7200 946.0000 1.0000
64.7300 891.0000 1.0000
64.7400 928.0000 1.0000
64.7500 882.0000 1.0000
64.7600 859.0000 1.0000
64.7700 874.0000 1.0000
64.7800 858.0000 1.0000
64.7900 851.0000 1.0000
64.8000 909.0000 1.0000
64.8100 940.0000 1.0000
64.8200 905.0000 1.0000
64.8300 798.0000 1.0000
64.8400 876.0000 1.0000
64.8500 902.0000 1.0000
64.8600 885.0000 1.0000
64.8700 856.0000 1.0000
64.8800 799.0000 1.0000
64.8900 854.0000 1.0000
64.9000 779.0000 1.0000
64.9100 847.0000 1.0000
64.9200 819.0000 1.0000
64.9300 779.0000 1.0000
64.9400 780.0000 1.0000
64.9500 768.0000 1.0000
64.9600 794.0000 1.0000
64.9700 738.0000 1.0000
64.9800 802.0000 1.0000
64.9900 801.0000 1.0000
65.0000 756.0000 1.0000
65.0100 753.0000 1.0000
65.0200 786.0000 1.0000
65.0300 778.0000 1.0000
65.0400 773.0000 1.0000
65.0500 758.0000 1.0000
65.0600 751.0000 1.0000
65.0700 731.0000 1.0000
65.0800 759.0000 1.0000
65.0900 756.0000 1.0000
65.1000 758.0000 1.0000
65.1100 748.0000 1.0000
65.1200 721.0000 1.0000
65.1300 729.0000 1.0000
65.1400 719.0000 1.0000
65.1500 738.0000 1.0000
65.1600 709.0000 1.0000
65.1700 731.0000 1.0000
65.1800 743.0000 1.0000
65.1900 774.0000 1.0000
65.2000 753.0000 1.0000
65.2100 759.0000 1.0000
65.2200 739.0000 1.0000
65.2300 721.0000 1.0000
65.2400 730.0000 1.0000
65.2500 772.0000 1.0000
65.2600 733.0000 1.0000
65.2700 725.0000 1.0000
65.2800 788.0000 1.0000
65.2900 733.0000 1.0000
65.3000 750.0000 1.0000
65.3100 749.0000 1.0000
65.3200 728.0000 1.0000
65.3300 742.0000 1.0000
65.3400 717.0000 1.0000
65.3500 748.0000 1.0000
65.3600 772.0000 1.0000
65.3700 724.0000 1.0000
65.3800 750.0000 1.0000
65.3900 723.0000 1.0000
65.4000 718.0000 1.0000
65.4100 782.0000 1.0000
65.4200 731.0000 1.0000
65.4300 771.0000 1.0000
65.4400 789.0000 1.0000
65.4500 777.0000 1.0000
65.4600 754.0000 1.0000
65.4700 720.0000 1.0000
65.4800 719.0000 1.0000
65.4900 709.0000 1.0000
65.5000 730.0000 1.0000
65.5100 722.0000 1.0000
65.5200 701.0000 1.0000
65.5300 745.0000 1.0000
65.5400 766.0000 1.0000
65.5500 743.0000 1.0000
65.5600 788.0000 1.0000
65.5700 750.0000 1.0000
65.5800 720.0000 1.0000
65.5900 763.0000 1.0000
65.6000 772.0000 1.0000
65.6100 734.0000 1.0000
65.6200 740.0000 1.0000
65.6300 813.0000 1.0000
65.6400 806.0000 1.0000
65.6500 776.0000 1.0000
65.6600 778.0000 1.0000
65.6700 769.0000 1.0000
65.6800 730.0000 1.0000
65.6900 769.0000 1.0000
65.7000 778.0000 1.0000
65.7100 788.0000 1.0000
65.7200 758.0000 1.0000
65.7300 817.0000 1.0000
65.7400 791.0000 1.0000
65.7500 782.0000 1.0000
65.7600 788.0000 1.0000
65.7700 774.0000 1.0000
65.7800 844.0000 1.0000
65.7900 808.0000 1.0000
65.8000 814.0000 1.0000
65.8100 822.0000 1.0000
65.8200 815.0000 1.0000
65.8300 839.0000 1.0000
65.8400 872.0000 1.0000
65.8500 891.0000 1.0000
65.8600 902.0000 1.0000
65.8700 896.0000 1.0000
65.8800 905.0000 1.0000
65.8900 916.0000 1.0000
65.9000 922.0000 1.0000
65.9100 967.0000 1.0000
65.9200 939.0000 1.0000
65.9300 982.0000 1.0000
65.9400 984.0000 1.0000
65.9500 1006.0000 1.0000
65.9600 967.0000 1.0000
65.9700 1012.0000 1.0000
65.9800 1052.0000 1.0000
65.9900 1073.0000 1.0000
66.0000 1027.0000 1.0000
66.0100 1112.0000 1.0000
66.0200 1128.0000 1.0000
66.0300 1212.0000 1.0000
66.0400 1213.0000 1.0000
66.0500 1298.0000 1.0000
66.0600 1258.0000 1.0000
66.0700 1399.0000 1.0000
66.0800 1500.0000 1.0000
66.0900 1483.0000 1.0000
66.1000 1514.0000 1.0000
66.1100 1573.0000 1.0000
66.1200 1670.0000 1.0000
66.1300 1792.0000 1.0000
66.1400 1841.0000 1.0000
66.1500 1927.0000 1.0000
66.1600 2053.0000 1.0000
66.1700 2141.0000 1.0000
66.1800 2316.0000 1.0000
66.1900 2427.0000 1.0000
66.2000 2519.0000 1.0000
66.2100 2665.0000 1.0000
66.2200 2702.0000 1.0000
66.2300 2916.0000 1.0000
66.2400 2930.0000 1.0000
66.2500 2962.0000 1.0000
66.2600 2842.0000 1.0000
66.2700 2967.0000 1.0000
66.2800 2891.0000 1.0000
66.2900 2895.0000 1.0000
66.3000 2862.0000 1.0000
66.3100 2737.0000 1.0000
66.3200 2773.0000 1.0000
66.3300 2626.0000 1.0000
66.3400 2593.0000 1.0000
66.3500 2625.0000 1.0000
66.3600 2589.0000 1.0000
66.3700 2615.0000 1.0000
66.3800 2454.0000 1.0000
66.3900 2448.0000 1.0000
66.4000 2383.0000 1.0000
66.4100 2436.0000 1.0000
66.4200 2299.0000 1.0000
66.4300 2336.0000 1.0000
66.4400 2234.0000 1.0000
66.4500 2200.0000 1.0000
66.4600 2172.0000 1.0000
66.4700 2104.0000 1.0000
66.4800 2048.0000 1.0000
66.4900 1933.0000 1.0000
66.5000 1896.0000 1.0000
66.5100 1762.0000 1.0000
66.5200 1717.0000 1.0000
66.5300 1684.0000 1.0000
66.5400 1586.0000 1.0000
66.5500 1527.0000 1.0000
66.5600 1504.0000 1.0000
66.5700 1440.0000 1.0000
66.5800 1390.0000 1.0000
66.5900 1308.0000 1.0000
66.6000 1279.0000 1.0000
66.6100 1211.0000 1.0000
66.6200 1176.0000 1.0000
66.6300 1145.0000 1.0000
66.6400 1136.0000 1.0000
66.6500 1130.0000 1.0000
66.6600 1088.0000 1.0000
66.6700 1059.0000 1.0000
66.6800 1038.0000 1.0000
66.6900 975.0000 1.0000
66.7000 1001.0000 1.0000
66.7100 1008.0000 1.0000
66.7200 952.0000 1.0000
66.7300 955.0000 1.0000
66.7400 914.0000 1.0000
66.7500 939.0000 1.0000
66.7600 954.0000 1.0000
66.7700 886.0000 1.0000
66.7800 873.0000 1.0000
66.7900 851.0000 1.0000
66.8000 853.0000 1.0000
66.8100 859.0000 1.0000
66.8200 805.0000 1.0000
66.8300 772.0000 1.0000
66.8400 797.0000 1.0000
66.8500 822.0000 1.0000
66.8600 847.0000 1.0000
66.8700 776.0000 1.0000
66.8800 721.0000 1.0000
66.8900 812.0000 1.0000
66.9000 802.0000 1.0000
66.9100 792.0000 1.0000
66.9200 780.0000 1.0000
66.9300 765.0000 1.0000
66.9400 747.0000 1.0000
66.9500 741.0000 1.0000
66.9600 756.0000 1.0000
66.9700 758.0000 1.0000
66.9800 759.0000 1.0000
66.9900 719.0000 1.0000
67.0000 776.0000 1.0000
67.0100 781.0000 1.0000
67.0200 750.0000 1.0000
67.0300 737.0000 1.0000
67.0400 709.0000 1.0000
67.0500 733.0000 1.0000
67.0600 782.0000 1.0000
67.0700 730.0000 1.0000
67.0800 698.0000 1.0000
67.0900 709.0000 1.0000
67.1000 735.0000 1.0000
67.1100 721.0000 1.0000
67.1200 713.0000 1.0000
67.1300 723.0000 1.0000
67.1400 703.0000 1.0000
67.1500 741.0000 1.0000
67.1600 700.0000 1.0000
67.1700 728.0000 1.0000
67.1800 723.0000 1.0000
67.1900 741.0000 1.0000
67.2000 676.0000 1.0000
67.2100 725.0000 1.0000
67.2200 679.0000 1.0000
67.2300 681.0000 1.0000
67.2400 691.0000 1.0000
67.2500 657.0000 1.0000
67.2600 713.0000 1.0000
67.2700 697.0000 1.0000
67.2800 728.0000 1.0000
67.2900 707.0000 1.0000
67.3000 714.0000 1.0000
67.3100 716.0000 1.0000
67.3200 672.0000 1.0000
67.3300 670.0000 1.0000
67.3400 692.0000 1.0000
67.3500 654.0000 1.0000
67.3600 650.0000 1.0000
67.3700 711.0000 1.0000
67.3800 692.0000 1.0000
67.3900 652.0000 1.0000
67.4000 684.0000 1.0000
67.4100 713.0000 1.0000
67.4200 677.0000 1.0000
67.4300 687.0000 1.0000
67.4400 628.0000 1.0000
67.4500 718.0000 1.0000
67.4600 731.0000 1.0000
67.4700 696.0000 1.0000
67.4800 722.0000 1.0000
67.4900 666.0000 1.0000
67.5000 631.0000 1.0000
67.5100 662.0000 1.0000
67.5200 664.0000 1.0000
67.5300 693.0000 1.0000
67.5400 684.0000 1.0000
67.5500 678.0000 1.0000
67.5600 632.0000 1.0000
67.5700 729.0000 1.0000
67.5800 692.0000 1.0000
67.5900 649.0000 1.0000
67.6000 678.0000 1.0000
67.6100 646.0000 1.0000
67.6200 640.0000 1.0000
67.6300 691.0000 1.0000
67.6400 655.0000 1.0000
67.6500 693.0000 1.0000
67.6600 668.0000 1.0000
67.6700 650.0000 1.0000
67.6800 732.0000 1.0000
67.6900 703.0000 1.0000
67.7000 696.0000 1.0000
67.7100 698.0000 1.0000
67.7200 646.0000 1.0000
67.7300 696.0000 1.0000
67.7400 650.0000 1.0000
67.7500 641.0000 1.0000
67.7600 680.0000 1.0000
67.7700 689.0000 1.0000
67.7800 672.0000 1.0000
67.7900 656.0000 1.0000
67.8000 625.0000 1.0000
67.8100 605.0000 1.0000
67.8200 704.0000 1.0000
67.8300 674.0000 1.0000
67.8400 613.0000 1.0000
67.8500 651.0000 1.0000
67.8600 641.0000 1.0000
67.8700 643.0000 1.0000
67.8800 638.0000 1.0000
67.8900 678.0000 1.0000
67.9000 669.0000 1.0000
67.9100 653.0000 1.0000
67.9200 636.0000 1.0000
67.9300 630.0000 1.0000
67.9400 627.0000 1.0000
67.9500 637.0000 1.0000
67.9600 648.0000 1.0000
67.9700 642.0000 1.0000
67.9800 674.0000 1.0000
67.9900 631.0000 1.0000
68.0000 623.0000 1.0000
68.0100 683.0000 1.0000
68.0200 700.0000 1.0000
68.0300 669.0000 1.0000
68.0400 633.0000 1.0000
68.0500 645.0000 1.0000
68.0600 691.0000 1.0000
68.0700 655.0000 1.0000
68.0800 653.0000 1.0000
68.0900 632.0000 1.0000
68.1000 665.0000 1.0000
68.1100 639.0000 1.0000
68.1200 645.0000 1.0000
68.1300 646.0000 1.0000
68.1400 662.0000 1.0000
68.1500 634.0000 1.0000
68.1600 714.0000 1.0000
68.1700 659.0000 1.0000
68.1800 632.0000 1.0000
68.1900 686.0000 1.0000
68.2000 658.0000 1.0000
68.2100 653.0000 1.0000
68.2200 686.0000 1.0000
68.2300 652.0000 1.0000
68.2400 627.0000 1.0000
68.2500 630.0000 1.0000
68.2600 648.0000 1.0000
68.2700 639.0000 1.0000
68.2800 650.0000 1.0000
68.2900 682.0000 1.0000
68.3000 647.0000 1.0000
68.3100 663.0000 1.0000
68.3200 619.0000 1.0000
68.3300 641.0000 1.0000
68.3400 649.0000 1.0000
68.3500 619.0000 1.0000
68.3600 641.0000 1.0000
68.3700 620.0000 1.0000
68.3800 661.0000 1.0000
68.3900 693.0000 1.0000
68.4000 658.0000 1.0000
68.4100 657.0000 1.0000
68.4200 658.0000 1.0000
68.4300 640.0000 1.0000
68.4400 649.0000 1.0000
68.4500 644.0000 1.0000
68.4600 635.0000 1.0000
68.4700 638.0000 1.0000
68.4800 648.0000 1.0000
68.4900 709.0000 1.0000
68.5000 643.0000 1.0000
68.5100 623.0000 1.0000
68.5200 639.0000 1.0000
68.5300 642.0000 1.0000
68.5400 667.0000 1.0000
68.5500 662.0000 1.0000
68.5600 666.0000 1.0000
68.5700 623.0000 1.0000
68.5800 653.0000 1.0000
68.5900 696.0000 1.0000
68.6000 670.0000 1.0000
68.6100 599.0000 1.0000
68.6200 628.0000 1.0000
68.6300 653.0000 1.0000
68.6400 633.0000 1.0000
68.6500 633.0000 1.0000
68.6600 605.0000 1.0000
68.6700 639.0000 1.0000
68.6800 678.0000 1.0000
68.6900 664.0000 1.0000
68.7000 621.0000 1.0000
68.7100 665.0000 1.0000
68.7200 643.0000 1.0000
68.7300 649.0000 1.0000
68.7400 650.0000 1.0000
68.7500 643.0000 1.0000
68.7600 655.0000 1.0000
68.7700 640.0000 1.0000
68.7800 647.0000 1.0000
68.7900 593.0000 1.0000
68.8000 671.0000 1.0000
68.8100 672.0000 1.0000
68.8200 664.0000 1.0000
68.8300 651.0000 1.0000
68.8400 639.0000 1.0000
68.8500 640.0000 1.0000
68.8600 621.0000 1.0000
68.8700 640.0000 1.0000
68.8800 660.0000 1.0000
68.8900 634.0000 1.0000
68.9000 661.0000 1.0000
68.9100 649.0000 1.0000
68.9200 635.0000 1.0000
68.9300 645.0000 1.0000
68.9400 627.0000 1.0000
68.9500 628.0000 1.0000
68.9600 625.0000 1.0000
68.9700 652.0000 1.0000
68.9800 630.0000 1.0000
68.9900 644.0000 1.0000
69.0000 642.0000 1.0000
69.0100 630.0000 1.0000
69.0200 605.0000 1.0000
69.0300 653.0000 1.0000
69.0400 660.0000 1.0000
69.0500 672.0000 1.0000
69.0600 671.0000 1.0000
69.0700 644.0000 1.0000
69.0800 634.0000 1.0000
69.0900 628.0000 1.0000
69.1000 648.0000 1.0000
69.1100 638.0000 1.0000
69.1200 626.0000 1.0000
69.1300 654.0000 1.0000
69.1400 637.0000 1.0000
69.1500 662.0000 1.0000
69.1600 613.0000 1.0000
69.1700 673.0000 1.0000
69.1800 683.0000 1.0000
69.1900 641.0000 1.0000
69.2000 617.0000 1.0000
69.2100 653.0000 1.0000
69.2200 655.0000 1.0000
69.2300 613.0000 1.0000
69.2400 611.0000 1.0000
69.2500 610.0000 1.0000
69.2600 634.0000 1.0000
69.2700 635.0000 1.0000
69.2800 638.0000 1.0000
69.2900 603.0000 1.0000
69.3000 612.0000 1.0000
69.3100 627.0000 1.0000
69.3200 633.0000 1.0000
69.3300 683.0000 1.0000
69.3400 626.0000 1.0000
69.3500 654.0000 1.0000
69.3600 583.0000 1.0000
69.3700 643.0000 1.0000
69.3800 668.0000 1.0000
69.3900 651.0000 1.0000
69.4000 648.0000 1.0000
69.4100 646.0000 1.0000
69.4200 609.0000 1.0000
69.4300 632.0000 1.0000
69.4400 634.0000 1.0000
69.4500 624.0000 1.0000
69.4600 659.0000 1.0000
69.4700 606.0000 1.0000
69.4800 617.0000 1.0000
69.4900 634.0000 1.0000
69.5000 669.0000 1.0000
69.5100 624.0000 1.0000
69.5200 624.0000 1.0000
69.5300 602.0000 1.0000
69.5400 639.0000 1.0000
69.5500 601.0000 1.0000
69.5600 603.0000 1.0000
69.5700 624.0000 1.0000
69.5800 648.0000 1.0000
69.5900 634.0000 1.0000
69.6000 643.0000 1.0000
69.6100 653.0000 1.0000
69.6200 634.0000 1.0000
69.6300 659.0000 1.0000
69.6400 632.0000 1.0000
69.6500 646.0000 1.0000
69.6600 628.0000 1.0000
69.6700 640.0000 1.0000
69.6800 668.0000 1.0000
69.6900 683.0000 1.0000
69.7000 632.0000 1.0000
69.7100 641.0000 1.0000
69.7200 639.0000 1.0000
69.7300 592.0000 1.0000
69.7400 603.0000 1.0000
69.7500 626.0000 1.0000
69.7600 639.0000 1.0000
69.7700 636.0000 1.0000
69.7800 633.0000 1.0000
69.7900 633.0000 1.0000
69.8000 619.0000 1.0000
69.8100 625.0000 1.0000
69.8200 643.0000 1.0000
69.8300 619.0000 1.0000
69.8400 613.0000 1.0000
69.8500 590.0000 1.0000
69.8600 623.0000 1.0000
69.8700 624.0000 1.0000
69.8800 637.0000 1.0000
69.8900 641.0000 1.0000
69.9000 583.0000 1.0000
69.9100 584.0000 1.0000
69.9200 616.0000 1.0000
69.9300 612.0000 1.0000
69.9400 617.0000 1.0000
69.9500 627.0000 1.0000
69.9600 631.0000 1.0000
69.9700 612.0000 1.0000
69.9800 623.0000 1.0000
69.9900 583.0000 1.0000
70.0000 637.0000 1.0000
*RAS_INT_END
*RAS_TEMPERATURE_START
*RAS_TEMPERATURE_END
*RAS_DATA_END
