*RAS_DATA_START
*RAS_HEADER_START
*DISP_FMT_X "%.2f"
*DISP_FMT_Y "%.0f"
*DISP_FULLSCALE "15180.0000000000"
*DISP_LINE_COLOR "255.0000000000"
*DISP_LINE_STYLE "0.0000000000"
*DISP_LINE_WIDTH "0.2500000000"
*DISP_NOTE "測定データ-4"
*DISP_OFFSET_Y "0.0000000000"
*DISP_PEAKSEARCH_UNIT_Y "cps"
*DISP_RANGE_BOTTOM "0.0000000000"
*DISP_RANGE_LEFT "20.0000000000"
*DISP_RANGE_LOGCUTOFF "0.0100000000"
*DISP_RANGE_RIGHT "70.0000000000"
*DISP_RANGE_TOP "15180.0000000000"
*DISP_SCALE_MODE_Y "0.0000000000"
*DISP_TAB_NAME "2θ/θ"
*DISP_TITLE_Y "強度"
*DISP_UNIT_Y "cps"
*DISP_WINDOW_NAME "MSG_MACROENGINE"
*FILE_COMMENT " "
*FILE_MD5 ""
*FILE_MEMO " "
*FILE_OPERATOR "Administrator"
*FILE_SAMPLE " "
*FILE_TYPE "RAS_RAW"
*FILE_USERGROUP "システムマネージャ"
*FILE_VERSION "1.0000000000"
*HW_ATTACHMENT_ID "ATT0025"
*HW_ATTACHMENT_NAME "標準|Standard"
*HW_COUNTER_ID-0 "CUT0025"
*HW_COUNTER_ID-1 "CUT0020"
*HW_COUNTER_ID-2 "CUT0020"
*HW_COUNTER_ID-3 "CSL0021"
*HW_COUNTER_ID-4 "CMC0021"
*HW_COUNTER_NAME-0 "D/teX Ultra|D/teX Ultra"
*HW_COUNTER_NAME-1 "None|None"
*HW_COUNTER_NAME-2 "None|None"
*HW_COUNTER_NAME-3 "BBM|BBM"
*HW_COUNTER_NAME-4 "検出器モノクロメータ|Detector monochromator"
*HW_COUNTER_SELECT_NAME "D/teX Ultra|D/teX Ultra"
*HW_GONIOMETER_ID "GON0023"
*HW_GONIOMETER_NAME "SmartLab|SmartLab"
*HW_GONIOMETER_RADIUS-0 "90.0"
*HW_GONIOMETER_RADIUS-1 "114.0"
*HW_GONIOMETER_RADIUS-2 "190.0"
*HW_GONIOMETER_RADIUS-3 "300.0"
*HW_GONIOMETER_RADIUS-4 "187.0"
*HW_GONIOMETER_RADIUS-5 "300.0"
*HW_GONIOMETER_RADIUS-6 "113.0"
*HW_GONIOMETER_RADIUS-7 "331.0"
*HW_I_OPT_ID-0 "CBO0021"
*HW_I_OPT_ID-1 "ICR0023"
*HW_I_OPT_ID-2 "ISL0021"
*HW_I_OPT_ID-3 "ISO0021"
*HW_I_OPT_ID-4 "IAD0021"
*HW_I_OPT_ID-5 "IPR0001"
*HW_I_OPT_NAME-0 "CBOユニット|CBO unit"
*HW_I_OPT_NAME-1 "標準入射光学ユニット|Standard incident optical unit"
*HW_I_OPT_NAME-2 "標準入射スリットボックス|Standard incident slit box"
*HW_I_OPT_NAME-3 "入射平行スリット|Incident parallel slit"
*HW_I_OPT_NAME-4 "長手制限スリット|Length limiting slit"
*HW_I_OPT_NAME-5 "None|None"
*HW_R_ATTENUATER_AUTOMODE "0"
*HW_R_OPT_ID-0 "RSS0021"
*HW_R_OPT_ID-1 "RCR0023"
*HW_R_OPT_ID-2 "RSO0021"
*HW_R_OPT_ID-3 "RRS0021"
*HW_R_OPT_ID-4 "ATN0021"
*HW_R_OPT_ID-5 "RFL0021"
*HW_R_OPT_ID-6 "RAD0021"
*HW_R_OPT_NAME-0 "標準受光スリットボックス1|Standard receiving slit box # 1"
*HW_R_OPT_NAME-1 "標準受光光学ユニット1|Standard receiving unit # 1"
*HW_R_OPT_NAME-2 "標準受光光学ユニット2|Standard receiving optical unit # 2"
*HW_R_OPT_NAME-3 "標準受光スリットボックス2|Standard receiving slit box # 2"
*HW_R_OPT_NAME-4 "標準アッテネータ|Standard Attenuator"
*HW_R_OPT_NAME-5 "Cu Kβ|Cu K-beta"
*HW_R_OPT_NAME-6 "調整用受光スリット|Alignment receiving slit"
*HW_SAMPLE_HOLDER_ID "SMP0023"
*HW_SAMPLE_HOLDER_NAME "標準Zステージ|Standard Z stage"
*HW_XG_CURRENT_MAX "50"
*HW_XG_CURRENT_MIN "2"
*HW_XG_CURRENT_RESOLUTION "1"
*HW_XG_CURRENT_UNIT "mA"
*HW_XG_FOCUS "1mm x 10mm"
*HW_XG_FOCUS_TYPE "Normal"
*HW_XG_ID ""
*HW_XG_NAME "3kW 封入管(ID:1200)|3kW Sealed tube(ID:1200)"
*HW_XG_TARGET_ATOMIC_NUMBER "29.0000000000"
*HW_XG_TARGET_NAME "Cu"
*HW_XG_TYPE "Hermetic"
*HW_XG_VOLTAGE_MAX "60"
*HW_XG_VOLTAGE_MIN "20"
*HW_XG_VOLTAGE_RESOLUTION "1"
*HW_XG_VOLTAGE_UNIT "kV"
*HW_XG_WATT_MAX "1.500"
*HW_XG_WATT_UNIT "kW"
*HW_XG_WAVE_LENGTH_ALPHA1 "1.540593"
*HW_XG_WAVE_LENGTH_ALPHA2 "1.544414"
*HW_XG_WAVE_LENGTH_BETA "1.392250"
*MEAS_COND_AXIS_NAME-0 "2θ/θ"
*MEAS_COND_AXIS_NAME-1 "2θ"
*MEAS_COND_AXIS_NAME-2 "ω"
*MEAS_COND_AXIS_NAME-3 "Z"
*MEAS_COND_AXIS_NAME-4 "2θ/ω"
*MEAS_COND_AXIS_NAME-5 "θs"
*MEAS_COND_AXIS_NAME-6 "θd"
*MEAS_COND_AXIS_NAME-7 "Ts"
*MEAS_COND_AXIS_NAME-8 "CBO選択スリット"
*MEAS_COND_AXIS_NAME-9 "M"
*MEAS_COND_AXIS_NAME-10 "入射平行スリット"
*MEAS_COND_AXIS_NAME-11 "入射スリット"
*MEAS_COND_AXIS_NAME-12 ""
*MEAS_COND_AXIS_NAME-13 "Zs"
*MEAS_COND_AXIS_NAME-14 "入射光学素子"
*MEAS_COND_AXIS_NAME-15 "長手制限スリット"
*MEAS_COND_AXIS_NAME-16 "センタースリット"
*MEAS_COND_AXIS_NAME-17 "フィルター"
*MEAS_COND_AXIS_NAME-18 "受光スリット1"
*MEAS_COND_AXIS_NAME-19 "受光スリット2"
*MEAS_COND_AXIS_NAME-20 "受光光学素子"
*MEAS_COND_AXIS_NAME-21 "受光平行スリット"
*MEAS_COND_AXIS_NAME-22 "調整用受光スリット"
*MEAS_COND_AXIS_NAME-23 ""
*MEAS_COND_AXIS_NAME-24 ""
*MEAS_COND_AXIS_NAME-25 "Zd"
*MEAS_COND_AXIS_NAME-26 "アッテネータ"
*MEAS_COND_AXIS_NAME-27 "検出器モノクロメータ"
*MEAS_COND_AXIS_NAME-28 "モノクロメータスリット"
*MEAS_COND_AXIS_NAME-29 "プライマリビーム"
*MEAS_COND_AXIS_NAME-30 "PHA"
*MEAS_COND_AXIS_NAME_INTERNAL-0 "TwoThetaTheta"
*MEAS_COND_AXIS_NAME_INTERNAL-1 "TwoTheta"
*MEAS_COND_AXIS_NAME_INTERNAL-2 "Omega"
*MEAS_COND_AXIS_NAME_INTERNAL-3 "Z"
*MEAS_COND_AXIS_NAME_INTERNAL-4 "TwoThetaOmega"
*MEAS_COND_AXIS_NAME_INTERNAL-5 "ThetaS"
*MEAS_COND_AXIS_NAME_INTERNAL-6 "ThetaD"
*MEAS_COND_AXIS_NAME_INTERNAL-7 "Ts"
*MEAS_COND_AXIS_NAME_INTERNAL-8 "CBO"
*MEAS_COND_AXIS_NAME_INTERNAL-9 "CBO-M"
*MEAS_COND_AXIS_NAME_INTERNAL-10 "IncidentSollerSlit"
*MEAS_COND_AXIS_NAME_INTERNAL-11 "IncidentSlitBox"
*MEAS_COND_AXIS_NAME_INTERNAL-12 "IncidentSlitBox-_Axis"
*MEAS_COND_AXIS_NAME_INTERNAL-13 "Zs"
*MEAS_COND_AXIS_NAME_INTERNAL-14 "IncidentMonochromator"
*MEAS_COND_AXIS_NAME_INTERNAL-15 "IncidentAxdSlit"
*MEAS_COND_AXIS_NAME_INTERNAL-16 "CenterSlit"
*MEAS_COND_AXIS_NAME_INTERNAL-17 "Filter"
*MEAS_COND_AXIS_NAME_INTERNAL-18 "ReceivingSlitBox1"
*MEAS_COND_AXIS_NAME_INTERNAL-19 "ReceivingSlitBox2"
*MEAS_COND_AXIS_NAME_INTERNAL-20 "ReceivingOptics"
*MEAS_COND_AXIS_NAME_INTERNAL-21 "ReceivingSollerSlit"
*MEAS_COND_AXIS_NAME_INTERNAL-22 "ReceivingAxdSlit"
*MEAS_COND_AXIS_NAME_INTERNAL-23 "ReceivingSlitBox1-_Axis"
*MEAS_COND_AXIS_NAME_INTERNAL-24 "ReceivingSlitBox2-_Axis"
*MEAS_COND_AXIS_NAME_INTERNAL-25 "ReceivingSlitBox2-Zd"
*MEAS_COND_AXIS_NAME_INTERNAL-26 "Attenuator"
*MEAS_COND_AXIS_NAME_INTERNAL-27 "CounterMonochromator"
*MEAS_COND_AXIS_NAME_INTERNAL-28 "CounterSlit"
*MEAS_COND_AXIS_NAME_INTERNAL-29 "IncidentPrimary"
*MEAS_COND_AXIS_NAME_INTERNAL-30 "PHA"
*MEAS_COND_AXIS_NAME_MAGICNO-0 "83951616.0000000000"
*MEAS_COND_AXIS_NAME_MAGICNO-1 "268632064.0000000000"
*MEAS_COND_AXIS_NAME_MAGICNO-2 "268500992.0000000000"
*MEAS_COND_AXIS_NAME_MAGICNO-3 "285278208.0000000000"
*MEAS_COND_AXIS_NAME_MAGICNO-4 "83951616.0000000000"
*MEAS_COND_AXIS_NAME_MAGICNO-5 "131072.0000000000"
*MEAS_COND_AXIS_NAME_MAGICNO-6 "131072.0000000000"
*MEAS_COND_AXIS_NAME_MAGICNO-7 "318898176.0000000000"
*MEAS_COND_AXIS_NAME_MAGICNO-8 "20971521.0000000000"
*MEAS_COND_AXIS_NAME_MAGICNO-9 "285343744.0000000000"
*MEAS_COND_AXIS_NAME_MAGICNO-10 "20971521.0000000000"
*MEAS_COND_AXIS_NAME_MAGICNO-11 "22020097.0000000000"
*MEAS_COND_AXIS_NAME_MAGICNO-12 "25165824.0000000000"
*MEAS_COND_AXIS_NAME_MAGICNO-13 "318898176.0000000000"
*MEAS_COND_AXIS_NAME_MAGICNO-14 "1.0000000000"
*MEAS_COND_AXIS_NAME_MAGICNO-15 "20971521.0000000000"
*MEAS_COND_AXIS_NAME_MAGICNO-16 "20971521.0000000000"
*MEAS_COND_AXIS_NAME_MAGICNO-17 "20971521.0000000000"
*MEAS_COND_AXIS_NAME_MAGICNO-18 "23068673.0000000000"
*MEAS_COND_AXIS_NAME_MAGICNO-19 "23068673.0000000000"
*MEAS_COND_AXIS_NAME_MAGICNO-20 "20971521.0000000000"
*MEAS_COND_AXIS_NAME_MAGICNO-21 "20971521.0000000000"
*MEAS_COND_AXIS_NAME_MAGICNO-22 "20971521.0000000000"
*MEAS_COND_AXIS_NAME_MAGICNO-23 "25165824.0000000000"
*MEAS_COND_AXIS_NAME_MAGICNO-24 "25165824.0000000000"
*MEAS_COND_AXIS_NAME_MAGICNO-25 "285343744.0000000000"
*MEAS_COND_AXIS_NAME_MAGICNO-26 "17301505.0000000000"
*MEAS_COND_AXIS_NAME_MAGICNO-27 "20971521.0000000000"
*MEAS_COND_AXIS_NAME_MAGICNO-28 "20971521.0000000000"
*MEAS_COND_AXIS_NAME_MAGICNO-29 "20971521.0000000000"
*MEAS_COND_AXIS_NAME_MAGICNO-30 "0.0000000000"
*MEAS_COND_AXIS_OFFSET-0 "-"
*MEAS_COND_AXIS_OFFSET-1 "-0.0310000000"
*MEAS_COND_AXIS_OFFSET-2 "0.1954000000"
*MEAS_COND_AXIS_OFFSET-3 "-"
*MEAS_COND_AXIS_OFFSET-4 "-"
*MEAS_COND_AXIS_OFFSET-5 "0.1954000000"
*MEAS_COND_AXIS_OFFSET-6 "-0.2264000000"
*MEAS_COND_AXIS_OFFSET-7 "-"
*MEAS_COND_AXIS_OFFSET-8 "-"
*MEAS_COND_AXIS_OFFSET-9 "-"
*MEAS_COND_AXIS_OFFSET-10 "-"
*MEAS_COND_AXIS_OFFSET-11 "-"
*MEAS_COND_AXIS_OFFSET-12 "-"
*MEAS_COND_AXIS_OFFSET-13 "-"
*MEAS_COND_AXIS_OFFSET-14 "-"
*MEAS_COND_AXIS_OFFSET-15 "-"
*MEAS_COND_AXIS_OFFSET-16 "-"
*MEAS_COND_AXIS_OFFSET-17 "-"
*MEAS_COND_AXIS_OFFSET-18 "-"
*MEAS_COND_AXIS_OFFSET-19 "-"
*MEAS_COND_AXIS_OFFSET-20 "-"
*MEAS_COND_AXIS_OFFSET-21 "-"
*MEAS_COND_AXIS_OFFSET-22 "-"
*MEAS_COND_AXIS_OFFSET-23 "-"
*MEAS_COND_AXIS_OFFSET-24 "-"
*MEAS_COND_AXIS_OFFSET-25 "-"
*MEAS_COND_AXIS_OFFSET-26 "-"
*MEAS_COND_AXIS_OFFSET-27 "-"
*MEAS_COND_AXIS_OFFSET-28 "-"
*MEAS_COND_AXIS_OFFSET-29 "-"
*MEAS_COND_AXIS_OFFSET-30 "-"
*MEAS_COND_AXIS_POSITION-0 "0.0000000000"
*MEAS_COND_AXIS_POSITION-1 "0.0000000000"
*MEAS_COND_AXIS_POSITION-2 "0.0000000000"
*MEAS_COND_AXIS_POSITION-3 "-2.9389800000"
*MEAS_COND_AXIS_POSITION-4 "0.0000000000"
*MEAS_COND_AXIS_POSITION-5 "0.0000000000"
*MEAS_COND_AXIS_POSITION-6 "0.0000000000"
*MEAS_COND_AXIS_POSITION-7 "-0.7498700000"
*MEAS_COND_AXIS_POSITION-8 "BB"
*MEAS_COND_AXIS_POSITION-9 "0.0000000000"
*MEAS_COND_AXIS_POSITION-10 "Soller_slit_5.0deg"
*MEAS_COND_AXIS_POSITION-11 "2/3deg"
*MEAS_COND_AXIS_POSITION-12 "2.2088000000"
*MEAS_COND_AXIS_POSITION-13 "-0.6412500000"
*MEAS_COND_AXIS_POSITION-14 "0.0000000000"
*MEAS_COND_AXIS_POSITION-15 "10.0mm"
*MEAS_COND_AXIS_POSITION-16 "None"
*MEAS_COND_AXIS_POSITION-17 "Cu_K-beta"
*MEAS_COND_AXIS_POSITION-18 "13.000mm"
*MEAS_COND_AXIS_POSITION-19 "13.000mm"
*MEAS_COND_AXIS_POSITION-20 "No_unit"
*MEAS_COND_AXIS_POSITION-21 "Soller_slit_5.0deg"
*MEAS_COND_AXIS_POSITION-22 "None"
*MEAS_COND_AXIS_POSITION-23 "13.0000000000"
*MEAS_COND_AXIS_POSITION-24 "13.0000000000"
*MEAS_COND_AXIS_POSITION-25 "0.0281300000"
*MEAS_COND_AXIS_POSITION-26 "Open"
*MEAS_COND_AXIS_POSITION-27 "None"
*MEAS_COND_AXIS_POSITION-28 "None"
*MEAS_COND_AXIS_POSITION-29 "None"
*MEAS_COND_AXIS_POSITION-30 "38.0000000000"
*MEAS_COND_AXIS_UNIT-0 "deg"
*MEAS_COND_AXIS_UNIT-1 "deg"
*MEAS_COND_AXIS_UNIT-2 "deg"
*MEAS_COND_AXIS_UNIT-3 "mm"
*MEAS_COND_AXIS_UNIT-4 "deg"
*MEAS_COND_AXIS_UNIT-5 "deg"
*MEAS_COND_AXIS_UNIT-6 "deg"
*MEAS_COND_AXIS_UNIT-7 "mm"
*MEAS_COND_AXIS_UNIT-8 ""
*MEAS_COND_AXIS_UNIT-9 "pulse"
*MEAS_COND_AXIS_UNIT-10 ""
*MEAS_COND_AXIS_UNIT-11 ""
*MEAS_COND_AXIS_UNIT-12 "mm"
*MEAS_COND_AXIS_UNIT-13 "mm"
*MEAS_COND_AXIS_UNIT-14 ""
*MEAS_COND_AXIS_UNIT-15 ""
*MEAS_COND_AXIS_UNIT-16 ""
*MEAS_COND_AXIS_UNIT-17 ""
*MEAS_COND_AXIS_UNIT-18 ""
*MEAS_COND_AXIS_UNIT-19 ""
*MEAS_COND_AXIS_UNIT-20 ""
*MEAS_COND_AXIS_UNIT-21 ""
*MEAS_COND_AXIS_UNIT-22 ""
*MEAS_COND_AXIS_UNIT-23 "mm"
*MEAS_COND_AXIS_UNIT-24 "mm"
*MEAS_COND_AXIS_UNIT-25 "mm"
*MEAS_COND_AXIS_UNIT-26 ""
*MEAS_COND_AXIS_UNIT-27 ""
*MEAS_COND_AXIS_UNIT-28 ""
*MEAS_COND_AXIS_UNIT-29 ""
*MEAS_COND_AXIS_UNIT-30 "div"
*MEAS_COND_COUNTER_CNTLOSS_CORR "0.0000000000"
*MEAS_COND_COUNTER_PHABASE "38.0000000000"
*MEAS_COND_COUNTER_PHAWINDOW "16.0000000000"
*MEAS_COND_COUNTER_PHA_UNIT "div"
*MEAS_COND_COUNTER_TAUDIFF "30.0000000000"
*MEAS_COND_COUNTER_TAUINT "0.0000000000"
*MEAS_COND_IRRADIATION_MODE "OFF"
*MEAS_COND_IRRADIATION_WIDTH ""
*MEAS_COND_OPT_ATTR "集中法"
*MEAS_COND_OPT_NAME "@集中法"
*MEAS_COND_UNSYMMETRIC_MODE "OFF"
*MEAS_COND_XG_CURRENT "30.0000000000"
*MEAS_COND_XG_VOLTAGE "40.0000000000"
*MEAS_COND_XG_WAVE_TYPE "Ka"
*MEAS_DATA_COUNT "5001.0000000000"
*MEAS_SCAN_AXIS_X "2θ/θ"
*MEAS_SCAN_AXIS_X_INTERNAL "TwoThetaTheta"
*MEAS_SCAN_END_TIME "12/13/22 21:17:36"
*MEAS_SCAN_MODE "CONTINUOUS"
*MEAS_SCAN_MONITOR "0"
*MEAS_SCAN_RESOLUTION_X "0.0002"
*MEAS_SCAN_SPEED "2.5"
*MEAS_SCAN_SPEED_UNIT "deg/min"
*MEAS_SCAN_START "20.0000000000"
*MEAS_SCAN_START_TIME "12/13/22 20:56:12"
*MEAS_SCAN_STEP "0.0100000000"
*MEAS_SCAN_STOP "70.0000000000"
*MEAS_SCAN_UNIT_X "deg"
*MEAS_SCAN_UNIT_Y "counts"
*RAS_HEADER_END
*RAS_INT_START
20.0000 884.0000 1.0000
20.0100 885.0000 1.0000
20.0200 888.0000 1.0000
20.0300 916.0000 1.0000
20.0400 908.0000 1.0000
20.0500 900.0000 1.0000
20.0600 866.0000 1.0000
20.0700 895.0000 1.0000
20.0800 863.0000 1.0000
20.0900 860.0000 1.0000
20.1000 835.0000 1.0000
20.1100 861.0000 1.0000
20.1200 897.0000 1.0000
20.1300 903.0000 1.0000
20.1400 929.0000 1.0000
20.1500 861.0000 1.0000
20.1600 898.0000 1.0000
20.1700 849.0000 1.0000
20.1800 859.0000 1.0000
20.1900 874.0000 1.0000
20.2000 898.0000 1.0000
20.2100 960.0000 1.0000
20.2200 907.0000 1.0000
20.2300 863.0000 1.0000
20.2400 861.0000 1.0000
20.2500 869.0000 1.0000
20.2600 932.0000 1.0000
20.2700 880.0000 1.0000
20.2800 876.0000 1.0000
20.2900 897.0000 1.0000
20.3000 894.0000 1.0000
20.3100 905.0000 1.0000
20.3200 897.0000 1.0000
20.3300 892.0000 1.0000
20.3400 863.0000 1.0000
20.3500 900.0000 1.0000
20.3600 831.0000 1.0000
20.3700 898.0000 1.0000
20.3800 872.0000 1.0000
20.3900 900.0000 1.0000
20.4000 892.0000 1.0000
20.4100 877.0000 1.0000
20.4200 872.0000 1.0000
20.4300 912.0000 1.0000
20.4400 847.0000 1.0000
20.4500 908.0000 1.0000
20.4600 840.0000 1.0000
20.4700 925.0000 1.0000
20.4800 864.0000 1.0000
20.4900 868.0000 1.0000
20.5000 902.0000 1.0000
20.5100 870.0000 1.0000
20.5200 870.0000 1.0000
20.5300 908.0000 1.0000
20.5400 898.0000 1.0000
20.5500 884.0000 1.0000
20.5600 866.0000 1.0000
20.5700 896.0000 1.0000
20.5800 906.0000 1.0000
20.5900 911.0000 1.0000
20.6000 899.0000 1.0000
20.6100 915.0000 1.0000
20.6200 916.0000 1.0000
20.6300 930.0000 1.0000
20.6400 853.0000 1.0000
20.6500 857.0000 1.0000
20.6600 861.0000 1.0000
20.6700 824.0000 1.0000
20.6800 875.0000 1.0000
20.6900 843.0000 1.0000
20.7000 871.0000 1.0000
20.7100 895.0000 1.0000
20.7200 935.0000 1.0000
20.7300 844.0000 1.0000
20.7400 908.0000 1.0000
20.7500 921.0000 1.0000
20.7600 832.0000 1.0000
20.7700 826.0000 1.0000
20.7800 879.0000 1.0000
20.7900 902.0000 1.0000
20.8000 909.0000 1.0000
20.8100 860.0000 1.0000
20.8200 881.0000 1.0000
20.8300 871.0000 1.0000
20.8400 934.0000 1.0000
20.8500 848.0000 1.0000
20.8600 898.0000 1.0000
20.8700 877.0000 1.0000
20.8800 885.0000 1.0000
20.8900 909.0000 1.0000
20.9000 916.0000 1.0000
20.9100 900.0000 1.0000
20.9200 834.0000 1.0000
20.9300 912.0000 1.0000
20.9400 859.0000 1.0000
20.9500 824.0000 1.0000
20.9600 866.0000 1.0000
20.9700 867.0000 1.0000
20.9800 899.0000 1.0000
20.9900 828.0000 1.0000
21.0000 879.0000 1.0000
21.0100 823.0000 1.0000
21.0200 882.0000 1.0000
21.0300 933.0000 1.0000
21.0400 897.0000 1.0000
21.0500 911.0000 1.0000
21.0600 897.0000 1.0000
21.0700 832.0000 1.0000
21.0800 925.0000 1.0000
21.0900 900.0000 1.0000
21.1000 850.0000 1.0000
21.1100 877.0000 1.0000
21.1200 903.0000 1.0000
21.1300 867.0000 1.0000
21.1400 911.0000 1.0000
21.1500 887.0000 1.0000
21.1600 813.0000 1.0000
21.1700 837.0000 1.0000
21.1800 885.0000 1.0000
21.1900 873.0000 1.0000
21.2000 904.0000 1.0000
21.2100 902.0000 1.0000
21.2200 894.0000 1.0000
21.2300 867.0000 1.0000
21.2400 964.0000 1.0000
21.2500 861.0000 1.0000
21.2600 866.0000 1.0000
21.2700 900.0000 1.0000
21.2800 882.0000 1.0000
21.2900 881.0000 1.0000
21.3000 902.0000 1.0000
21.3100 862.0000 1.0000
21.3200 890.0000 1.0000
21.3300 901.0000 1.0000
21.3400 847.0000 1.0000
21.3500 846.0000 1.0000
21.3600 828.0000 1.0000
21.3700 885.0000 1.0000
21.3800 797.0000 1.0000
21.3900 848.0000 1.0000
21.4000 848.0000 1.0000
21.4100 906.0000 1.0000
21.4200 919.0000 1.0000
21.4300 893.0000 1.0000
21.4400 889.0000 1.0000
21.4500 902.0000 1.0000
21.4600 849.0000 1.0000
21.4700 892.0000 1.0000
21.4800 848.0000 1.0000
21.4900 831.0000 1.0000
21.5000 872.0000 1.0000
21.5100 882.0000 1.0000
21.5200 866.0000 1.0000
21.5300 889.0000 1.0000
21.5400 916.0000 1.0000
21.5500 880.0000 1.0000
21.5600 919.0000 1.0000
21.5700 945.0000 1.0000
21.5800 924.0000 1.0000
21.5900 870.0000 1.0000
21.6000 859.0000 1.0000
21.6100 882.0000 1.0000
21.6200 871.0000 1.0000
21.6300 843.0000 1.0000
21.6400 913.0000 1.0000
21.6500 887.0000 1.0000
21.6600 878.0000 1.0000
21.6700 856.0000 1.0000
21.6800 848.0000 1.0000
21.6900 879.0000 1.0000
21.7000 821.0000 1.0000
21.7100 887.0000 1.0000
21.7200 858.0000 1.0000
21.7300 863.0000 1.0000
21.7400 863.0000 1.0000
21.7500 919.0000 1.0000
21.7600 890.0000 1.0000
21.7700 897.0000 1.0000
21.7800 863.0000 1.0000
21.7900 888.0000 1.0000
21.8000 881.0000 1.0000
21.8100 848.0000 1.0000
21.8200 904.0000 1.0000
21.8300 905.0000 1.0000
21.8400 915.0000 1.0000
21.8500 903.0000 1.0000
21.8600 909.0000 1.0000
21.8700 868.0000 1.0000
21.8800 920.0000 1.0000
21.8900 884.0000 1.0000
21.9000 891.0000 1.0000
21.9100 859.0000 1.0000
21.9200 927.0000 1.0000
21.9300 866.0000 1.0000
21.9400 848.0000 1.0000
21.9500 867.0000 1.0000
21.9600 860.0000 1.0000
21.9700 923.0000 1.0000
21.9800 886.0000 1.0000
21.9900 848.0000 1.0000
22.0000 905.0000 1.0000
22.0100 897.0000 1.0000
22.0200 850.0000 1.0000
22.0300 869.0000 1.0000
22.0400 884.0000 1.0000
22.0500 855.0000 1.0000
22.0600 865.0000 1.0000
22.0700 883.0000 1.0000
22.0800 868.0000 1.0000
22.0900 844.0000 1.0000
22.1000 856.0000 1.0000
22.1100 868.0000 1.0000
22.1200 862.0000 1.0000
22.1300 865.0000 1.0000
22.1400 881.0000 1.0000
22.1500 854.0000 1.0000
22.1600 865.0000 1.0000
22.1700 863.0000 1.0000
22.1800 881.0000 1.0000
22.1900 852.0000 1.0000
22.2000 919.0000 1.0000
22.2100 896.0000 1.0000
22.2200 862.0000 1.0000
22.2300 869.0000 1.0000
22.2400 888.0000 1.0000
22.2500 898.0000 1.0000
22.2600 873.0000 1.0000
22.2700 889.0000 1.0000
22.2800 873.0000 1.0000
22.2900 896.0000 1.0000
22.3000 859.0000 1.0000
22.3100 881.0000 1.0000
22.3200 869.0000 1.0000
22.3300 884.0000 1.0000
22.3400 840.0000 1.0000
22.3500 848.0000 1.0000
22.3600 869.0000 1.0000
22.3700 869.0000 1.0000
22.3800 904.0000 1.0000
22.3900 867.0000 1.0000
22.4000 844.0000 1.0000
22.4100 873.0000 1.0000
22.4200 907.0000 1.0000
22.4300 850.0000 1.0000
22.4400 893.0000 1.0000
22.4500 906.0000 1.0000
22.4600 884.0000 1.0000
22.4700 910.0000 1.0000
22.4800 891.0000 1.0000
22.4900 851.0000 1.0000
22.5000 865.0000 1.0000
22.5100 818.0000 1.0000
22.5200 858.0000 1.0000
22.5300 853.0000 1.0000
22.5400 844.0000 1.0000
22.5500 808.0000 1.0000
22.5600 875.0000 1.0000
22.5700 899.0000 1.0000
22.5800 901.0000 1.0000
22.5900 912.0000 1.0000
22.6000 844.0000 1.0000
22.6100 873.0000 1.0000
22.6200 857.0000 1.0000
22.6300 891.0000 1.0000
22.6400 885.0000 1.0000
22.6500 882.0000 1.0000
22.6600 864.0000 1.0000
22.6700 865.0000 1.0000
22.6800 852.0000 1.0000
22.6900 827.0000 1.0000
22.7000 831.0000 1.0000
22.7100 864.0000 1.0000
22.7200 862.0000 1.0000
22.7300 864.0000 1.0000
22.7400 887.0000 1.0000
22.7500 816.0000 1.0000
22.7600 799.0000 1.0000
22.7700 894.0000 1.0000
22.7800 899.0000 1.0000
22.7900 857.0000 1.0000
22.8000 842.0000 1.0000
22.8100 857.0000 1.0000
22.8200 921.0000 1.0000
22.8300 865.0000 1.0000
22.8400 883.0000 1.0000
22.8500 819.0000 1.0000
22.8600 816.0000 1.0000
22.8700 852.0000 1.0000
22.8800 856.0000 1.0000
22.8900 907.0000 1.0000
22.9000 808.0000 1.0000
22.9100 852.0000 1.0000
22.9200 854.0000 1.0000
22.9300 863.0000 1.0000
22.9400 893.0000 1.0000
22.9500 870.0000 1.0000
22.9600 846.0000 1.0000
22.9700 858.0000 1.0000
22.9800 899.0000 1.0000
22.9900 911.0000 1.0000
23.0000 859.0000 1.0000
23.0100 911.0000 1.0000
23.0200 875.0000 1.0000
23.0300 878.0000 1.0000
23.0400 900.0000 1.0000
23.0500 878.0000 1.0000
23.0600 842.0000 1.0000
23.0700 842.0000 1.0000
23.0800 878.0000 1.0000
23.0900 834.0000 1.0000
23.1000 805.0000 1.0000
23.1100 845.0000 1.0000
23.1200 874.0000 1.0000
23.1300 848.0000 1.0000
23.1400 895.0000 1.0000
23.1500 865.0000 1.0000
23.1600 849.0000 1.0000
23.1700 877.0000 1.0000
23.1800 857.0000 1.0000
23.1900 845.0000 1.0000
23.2000 868.0000 1.0000
23.2100 876.0000 1.0000
23.2200 816.0000 1.0000
23.2300 843.0000 1.0000
23.2400 857.0000 1.0000
23.2500 872.0000 1.0000
23.2600 876.0000 1.0000
23.2700 873.0000 1.0000
23.2800 817.0000 1.0000
23.2900 841.0000 1.0000
23.3000 872.0000 1.0000
23.3100 825.0000 1.0000
23.3200 842.0000 1.0000
23.3300 863.0000 1.0000
23.3400 860.0000 1.0000
23.3500 859.0000 1.0000
23.3600 875.0000 1.0000
23.3700 833.0000 1.0000
23.3800 890.0000 1.0000
23.3900 799.0000 1.0000
23.4000 803.0000 1.0000
23.4100 863.0000 1.0000
23.4200 880.0000 1.0000
23.4300 814.0000 1.0000
23.4400 835.0000 1.0000
23.4500 833.0000 1.0000
23.4600 812.0000 1.0000
23.4700 825.0000 1.0000
23.4800 839.0000 1.0000
23.4900 825.0000 1.0000
23.5000 842.0000 1.0000
23.5100 856.0000 1.0000
23.5200 827.0000 1.0000
23.5300 827.0000 1.0000
23.5400 828.0000 1.0000
23.5500 839.0000 1.0000
23.5600 831.0000 1.0000
23.5700 824.0000 1.0000
23.5800 868.0000 1.0000
23.5900 814.0000 1.0000
23.6000 833.0000 1.0000
23.6100 821.0000 1.0000
23.6200 826.0000 1.0000
23.6300 875.0000 1.0000
23.6400 850.0000 1.0000
23.6500 836.0000 1.0000
23.6600 790.0000 1.0000
23.6700 834.0000 1.0000
23.6800 872.0000 1.0000
23.6900 859.0000 1.0000
23.7000 822.0000 1.0000
23.7100 825.0000 1.0000
23.7200 835.0000 1.0000
23.7300 880.0000 1.0000
23.7400 840.0000 1.0000
23.7500 851.0000 1.0000
23.7600 852.0000 1.0000
23.7700 909.0000 1.0000
23.7800 885.0000 1.0000
23.7900 883.0000 1.0000
23.8000 889.0000 1.0000
23.8100 875.0000 1.0000
23.8200 820.0000 1.0000
23.8300 828.0000 1.0000
23.8400 876.0000 1.0000
23.8500 890.0000 1.0000
23.8600 873.0000 1.0000
23.8700 824.0000 1.0000
23.8800 855.0000 1.0000
23.8900 902.0000 1.0000
23.9000 854.0000 1.0000
23.9100 868.0000 1.0000
23.9200 863.0000 1.0000
23.9300 820.0000 1.0000
23.9400 871.0000 1.0000
23.9500 883.0000 1.0000
23.9600 889.0000 1.0000
23.9700 881.0000 1.0000
23.9800 900.0000 1.0000
23.9900 878.0000 1.0000
24.0000 901.0000 1.0000
24.0100 862.0000 1.0000
24.0200 881.0000 1.0000
24.0300 853.0000 1.0000
24.0400 856.0000 1.0000
24.0500 881.0000 1.0000
24.0600 861.0000 1.0000
24.0700 885.0000 1.0000
24.0800 909.0000 1.0000
24.0900 889.0000 1.0000
24.1000 858.0000 1.0000
24.1100 909.0000 1.0000
24.1200 961.0000 1.0000
24.1300 890.0000 1.0000
24.1400 888.0000 1.0000
24.1500 913.0000 1.0000
24.1600 869.0000 1.0000
24.1700 812.0000 1.0000
24.1800 898.0000 1.0000
24.1900 872.0000 1.0000
24.2000 865.0000 1.0000
24.2100 907.0000 1.0000
24.2200 849.0000 1.0000
24.2300 852.0000 1.0000
24.2400 915.0000 1.0000
24.2500 881.0000 1.0000
24.2600 863.0000 1.0000
24.2700 810.0000 1.0000
24.2800 886.0000 1.0000
24.2900 831.0000 1.0000
24.3000 852.0000 1.0000
24.3100 863.0000 1.0000
24.3200 895.0000 1.0000
24.3300 862.0000 1.0000
24.3400 846.0000 1.0000
24.3500 801.0000 1.0000
24.3600 892.0000 1.0000
24.3700 857.0000 1.0000
24.3800 874.0000 1.0000
24.3900 835.0000 1.0000
24.4000 760.0000 1.0000
24.4100 866.0000 1.0000
24.4200 848.0000 1.0000
24.4300 872.0000 1.0000
24.4400 856.0000 1.0000
24.4500 793.0000 1.0000
24.4600 836.0000 1.0000
24.4700 862.0000 1.0000
24.4800 828.0000 1.0000
24.4900 804.0000 1.0000
24.5000 823.0000 1.0000
24.5100 787.0000 1.0000
24.5200 822.0000 1.0000
24.5300 856.0000 1.0000
24.5400 916.0000 1.0000
24.5500 849.0000 1.0000
24.5600 837.0000 1.0000
24.5700 847.0000 1.0000
24.5800 868.0000 1.0000
24.5900 788.0000 1.0000
24.6000 874.0000 1.0000
24.6100 806.0000 1.0000
24.6200 798.0000 1.0000
24.6300 837.0000 1.0000
24.6400 846.0000 1.0000
24.6500 850.0000 1.0000
24.6600 790.0000 1.0000
24.6700 848.0000 1.0000
24.6800 811.0000 1.0000
24.6900 833.0000 1.0000
24.7000 812.0000 1.0000
24.7100 806.0000 1.0000
24.7200 803.0000 1.0000
24.7300 786.0000 1.0000
24.7400 802.0000 1.0000
24.7500 846.0000 1.0000
24.7600 819.0000 1.0000
24.7700 836.0000 1.0000
24.7800 857.0000 1.0000
24.7900 834.0000 1.0000
24.8000 803.0000 1.0000
24.8100 793.0000 1.0000
24.8200 822.0000 1.0000
24.8300 808.0000 1.0000
24.8400 826.0000 1.0000
24.8500 816.0000 1.0000
24.8600 788.0000 1.0000
24.8700 874.0000 1.0000
24.8800 851.0000 1.0000
24.8900 817.0000 1.0000
24.9000 833.0000 1.0000
24.9100 833.0000 1.0000
24.9200 827.0000 1.0000
24.9300 864.0000 1.0000
24.9400 831.0000 1.0000
24.9500 836.0000 1.0000
24.9600 843.0000 1.0000
24.9700 775.0000 1.0000
24.9800 826.0000 1.0000
24.9900 848.0000 1.0000
25.0000 827.0000 1.0000
25.0100 822.0000 1.0000
25.0200 799.0000 1.0000
25.0300 829.0000 1.0000
25.0400 836.0000 1.0000
25.0500 801.0000 1.0000
25.0600 824.0000 1.0000
25.0700 834.0000 1.0000
25.0800 838.0000 1.0000
25.0900 863.0000 1.0000
25.1000 867.0000 1.0000
25.1100 817.0000 1.0000
25.1200 775.0000 1.0000
25.1300 829.0000 1.0000
25.1400 856.0000 1.0000
25.1500 796.0000 1.0000
25.1600 789.0000 1.0000
25.1700 831.0000 1.0000
25.1800 884.0000 1.0000
25.1900 839.0000 1.0000
25.2000 767.0000 1.0000
25.2100 792.0000 1.0000
25.2200 779.0000 1.0000
25.2300 850.0000 1.0000
25.2400 844.0000 1.0000
25.2500 826.0000 1.0000
25.2600 807.0000 1.0000
25.2700 846.0000 1.0000
25.2800 804.0000 1.0000
25.2900 779.0000 1.0000
25.3000 788.0000 1.0000
25.3100 796.0000 1.0000
25.3200 784.0000 1.0000
25.3300 833.0000 1.0000
25.3400 819.0000 1.0000
25.3500 839.0000 1.0000
25.3600 813.0000 1.0000
25.3700 842.0000 1.0000
25.3800 849.0000 1.0000
25.3900 833.0000 1.0000
25.4000 794.0000 1.0000
25.4100 808.0000 1.0000
25.4200 877.0000 1.0000
25.4300 792.0000 1.0000
25.4400 818.0000 1.0000
25.4500 832.0000 1.0000
25.4600 813.0000 1.0000
25.4700 798.0000 1.0000
25.4800 830.0000 1.0000
25.4900 842.0000 1.0000
25.5000 859.0000 1.0000
25.5100 841.0000 1.0000
25.5200 809.0000 1.0000
25.5300 837.0000 1.0000
25.5400 819.0000 1.0000
25.5500 830.0000 1.0000
25.5600 819.0000 1.0000
25.5700 830.0000 1.0000
25.5800 795.0000 1.0000
25.5900 831.0000 1.0000
25.6000 842.0000 1.0000
25.6100 817.0000 1.0000
25.6200 827.0000 1.0000
25.6300 860.0000 1.0000
25.6400 841.0000 1.0000
25.6500 883.0000 1.0000
25.6600 819.0000 1.0000
25.6700 866.0000 1.0000
25.6800 832.0000 1.0000
25.6900 863.0000 1.0000
25.7000 844.0000 1.0000
25.7100 814.0000 1.0000
25.7200 825.0000 1.0000
25.7300 827.0000 1.0000
25.7400 806.0000 1.0000
25.7500 833.0000 1.0000
25.7600 842.0000 1.0000
25.7700 841.0000 1.0000
25.7800 852.0000 1.0000
25.7900 863.0000 1.0000
25.8000 838.0000 1.0000
25.8100 862.0000 1.0000
25.8200 904.0000 1.0000
25.8300 824.0000 1.0000
25.8400 795.0000 1.0000
25.8500 868.0000 1.0000
25.8600 836.0000 1.0000
25.8700 829.0000 1.0000
25.8800 851.0000 1.0000
25.8900 883.0000 1.0000
25.9000 869.0000 1.0000
25.9100 858.0000 1.0000
25.9200 837.0000 1.0000
25.9300 842.0000 1.0000
25.9400 857.0000 1.0000
25.9500 887.0000 1.0000
25.9600 912.0000 1.0000
25.9700 905.0000 1.0000
25.9800 843.0000 1.0000
25.9900 882.0000 1.0000
26.0000 951.0000 1.0000
26.0100 886.0000 1.0000
26.0200 878.0000 1.0000
26.0300 896.0000 1.0000
26.0400 938.0000 1.0000
26.0500 915.0000 1.0000
26.0600 890.0000 1.0000
26.0700 945.0000 1.0000
26.0800 963.0000 1.0000
26.0900 937.0000 1.0000
26.1000 958.0000 1.0000
26.1100 957.0000 1.0000
26.1200 987.0000 1.0000
26.1300 993.0000 1.0000
26.1400 1034.0000 1.0000
26.1500 1070.0000 1.0000
26.1600 1044.0000 1.0000
26.1700 1060.0000 1.0000
26.1800 1108.0000 1.0000
26.1900 1121.0000 1.0000
26.2000 1152.0000 1.0000
26.2100 1144.0000 1.0000
26.2200 1182.0000 1.0000
26.2300 1217.0000 1.0000
26.2400 1206.0000 1.0000
26.2500 1240.0000 1.0000
26.2600 1301.0000 1.0000
26.2700 1340.0000 1.0000
26.2800 1486.0000 1.0000
26.2900 1494.0000 1.0000
26.3000 1582.0000 1.0000
26.3100 1595.0000 1.0000
26.3200 1680.0000 1.0000
26.3300 1731.0000 1.0000
26.3400 1886.0000 1.0000
26.3500 1895.0000 1.0000
26.3600 2033.0000 1.0000
26.3700 2128.0000 1.0000
26.3800 2305.0000 1.0000
26.3900 2389.0000 1.0000
26.4000 2567.0000 1.0000
26.4100 2666.0000 1.0000
26.4200 2817.0000 1.0000
26.4300 2927.0000 1.0000
26.4400 3019.0000 1.0000
26.4500 3036.0000 1.0000
26.4600 3022.0000 1.0000
26.4700 3013.0000 1.0000
26.4800 2870.0000 1.0000
26.4900 2809.0000 1.0000
26.5000 2725.0000 1.0000
26.5100 2647.0000 1.0000
26.5200 2570.0000 1.0000
26.5300 2390.0000 1.0000
26.5400 2354.0000 1.0000
26.5500 2122.0000 1.0000
26.5600 2048.0000 1.0000
26.5700 1886.0000 1.0000
26.5800 1848.0000 1.0000
26.5900 1700.0000 1.0000
26.6000 1605.0000 1.0000
26.6100 1559.0000 1.0000
26.6200 1461.0000 1.0000
26.6300 1415.0000 1.0000
26.6400 1418.0000 1.0000
26.6500 1419.0000 1.0000
26.6600 1331.0000 1.0000
26.6700 1232.0000 1.0000
26.6800 1164.0000 1.0000
26.6900 1196.0000 1.0000
26.7000 1172.0000 1.0000
26.7100 1128.0000 1.0000
26.7200 1050.0000 1.0000
26.7300 1092.0000 1.0000
26.7400 1073.0000 1.0000
26.7500 1062.0000 1.0000
26.7600 1066.0000 1.0000
26.7700 1008.0000 1.0000
26.7800 1017.0000 1.0000
26.7900 962.0000 1.0000
26.8000 942.0000 1.0000
26.8100 963.0000 1.0000
26.8200 937.0000 1.0000
26.8300 924.0000 1.0000
26.8400 908.0000 1.0000
26.8500 941.0000 1.0000
26.8600 920.0000 1.0000
26.8700 873.0000 1.0000
26.8800 884.0000 1.0000
26.8900 956.0000 1.0000
26.9000 876.0000 1.0000
26.9100 895.0000 1.0000
26.9200 833.0000 1.0000
26.9300 886.0000 1.0000
26.9400 876.0000 1.0000
26.9500 831.0000 1.0000
26.9600 906.0000 1.0000
26.9700 818.0000 1.0000
26.9800 809.0000 1.0000
26.9900 854.0000 1.0000
27.0000 883.0000 1.0000
27.0100 841.0000 1.0000
27.0200 798.0000 1.0000
27.0300 788.0000 1.0000
27.0400 832.0000 1.0000
27.0500 840.0000 1.0000
27.0600 813.0000 1.0000
27.0700 802.0000 1.0000
27.0800 784.0000 1.0000
27.0900 768.0000 1.0000
27.1000 859.0000 1.0000
27.1100 815.0000 1.0000
27.1200 835.0000 1.0000
27.1300 819.0000 1.0000
27.1400 789.0000 1.0000
27.1500 796.0000 1.0000
27.1600 780.0000 1.0000
27.1700 760.0000 1.0000
27.1800 838.0000 1.0000
27.1900 836.0000 1.0000
27.2000 851.0000 1.0000
27.2100 838.0000 1.0000
27.2200 792.0000 1.0000
27.2300 760.0000 1.0000
27.2400 811.0000 1.0000
27.2500 817.0000 1.0000
27.2600 751.0000 1.0000
27.2700 785.0000 1.0000
27.2800 802.0000 1.0000
27.2900 833.0000 1.0000
27.3000 789.0000 1.0000
27.3100 796.0000 1.0000
27.3200 761.0000 1.0000
27.3300 761.0000 1.0000
27.3400 779.0000 1.0000
27.3500 800.0000 1.0000
27.3600 770.0000 1.0000
27.3700 802.0000 1.0000
27.3800 768.0000 1.0000
27.3900 744.0000 1.0000
27.4000 772.0000 1.0000
27.4100 762.0000 1.0000
27.4200 778.0000 1.0000
27.4300 731.0000 1.0000
27.4400 771.0000 1.0000
27.4500 734.0000 1.0000
27.4600 788.0000 1.0000
27.4700 768.0000 1.0000
27.4800 762.0000 1.0000
27.4900 768.0000 1.0000
27.5000 768.0000 1.0000
27.5100 720.0000 1.0000
27.5200 731.0000 1.0000
27.5300 725.0000 1.0000
27.5400 760.0000 1.0000
27.5500 784.0000 1.0000
27.5600 750.0000 1.0000
27.5700 775.0000 1.0000
27.5800 748.0000 1.0000
27.5900 745.0000 1.0000
27.6000 736.0000 1.0000
27.6100 764.0000 1.0000
27.6200 796.0000 1.0000
27.6300 811.0000 1.0000
27.6400 814.0000 1.0000
27.6500 754.0000 1.0000
27.6600 761.0000 1.0000
27.6700 805.0000 1.0000
27.6800 777.0000 1.0000
27.6900 720.0000 1.0000
27.7000 755.0000 1.0000
27.7100 729.0000 1.0000
27.7200 733.0000 1.0000
27.7300 751.0000 1.0000
27.7400 754.0000 1.0000
27.7500 754.0000 1.0000
27.7600 742.0000 1.0000
27.7700 681.0000 1.0000
27.7800 705.0000 1.0000
27.7900 762.0000 1.0000
27.8000 721.0000 1.0000
27.8100 717.0000 1.0000
27.8200 705.0000 1.0000
27.8300 726.0000 1.0000
27.8400 702.0000 1.0000
27.8500 689.0000 1.0000
27.8600 732.0000 1.0000
27.8700 735.0000 1.0000
27.8800 706.0000 1.0000
27.8900 721.0000 1.0000
27.9000 704.0000 1.0000
27.9100 746.0000 1.0000
27.9200 729.0000 1.0000
27.9300 759.0000 1.0000
27.9400 732.0000 1.0000
27.9500 725.0000 1.0000
27.9600 754.0000 1.0000
27.9700 723.0000 1.0000
27.9800 751.0000 1.0000
27.9900 723.0000 1.0000
28.0000 745.0000 1.0000
28.0100 734.0000 1.0000
28.0200 717.0000 1.0000
28.0300 722.0000 1.0000
28.0400 686.0000 1.0000
28.0500 702.0000 1.0000
28.0600 716.0000 1.0000
28.0700 712.0000 1.0000
28.0800 716.0000 1.0000
28.0900 731.0000 1.0000
28.1000 695.0000 1.0000
28.1100 757.0000 1.0000
28.1200 748.0000 1.0000
28.1300 678.0000 1.0000
28.1400 705.0000 1.0000
28.1500 725.0000 1.0000
28.1600 728.0000 1.0000
28.1700 711.0000 1.0000
28.1800 715.0000 1.0000
28.1900 708.0000 1.0000
28.2000 714.0000 1.0000
28.2100 737.0000 1.0000
28.2200 771.0000 1.0000
28.2300 694.0000 1.0000
28.2400 710.0000 1.0000
28.2500 698.0000 1.0000
28.2600 732.0000 1.0000
28.2700 740.0000 1.0000
28.2800 707.0000 1.0000
28.2900 718.0000 1.0000
28.3000 737.0000 1.0000
28.3100 754.0000 1.0000
28.3200 726.0000 1.0000
28.3300 736.0000 1.0000
28.3400 723.0000 1.0000
28.3500 748.0000 1.0000
28.3600 720.0000 1.0000
28.3700 678.0000 1.0000
28.3800 716.0000 1.0000
28.3900 699.0000 1.0000
28.4000 752.0000 1.0000
28.4100 676.0000 1.0000
28.4200 671.0000 1.0000
28.4300 721.0000 1.0000
28.4400 704.0000 1.0000
28.4500 663.0000 1.0000
28.4600 669.0000 1.0000
28.4700 698.0000 1.0000
28.4800 729.0000 1.0000
28.4900 690.0000 1.0000
28.5000 696.0000 1.0000
28.5100 765.0000 1.0000
28.5200 714.0000 1.0000
28.5300 694.0000 1.0000
28.5400 716.0000 1.0000
28.5500 720.0000 1.0000
28.5600 741.0000 1.0000
28.5700 717.0000 1.0000
28.5800 717.0000 1.0000
28.5900 710.0000 1.0000
28.6000 645.0000 1.0000
28.6100 701.0000 1.0000
28.6200 711.0000 1.0000
28.6300 730.0000 1.0000
28.6400 723.0000 1.0000
28.6500 660.0000 1.0000
28.6600 705.0000 1.0000
28.6700 682.0000 1.0000
28.6800 672.0000 1.0000
28.6900 708.0000 1.0000
28.7000 721.0000 1.0000
28.7100 757.0000 1.0000
28.7200 727.0000 1.0000
28.7300 686.0000 1.0000
28.7400 683.0000 1.0000
28.7500 707.0000 1.0000
28.7600 687.0000 1.0000
28.7700 689.0000 1.0000
28.7800 712.0000 1.0000
28.7900 678.0000 1.0000
28.8000 776.0000 1.0000
28.8100 692.0000 1.0000
28.8200 725.0000 1.0000
28.8300 728.0000 1.0000
28.8400 724.0000 1.0000
28.8500 672.0000 1.0000
28.8600 703.0000 1.0000
28.8700 727.0000 1.0000
28.8800 713.0000 1.0000
28.8900 687.0000 1.0000
28.9000 717.0000 1.0000
28.9100 746.0000 1.0000
28.9200 678.0000 1.0000
28.9300 696.0000 1.0000
28.9400 708.0000 1.0000
28.9500 739.0000 1.0000
28.9600 669.0000 1.0000
28.9700 692.0000 1.0000
28.9800 699.0000 1.0000
28.9900 668.0000 1.0000
29.0000 727.0000 1.0000
29.0100 709.0000 1.0000
29.0200 737.0000 1.0000
29.0300 680.0000 1.0000
29.0400 687.0000 1.0000
29.0500 662.0000 1.0000
29.0600 694.0000 1.0000
29.0700 701.0000 1.0000
29.0800 696.0000 1.0000
29.0900 703.0000 1.0000
29.1000 730.0000 1.0000
29.1100 662.0000 1.0000
29.1200 697.0000 1.0000
29.1300 686.0000 1.0000
29.1400 688.0000 1.0000
29.1500 695.0000 1.0000
29.1600 697.0000 1.0000
29.1700 660.0000 1.0000
29.1800 697.0000 1.0000
29.1900 709.0000 1.0000
29.2000 663.0000 1.0000
29.2100 653.0000 1.0000
29.2200 695.0000 1.0000
29.2300 667.0000 1.0000
29.2400 663.0000 1.0000
29.2500 653.0000 1.0000
29.2600 650.0000 1.0000
29.2700 697.0000 1.0000
29.2800 672.0000 1.0000
29.2900 676.0000 1.0000
29.3000 690.0000 1.0000
29.3100 703.0000 1.0000
29.3200 711.0000 1.0000
29.3300 695.0000 1.0000
29.3400 713.0000 1.0000
29.3500 671.0000 1.0000
29.3600 665.0000 1.0000
29.3700 688.0000 1.0000
29.3800 660.0000 1.0000
29.3900 702.0000 1.0000
29.4000 688.0000 1.0000
29.4100 685.0000 1.0000
29.4200 718.0000 1.0000
29.4300 664.0000 1.0000
29.4400 695.0000 1.0000
29.4500 732.0000 1.0000
29.4600 696.0000 1.0000
29.4700 681.0000 1.0000
29.4800 684.0000 1.0000
29.4900 710.0000 1.0000
29.5000 696.0000 1.0000
29.5100 703.0000 1.0000
29.5200 696.0000 1.0000
29.5300 661.0000 1.0000
29.5400 690.0000 1.0000
29.5500 637.0000 1.0000
29.5600 651.0000 1.0000
29.5700 674.0000 1.0000
29.5800 630.0000 1.0000
29.5900 708.0000 1.0000
29.6000 687.0000 1.0000
29.6100 651.0000 1.0000
29.6200 687.0000 1.0000
29.6300 699.0000 1.0000
29.6400 687.0000 1.0000
29.6500 637.0000 1.0000
29.6600 693.0000 1.0000
29.6700 663.0000 1.0000
29.6800 661.0000 1.0000
29.6900 691.0000 1.0000
29.7000 650.0000 1.0000
29.7100 614.0000 1.0000
29.7200 628.0000 1.0000
29.7300 659.0000 1.0000
29.7400 664.0000 1.0000
29.7500 663.0000 1.0000
29.7600 695.0000 1.0000
29.7700 651.0000 1.0000
29.7800 631.0000 1.0000
29.7900 646.0000 1.0000
29.8000 652.0000 1.0000
29.8100 674.0000 1.0000
29.8200 651.0000 1.0000
29.8300 617.0000 1.0000
29.8400 663.0000 1.0000
29.8500 670.0000 1.0000
29.8600 688.0000 1.0000
29.8700 616.0000 1.0000
29.8800 661.0000 1.0000
29.8900 684.0000 1.0000
29.9000 669.0000 1.0000
29.9100 659.0000 1.0000
29.9200 645.0000 1.0000
29.9300 664.0000 1.0000
29.9400 644.0000 1.0000
29.9500 622.0000 1.0000
29.9600 635.0000 1.0000
29.9700 674.0000 1.0000
29.9800 629.0000 1.0000
29.9900 652.0000 1.0000
30.0000 673.0000 1.0000
30.0100 654.0000 1.0000
30.0200 660.0000 1.0000
30.0300 633.0000 1.0000
30.0400 658.0000 1.0000
30.0500 666.0000 1.0000
30.0600 666.0000 1.0000
30.0700 671.0000 1.0000
30.0800 658.0000 1.0000
30.0900 668.0000 1.0000
30.1000 662.0000 1.0000
30.1100 686.0000 1.0000
30.1200 672.0000 1.0000
30.1300 654.0000 1.0000
30.1400 654.0000 1.0000
30.1500 688.0000 1.0000
30.1600 682.0000 1.0000
30.1700 623.0000 1.0000
30.1800 629.0000 1.0000
30.1900 639.0000 1.0000
30.2000 628.0000 1.0000
30.2100 651.0000 1.0000
30.2200 633.0000 1.0000
30.2300 704.0000 1.0000
30.2400 663.0000 1.0000
30.2500 635.0000 1.0000
30.2600 649.0000 1.0000
30.2700 616.0000 1.0000
30.2800 692.0000 1.0000
30.2900 648.0000 1.0000
30.3000 713.0000 1.0000
30.3100 648.0000 1.0000
30.3200 677.0000 1.0000
30.3300 641.0000 1.0000
30.3400 659.0000 1.0000
30.3500 634.0000 1.0000
30.3600 659.0000 1.0000
30.3700 675.0000 1.0000
30.3800 633.0000 1.0000
30.3900 670.0000 1.0000
30.4000 656.0000 1.0000
30.4100 638.0000 1.0000
30.4200 674.0000 1.0000
30.4300 634.0000 1.0000
30.4400 639.0000 1.0000
30.4500 661.0000 1.0000
30.4600 661.0000 1.0000
30.4700 680.0000 1.0000
30.4800 654.0000 1.0000
30.4900 624.0000 1.0000
30.5000 683.0000 1.0000
30.5100 622.0000 1.0000
30.5200 614.0000 1.0000
30.5300 661.0000 1.0000
30.5400 647.0000 1.0000
30.5500 637.0000 1.0000
30.5600 644.0000 1.0000
30.5700 632.0000 1.0000
30.5800 628.0000 1.0000
30.5900 665.0000 1.0000
30.6000 634.0000 1.0000
30.6100 653.0000 1.0000
30.6200 658.0000 1.0000
30.6300 679.0000 1.0000
30.6400 686.0000 1.0000
30.6500 621.0000 1.0000
30.6600 639.0000 1.0000
30.6700 638.0000 1.0000
30.6800 649.0000 1.0000
30.6900 662.0000 1.0000
30.7000 655.0000 1.0000
30.7100 630.0000 1.0000
30.7200 639.0000 1.0000
30.7300 635.0000 1.0000
30.7400 657.0000 1.0000
30.7500 661.0000 1.0000
30.7600 667.0000 1.0000
30.7700 619.0000 1.0000
30.7800 596.0000 1.0000
30.7900 620.0000 1.0000
30.8000 626.0000 1.0000
30.8100 633.0000 1.0000
30.8200 620.0000 1.0000
30.8300 616.0000 1.0000
30.8400 656.0000 1.0000
30.8500 638.0000 1.0000
30.8600 641.0000 1.0000
30.8700 615.0000 1.0000
30.8800 630.0000 1.0000
30.8900 629.0000 1.0000
30.9000 651.0000 1.0000
30.9100 599.0000 1.0000
30.9200 609.0000 1.0000
30.9300 625.0000 1.0000
30.9400 655.0000 1.0000
30.9500 625.0000 1.0000
30.9600 630.0000 1.0000
30.9700 611.0000 1.0000
30.9800 625.0000 1.0000
30.9900 625.0000 1.0000
31.0000 645.0000 1.0000
31.0100 622.0000 1.0000
31.0200 678.0000 1.0000
31.0300 623.0000 1.0000
31.0400 645.0000 1.0000
31.0500 678.0000 1.0000
31.0600 672.0000 1.0000
31.0700 640.0000 1.0000
31.0800 645.0000 1.0000
31.0900 669.0000 1.0000
31.1000 639.0000 1.0000
31.1100 672.0000 1.0000
31.1200 601.0000 1.0000
31.1300 638.0000 1.0000
31.1400 642.0000 1.0000
31.1500 645.0000 1.0000
31.1600 680.0000 1.0000
31.1700 639.0000 1.0000
31.1800 646.0000 1.0000
31.1900 640.0000 1.0000
31.2000 691.0000 1.0000
31.2100 665.0000 1.0000
31.2200 621.0000 1.0000
31.2300 611.0000 1.0000
31.2400 650.0000 1.0000
31.2500 654.0000 1.0000
31.2600 635.0000 1.0000
31.2700 639.0000 1.0000
31.2800 675.0000 1.0000
31.2900 634.0000 1.0000
31.3000 641.0000 1.0000
31.3100 601.0000 1.0000
31.3200 611.0000 1.0000
31.3300 612.0000 1.0000
31.3400 633.0000 1.0000
31.3500 631.0000 1.0000
31.3600 615.0000 1.0000
31.3700 611.0000 1.0000
31.3800 637.0000 1.0000
31.3900 624.0000 1.0000
31.4000 661.0000 1.0000
31.4100 655.0000 1.0000
31.4200 602.0000 1.0000
31.4300 611.0000 1.0000
31.4400 695.0000 1.0000
31.4500 634.0000 1.0000
31.4600 640.0000 1.0000
31.4700 637.0000 1.0000
31.4800 646.0000 1.0000
31.4900 648.0000 1.0000
31.5000 580.0000 1.0000
31.5100 604.0000 1.0000
31.5200 630.0000 1.0000
31.5300 605.0000 1.0000
31.5400 632.0000 1.0000
31.5500 622.0000 1.0000
31.5600 578.0000 1.0000
31.5700 602.0000 1.0000
31.5800 653.0000 1.0000
31.5900 611.0000 1.0000
31.6000 606.0000 1.0000
31.6100 636.0000 1.0000
31.6200 655.0000 1.0000
31.6300 672.0000 1.0000
31.6400 612.0000 1.0000
31.6500 601.0000 1.0000
31.6600 596.0000 1.0000
31.6700 637.0000 1.0000
31.6800 628.0000 1.0000
31.6900 662.0000 1.0000
31.7000 598.0000 1.0000
31.7100 604.0000 1.0000
31.7200 602.0000 1.0000
31.7300 621.0000 1.0000
31.7400 608.0000 1.0000
31.7500 621.0000 1.0000
31.7600 628.0000 1.0000
31.7700 625.0000 1.0000
31.7800 586.0000 1.0000
31.7900 656.0000 1.0000
31.8000 616.0000 1.0000
31.8100 591.0000 1.0000
31.8200 630.0000 1.0000
31.8300 583.0000 1.0000
31.8400 637.0000 1.0000
31.8500 621.0000 1.0000
31.8600 632.0000 1.0000
31.8700 648.0000 1.0000
31.8800 619.0000 1.0000
31.8900 633.0000 1.0000
31.9000 598.0000 1.0000
31.9100 653.0000 1.0000
31.9200 594.0000 1.0000
31.9300 601.0000 1.0000
31.9400 608.0000 1.0000
31.9500 638.0000 1.0000
31.9600 606.0000 1.0000
31.9700 599.0000 1.0000
31.9800 605.0000 1.0000
31.9900 595.0000 1.0000
32.0000 602.0000 1.0000
32.0100 610.0000 1.0000
32.0200 591.0000 1.0000
32.0300 602.0000 1.0000
32.0400 613.0000 1.0000
32.0500 641.0000 1.0000
32.0600 625.0000 1.0000
32.0700 595.0000 1.0000
32.0800 602.0000 1.0000
32.0900 650.0000 1.0000
32.1000 596.0000 1.0000
32.1100 567.0000 1.0000
32.1200 554.0000 1.0000
32.1300 598.0000 1.0000
32.1400 589.0000 1.0000
32.1500 630.0000 1.0000
32.1600 647.0000 1.0000
32.1700 630.0000 1.0000
32.1800 629.0000 1.0000
32.1900 590.0000 1.0000
32.2000 615.0000 1.0000
32.2100 606.0000 1.0000
32.2200 581.0000 1.0000
32.2300 574.0000 1.0000
32.2400 588.0000 1.0000
32.2500 605.0000 1.0000
32.2600 576.0000 1.0000
32.2700 598.0000 1.0000
32.2800 605.0000 1.0000
32.2900 584.0000 1.0000
32.3000 608.0000 1.0000
32.3100 579.0000 1.0000
32.3200 625.0000 1.0000
32.3300 585.0000 1.0000
32.3400 615.0000 1.0000
32.3500 582.0000 1.0000
32.3600 570.0000 1.0000
32.3700 591.0000 1.0000
32.3800 604.0000 1.0000
32.3900 587.0000 1.0000
32.4000 645.0000 1.0000
32.4100 603.0000 1.0000
32.4200 598.0000 1.0000
32.4300 567.0000 1.0000
32.4400 586.0000 1.0000
32.4500 581.0000 1.0000
32.4600 580.0000 1.0000
32.4700 596.0000 1.0000
32.4800 601.0000 1.0000
32.4900 612.0000 1.0000
32.5000 604.0000 1.0000
32.5100 612.0000 1.0000
32.5200 631.0000 1.0000
32.5300 640.0000 1.0000
32.5400 587.0000 1.0000
32.5500 623.0000 1.0000
32.5600 560.0000 1.0000
32.5700 567.0000 1.0000
32.5800 562.0000 1.0000
32.5900 610.0000 1.0000
32.6000 616.0000 1.0000
32.6100 579.0000 1.0000
32.6200 628.0000 1.0000
32.6300 603.0000 1.0000
32.6400 597.0000 1.0000
32.6500 592.0000 1.0000
32.6600 592.0000 1.0000
32.6700 574.0000 1.0000
32.6800 569.0000 1.0000
32.6900 587.0000 1.0000
32.7000 587.0000 1.0000
32.7100 633.0000 1.0000
32.7200 577.0000 1.0000
32.7300 589.0000 1.0000
32.7400 628.0000 1.0000
32.7500 610.0000 1.0000
32.7600 609.0000 1.0000
32.7700 602.0000 1.0000
32.7800 578.0000 1.0000
32.7900 613.0000 1.0000
32.8000 646.0000 1.0000
32.8100 602.0000 1.0000
32.8200 595.0000 1.0000
32.8300 583.0000 1.0000
32.8400 600.0000 1.0000
32.8500 576.0000 1.0000
32.8600 585.0000 1.0000
32.8700 624.0000 1.0000
32.8800 598.0000 1.0000
32.8900 646.0000 1.0000
32.9000 614.0000 1.0000
32.9100 576.0000 1.0000
32.9200 595.0000 1.0000
32.9300 598.0000 1.0000
32.9400 598.0000 1.0000
32.9500 631.0000 1.0000
32.9600 654.0000 1.0000
32.9700 602.0000 1.0000
32.9800 623.0000 1.0000
32.9900 642.0000 1.0000
33.0000 638.0000 1.0000
33.0100 614.0000 1.0000
33.0200 609.0000 1.0000
33.0300 664.0000 1.0000
33.0400 665.0000 1.0000
33.0500 641.0000 1.0000
33.0600 666.0000 1.0000
33.0700 661.0000 1.0000
33.0800 684.0000 1.0000
33.0900 683.0000 1.0000
33.1000 685.0000 1.0000
33.1100 694.0000 1.0000
33.1200 665.0000 1.0000
33.1300 644.0000 1.0000
33.1400 661.0000 1.0000
33.1500 662.0000 1.0000
33.1600 708.0000 1.0000
33.1700 714.0000 1.0000
33.1800 648.0000 1.0000
33.1900 712.0000 1.0000
33.2000 656.0000 1.0000
33.2100 650.0000 1.0000
33.2200 663.0000 1.0000
33.2300 673.0000 1.0000
33.2400 669.0000 1.0000
33.2500 648.0000 1.0000
33.2600 629.0000 1.0000
33.2700 623.0000 1.0000
33.2800 669.0000 1.0000
33.2900 648.0000 1.0000
33.3000 626.0000 1.0000
33.3100 661.0000 1.0000
33.3200 635.0000 1.0000
33.3300 636.0000 1.0000
33.3400 684.0000 1.0000
33.3500 666.0000 1.0000
33.3600 633.0000 1.0000
33.3700 673.0000 1.0000
33.3800 684.0000 1.0000
33.3900 697.0000 1.0000
33.4000 755.0000 1.0000
33.4100 721.0000 1.0000
33.4200 728.0000 1.0000
33.4300 731.0000 1.0000
33.4400 722.0000 1.0000
33.4500 701.0000 1.0000
33.4600 778.0000 1.0000
33.4700 793.0000 1.0000
33.4800 845.0000 1.0000
33.4900 811.0000 1.0000
33.5000 896.0000 1.0000
33.5100 864.0000 1.0000
33.5200 905.0000 1.0000
33.5300 892.0000 1.0000
33.5400 945.0000 1.0000
33.5500 1024.0000 1.0000
33.5600 1024.0000 1.0000
33.5700 1102.0000 1.0000
33.5800 1119.0000 1.0000
33.5900 1153.0000 1.0000
33.6000 1259.0000 1.0000
33.6100 1279.0000 1.0000
33.6200 1333.0000 1.0000
33.6300 1429.0000 1.0000
33.6400 1419.0000 1.0000
33.6500 1505.0000 1.0000
33.6600 1507.0000 1.0000
33.6700 1517.0000 1.0000
33.6800 1571.0000 1.0000
33.6900 1511.0000 1.0000
33.7000 1409.0000 1.0000
33.7100 1355.0000 1.0000
33.7200 1346.0000 1.0000
33.7300 1347.0000 1.0000
33.7400 1331.0000 1.0000
33.7500 1262.0000 1.0000
33.7600 1219.0000 1.0000
33.7700 1167.0000 1.0000
33.7800 1102.0000 1.0000
33.7900 1055.0000 1.0000
33.8000 1037.0000 1.0000
33.8100 986.0000 1.0000
33.8200 972.0000 1.0000
33.8300 886.0000 1.0000
33.8400 878.0000 1.0000
33.8500 899.0000 1.0000
33.8600 836.0000 1.0000
33.8700 819.0000 1.0000
33.8800 760.0000 1.0000
33.8900 783.0000 1.0000
33.9000 773.0000 1.0000
33.9100 743.0000 1.0000
33.9200 711.0000 1.0000
33.9300 728.0000 1.0000
33.9400 675.0000 1.0000
33.9500 694.0000 1.0000
33.9600 668.0000 1.0000
33.9700 720.0000 1.0000
33.9800 672.0000 1.0000
33.9900 679.0000 1.0000
34.0000 681.0000 1.0000
34.0100 641.0000 1.0000
34.0200 644.0000 1.0000
34.0300 639.0000 1.0000
34.0400 610.0000 1.0000
34.0500 597.0000 1.0000
34.0600 594.0000 1.0000
34.0700 634.0000 1.0000
34.0800 624.0000 1.0000
34.0900 608.0000 1.0000
34.1000 563.0000 1.0000
34.1100 585.0000 1.0000
34.1200 610.0000 1.0000
34.1300 614.0000 1.0000
34.1400 571.0000 1.0000
34.1500 597.0000 1.0000
34.1600 599.0000 1.0000
34.1700 572.0000 1.0000
34.1800 593.0000 1.0000
34.1900 602.0000 1.0000
34.2000 601.0000 1.0000
34.2100 597.0000 1.0000
34.2200 572.0000 1.0000
34.2300 565.0000 1.0000
34.2400 580.0000 1.0000
34.2500 550.0000 1.0000
34.2600 581.0000 1.0000
34.2700 600.0000 1.0000
34.2800 557.0000 1.0000
34.2900 561.0000 1.0000
34.3000 538.0000 1.0000
34.3100 582.0000 1.0000
34.3200 550.0000 1.0000
34.3300 578.0000 1.0000
34.3400 557.0000 1.0000
34.3500 536.0000 1.0000
34.3600 568.0000 1.0000
34.3700 565.0000 1.0000
34.3800 539.0000 1.0000
34.3900 554.0000 1.0000
34.4000 557.0000 1.0000
34.4100 565.0000 1.0000
34.4200 523.0000 1.0000
34.4300 528.0000 1.0000
34.4400 540.0000 1.0000
34.4500 562.0000 1.0000
34.4600 561.0000 1.0000
34.4700 563.0000 1.0000
34.4800 551.0000 1.0000
34.4900 545.0000 1.0000
34.5000 535.0000 1.0000
34.5100 545.0000 1.0000
34.5200 563.0000 1.0000
34.5300 538.0000 1.0000
34.5400 531.0000 1.0000
34.5500 543.0000 1.0000
34.5600 549.0000 1.0000
34.5700 546.0000 1.0000
34.5800 536.0000 1.0000
34.5900 521.0000 1.0000
34.6000 493.0000 1.0000
34.6100 530.0000 1.0000
34.6200 541.0000 1.0000
34.6300 514.0000 1.0000
34.6400 546.0000 1.0000
34.6500 532.0000 1.0000
34.6600 517.0000 1.0000
34.6700 512.0000 1.0000
34.6800 516.0000 1.0000
34.6900 527.0000 1.0000
34.7000 540.0000 1.0000
34.7100 513.0000 1.0000
34.7200 569.0000 1.0000
34.7300 540.0000 1.0000
34.7400 540.0000 1.0000
34.7500 518.0000 1.0000
34.7600 538.0000 1.0000
34.7700 543.0000 1.0000
34.7800 514.0000 1.0000
34.7900 524.0000 1.0000
34.8000 557.0000 1.0000
34.8100 494.0000 1.0000
34.8200 517.0000 1.0000
34.8300 529.0000 1.0000
34.8400 540.0000 1.0000
34.8500 557.0000 1.0000
34.8600 551.0000 1.0000
34.8700 507.0000 1.0000
34.8800 526.0000 1.0000
34.8900 533.0000 1.0000
34.9000 528.0000 1.0000
34.9100 554.0000 1.0000
34.9200 515.0000 1.0000
34.9300 524.0000 1.0000
34.9400 506.0000 1.0000
34.9500 529.0000 1.0000
34.9600 513.0000 1.0000
34.9700 517.0000 1.0000
34.9800 498.0000 1.0000
34.9900 520.0000 1.0000
35.0000 517.0000 1.0000
35.0100 526.0000 1.0000
35.0200 523.0000 1.0000
35.0300 536.0000 1.0000
35.0400 506.0000 1.0000
35.0500 514.0000 1.0000
35.0600 522.0000 1.0000
35.0700 508.0000 1.0000
35.0800 542.0000 1.0000
35.0900 528.0000 1.0000
35.1000 541.0000 1.0000
35.1100 523.0000 1.0000
35.1200 532.0000 1.0000
35.1300 492.0000 1.0000
35.1400 523.0000 1.0000
35.1500 476.0000 1.0000
35.1600 515.0000 1.0000
35.1700 541.0000 1.0000
35.1800 530.0000 1.0000
35.1900 547.0000 1.0000
35.2000 523.0000 1.0000
35.2100 537.0000 1.0000
35.2200 505.0000 1.0000
35.2300 509.0000 1.0000
35.2400 483.0000 1.0000
35.2500 548.0000 1.0000
35.2600 542.0000 1.0000
35.2700 521.0000 1.0000
35.2800 535.0000 1.0000
35.2900 553.0000 1.0000
35.3000 546.0000 1.0000
35.3100 538.0000 1.0000
35.3200 572.0000 1.0000
35.3300 573.0000 1.0000
35.3400 586.0000 1.0000
35.3500 591.0000 1.0000
35.3600 614.0000 1.0000
35.3700 568.0000 1.0000
35.3800 589.0000 1.0000
35.3900 585.0000 1.0000
35.4000 622.0000 1.0000
35.4100 637.0000 1.0000
35.4200 634.0000 1.0000
35.4300 660.0000 1.0000
35.4400 681.0000 1.0000
35.4500 706.0000 1.0000
35.4600 730.0000 1.0000
35.4700 717.0000 1.0000
35.4800 772.0000 1.0000
35.4900 782.0000 1.0000
35.5000 827.0000 1.0000
35.5100 859.0000 1.0000
35.5200 911.0000 1.0000
35.5300 936.0000 1.0000
35.5400 998.0000 1.0000
35.5500 1015.0000 1.0000
35.5600 1031.0000 1.0000
35.5700 1044.0000 1.0000
35.5800 1074.0000 1.0000
35.5900 1090.0000 1.0000
35.6000 1052.0000 1.0000
35.6100 1029.0000 1.0000
35.6200 1028.0000 1.0000
35.6300 1040.0000 1.0000
35.6400 986.0000 1.0000
35.6500 923.0000 1.0000
35.6600 913.0000 1.0000
35.6700 870.0000 1.0000
35.6800 851.0000 1.0000
35.6900 817.0000 1.0000
35.7000 761.0000 1.0000
35.7100 766.0000 1.0000
35.7200 744.0000 1.0000
35.7300 676.0000 1.0000
35.7400 695.0000 1.0000
35.7500 644.0000 1.0000
35.7600 645.0000 1.0000
35.7700 630.0000 1.0000
35.7800 639.0000 1.0000
35.7900 560.0000 1.0000
35.8000 591.0000 1.0000
35.8100 566.0000 1.0000
35.8200 534.0000 1.0000
35.8300 566.0000 1.0000
35.8400 527.0000 1.0000
35.8500 554.0000 1.0000
35.8600 554.0000 1.0000
35.8700 546.0000 1.0000
35.8800 527.0000 1.0000
35.8900 511.0000 1.0000
35.9000 524.0000 1.0000
35.9100 488.0000 1.0000
35.9200 514.0000 1.0000
35.9300 493.0000 1.0000
35.9400 488.0000 1.0000
35.9500 514.0000 1.0000
35.9600 499.0000 1.0000
35.9700 489.0000 1.0000
35.9800 493.0000 1.0000
35.9900 478.0000 1.0000
36.0000 479.0000 1.0000
36.0100 494.0000 1.0000
36.0200 507.0000 1.0000
36.0300 468.0000 1.0000
36.0400 493.0000 1.0000
36.0500 483.0000 1.0000
36.0600 481.0000 1.0000
36.0700 490.0000 1.0000
36.0800 490.0000 1.0000
36.0900 482.0000 1.0000
36.1000 474.0000 1.0000
36.1100 495.0000 1.0000
36.1200 491.0000 1.0000
36.1300 495.0000 1.0000
36.1400 491.0000 1.0000
36.1500 473.0000 1.0000
36.1600 537.0000 1.0000
36.1700 506.0000 1.0000
36.1800 500.0000 1.0000
36.1900 486.0000 1.0000
36.2000 496.0000 1.0000
36.2100 470.0000 1.0000
36.2200 496.0000 1.0000
36.2300 483.0000 1.0000
36.2400 482.0000 1.0000
36.2500 461.0000 1.0000
36.2600 477.0000 1.0000
36.2700 483.0000 1.0000
36.2800 492.0000 1.0000
36.2900 484.0000 1.0000
36.3000 470.0000 1.0000
36.3100 485.0000 1.0000
36.3200 505.0000 1.0000
36.3300 464.0000 1.0000
36.3400 491.0000 1.0000
36.3500 484.0000 1.0000
36.3600 487.0000 1.0000
36.3700 493.0000 1.0000
36.3800 470.0000 1.0000
36.3900 503.0000 1.0000
36.4000 446.0000 1.0000
36.4100 520.0000 1.0000
36.4200 504.0000 1.0000
36.4300 496.0000 1.0000
36.4400 458.0000 1.0000
36.4500 473.0000 1.0000
36.4600 474.0000 1.0000
36.4700 461.0000 1.0000
36.4800 489.0000 1.0000
36.4900 482.0000 1.0000
36.5000 522.0000 1.0000
36.5100 482.0000 1.0000
36.5200 466.0000 1.0000
36.5300 477.0000 1.0000
36.5400 452.0000 1.0000
36.5500 465.0000 1.0000
36.5600 487.0000 1.0000
36.5700 457.0000 1.0000
36.5800 465.0000 1.0000
36.5900 469.0000 1.0000
36.6000 497.0000 1.0000
36.6100 491.0000 1.0000
36.6200 496.0000 1.0000
36.6300 513.0000 1.0000
36.6400 441.0000 1.0000
36.6500 465.0000 1.0000
36.6600 499.0000 1.0000
36.6700 478.0000 1.0000
36.6800 498.0000 1.0000
36.6900 492.0000 1.0000
36.7000 513.0000 1.0000
36.7100 459.0000 1.0000
36.7200 497.0000 1.0000
36.7300 465.0000 1.0000
36.7400 476.0000 1.0000
36.7500 444.0000 1.0000
36.7600 485.0000 1.0000
36.7700 443.0000 1.0000
36.7800 465.0000 1.0000
36.7900 479.0000 1.0000
36.8000 482.0000 1.0000
36.8100 474.0000 1.0000
36.8200 488.0000 1.0000
36.8300 503.0000 1.0000
36.8400 442.0000 1.0000
36.8500 450.0000 1.0000
36.8600 463.0000 1.0000
36.8700 503.0000 1.0000
36.8800 487.0000 1.0000
36.8900 483.0000 1.0000
36.9000 499.0000 1.0000
36.9100 472.0000 1.0000
36.9200 465.0000 1.0000
36.9300 493.0000 1.0000
36.9400 488.0000 1.0000
36.9500 431.0000 1.0000
36.9600 483.0000 1.0000
36.9700 504.0000 1.0000
36.9800 442.0000 1.0000
36.9900 491.0000 1.0000
37.0000 473.0000 1.0000
37.0100 448.0000 1.0000
37.0200 450.0000 1.0000
37.0300 476.0000 1.0000
37.0400 468.0000 1.0000
37.0500 478.0000 1.0000
37.0600 505.0000 1.0000
37.0700 505.0000 1.0000
37.0800 473.0000 1.0000
37.0900 488.0000 1.0000
37.1000 461.0000 1.0000
37.1100 501.0000 1.0000
37.1200 520.0000 1.0000
37.1300 486.0000 1.0000
37.1400 479.0000 1.0000
37.1500 488.0000 1.0000
37.1600 495.0000 1.0000
37.1700 484.0000 1.0000
37.1800 513.0000 1.0000
37.1900 484.0000 1.0000
37.2000 471.0000 1.0000
37.2100 474.0000 1.0000
37.2200 486.0000 1.0000
37.2300 497.0000 1.0000
37.2400 508.0000 1.0000
37.2500 481.0000 1.0000
37.2600 536.0000 1.0000
37.2700 494.0000 1.0000
37.2800 511.0000 1.0000
37.2900 523.0000 1.0000
37.3000 521.0000 1.0000
37.3100 556.0000 1.0000
37.3200 536.0000 1.0000
37.3300 561.0000 1.0000
37.3400 530.0000 1.0000
37.3500 538.0000 1.0000
37.3600 531.0000 1.0000
37.3700 579.0000 1.0000
37.3800 543.0000 1.0000
37.3900 582.0000 1.0000
37.4000 602.0000 1.0000
37.4100 635.0000 1.0000
37.4200 641.0000 1.0000
37.4300 681.0000 1.0000
37.4400 629.0000 1.0000
37.4500 671.0000 1.0000
37.4600 727.0000 1.0000
37.4700 742.0000 1.0000
37.4800 739.0000 1.0000
37.4900 802.0000 1.0000
37.5000 863.0000 1.0000
37.5100 867.0000 1.0000
37.5200 881.0000 1.0000
37.5300 956.0000 1.0000
37.5400 1002.0000 1.0000
37.5500 1105.0000 1.0000
37.5600 1152.0000 1.0000
37.5700 1235.0000 1.0000
37.5800 1261.0000 1.0000
37.5900 1304.0000 1.0000
37.6000 1410.0000 1.0000
37.6100 1540.0000 1.0000
37.6200 1607.0000 1.0000
37.6300 1738.0000 1.0000
37.6400 1763.0000 1.0000
37.6500 1898.0000 1.0000
37.6600 2036.0000 1.0000
37.6700 2131.0000 1.0000
37.6800 2186.0000 1.0000
37.6900 2326.0000 1.0000
37.7000 2307.0000 1.0000
37.7100 2354.0000 1.0000
37.7200 2352.0000 1.0000
37.7300 2432.0000 1.0000
37.7400 2348.0000 1.0000
37.7500 2361.0000 1.0000
37.7600 2282.0000 1.0000
37.7700 2211.0000 1.0000
37.7800 2192.0000 1.0000
37.7900 2083.0000 1.0000
37.8000 2048.0000 1.0000
37.8100 2000.0000 1.0000
37.8200 1895.0000 1.0000
37.8300 1794.0000 1.0000
37.8400 1645.0000 1.0000
37.8500 1574.0000 1.0000
37.8600 1505.0000 1.0000
37.8700 1472.0000 1.0000
37.8800 1297.0000 1.0000
37.8900 1214.0000 1.0000
37.9000 1205.0000 1.0000
37.9100 1144.0000 1.0000
37.9200 1061.0000 1.0000
37.9300 994.0000 1.0000
37.9400 963.0000 1.0000
37.9500 895.0000 1.0000
37.9600 857.0000 1.0000
37.9700 811.0000 1.0000
37.9800 795.0000 1.0000
37.9900 750.0000 1.0000
38.0000 702.0000 1.0000
38.0100 673.0000 1.0000
38.0200 671.0000 1.0000
38.0300 665.0000 1.0000
38.0400 604.0000 1.0000
38.0500 667.0000 1.0000
38.0600 590.0000 1.0000
38.0700 612.0000 1.0000
38.0800 582.0000 1.0000
38.0900 579.0000 1.0000
38.1000 589.0000 1.0000
38.1100 541.0000 1.0000
38.1200 556.0000 1.0000
38.1300 543.0000 1.0000
38.1400 540.0000 1.0000
38.1500 545.0000 1.0000
38.1600 525.0000 1.0000
38.1700 534.0000 1.0000
38.1800 508.0000 1.0000
38.1900 481.0000 1.0000
38.2000 524.0000 1.0000
38.2100 508.0000 1.0000
38.2200 461.0000 1.0000
38.2300 481.0000 1.0000
38.2400 482.0000 1.0000
38.2500 465.0000 1.0000
38.2600 462.0000 1.0000
38.2700 496.0000 1.0000
38.2800 471.0000 1.0000
38.2900 485.0000 1.0000
38.3000 486.0000 1.0000
38.3100 480.0000 1.0000
38.3200 436.0000 1.0000
38.3300 442.0000 1.0000
38.3400 430.0000 1.0000
38.3500 469.0000 1.0000
38.3600 448.0000 1.0000
38.3700 426.0000 1.0000
38.3800 439.0000 1.0000
38.3900 441.0000 1.0000
38.4000 441.0000 1.0000
38.4100 455.0000 1.0000
38.4200 436.0000 1.0000
38.4300 466.0000 1.0000
38.4400 424.0000 1.0000
38.4500 434.0000 1.0000
38.4600 414.0000 1.0000
38.4700 469.0000 1.0000
38.4800 430.0000 1.0000
38.4900 450.0000 1.0000
38.5000 421.0000 1.0000
38.5100 444.0000 1.0000
38.5200 411.0000 1.0000
38.5300 413.0000 1.0000
38.5400 420.0000 1.0000
38.5500 407.0000 1.0000
38.5600 405.0000 1.0000
38.5700 420.0000 1.0000
38.5800 447.0000 1.0000
38.5900 449.0000 1.0000
38.6000 468.0000 1.0000
38.6100 443.0000 1.0000
38.6200 453.0000 1.0000
38.6300 445.0000 1.0000
38.6400 411.0000 1.0000
38.6500 444.0000 1.0000
38.6600 467.0000 1.0000
38.6700 437.0000 1.0000
38.6800 460.0000 1.0000
38.6900 434.0000 1.0000
38.7000 453.0000 1.0000
38.7100 455.0000 1.0000
38.7200 447.0000 1.0000
38.7300 450.0000 1.0000
38.7400 453.0000 1.0000
38.7500 416.0000 1.0000
38.7600 475.0000 1.0000
38.7700 485.0000 1.0000
38.7800 472.0000 1.0000
38.7900 466.0000 1.0000
38.8000 462.0000 1.0000
38.8100 456.0000 1.0000
38.8200 428.0000 1.0000
38.8300 443.0000 1.0000
38.8400 414.0000 1.0000
38.8500 399.0000 1.0000
38.8600 441.0000 1.0000
38.8700 454.0000 1.0000
38.8800 442.0000 1.0000
38.8900 450.0000 1.0000
38.9000 442.0000 1.0000
38.9100 434.0000 1.0000
38.9200 438.0000 1.0000
38.9300 460.0000 1.0000
38.9400 434.0000 1.0000
38.9500 455.0000 1.0000
38.9600 424.0000 1.0000
38.9700 440.0000 1.0000
38.9800 419.0000 1.0000
38.9900 410.0000 1.0000
39.0000 397.0000 1.0000
39.0100 428.0000 1.0000
39.0200 394.0000 1.0000
39.0300 416.0000 1.0000
39.0400 407.0000 1.0000
39.0500 407.0000 1.0000
39.0600 408.0000 1.0000
39.0700 455.0000 1.0000
39.0800 459.0000 1.0000
39.0900 412.0000 1.0000
39.1000 410.0000 1.0000
39.1100 447.0000 1.0000
39.1200 439.0000 1.0000
39.1300 389.0000 1.0000
39.1400 428.0000 1.0000
39.1500 429.0000 1.0000
39.1600 449.0000 1.0000
39.1700 406.0000 1.0000
39.1800 408.0000 1.0000
39.1900 404.0000 1.0000
39.2000 450.0000 1.0000
39.2100 410.0000 1.0000
39.2200 397.0000 1.0000
39.2300 432.0000 1.0000
39.2400 424.0000 1.0000
39.2500 385.0000 1.0000
39.2600 428.0000 1.0000
39.2700 423.0000 1.0000
39.2800 436.0000 1.0000
39.2900 411.0000 1.0000
39.3000 402.0000 1.0000
39.3100 401.0000 1.0000
39.3200 398.0000 1.0000
39.3300 425.0000 1.0000
39.3400 430.0000 1.0000
39.3500 441.0000 1.0000
39.3600 419.0000 1.0000
39.3700 394.0000 1.0000
39.3800 408.0000 1.0000
39.3900 398.0000 1.0000
39.4000 431.0000 1.0000
39.4100 426.0000 1.0000
39.4200 389.0000 1.0000
39.4300 394.0000 1.0000
39.4400 424.0000 1.0000
39.4500 397.0000 1.0000
39.4600 402.0000 1.0000
39.4700 436.0000 1.0000
39.4800 420.0000 1.0000
39.4900 399.0000 1.0000
39.5000 422.0000 1.0000
39.5100 414.0000 1.0000
39.5200 395.0000 1.0000
39.5300 429.0000 1.0000
39.5400 442.0000 1.0000
39.5500 407.0000 1.0000
39.5600 389.0000 1.0000
39.5700 379.0000 1.0000
39.5800 384.0000 1.0000
39.5900 385.0000 1.0000
39.6000 424.0000 1.0000
39.6100 387.0000 1.0000
39.6200 380.0000 1.0000
39.6300 398.0000 1.0000
39.6400 375.0000 1.0000
39.6500 366.0000 1.0000
39.6600 407.0000 1.0000
39.6700 425.0000 1.0000
39.6800 396.0000 1.0000
39.6900 431.0000 1.0000
39.7000 424.0000 1.0000
39.7100 405.0000 1.0000
39.7200 393.0000 1.0000
39.7300 379.0000 1.0000
39.7400 396.0000 1.0000
39.7500 373.0000 1.0000
39.7600 400.0000 1.0000
39.7700 413.0000 1.0000
39.7800 427.0000 1.0000
39.7900 402.0000 1.0000
39.8000 381.0000 1.0000
39.8100 398.0000 1.0000
39.8200 385.0000 1.0000
39.8300 384.0000 1.0000
39.8400 377.0000 1.0000
39.8500 356.0000 1.0000
39.8600 395.0000 1.0000
39.8700 397.0000 1.0000
39.8800 426.0000 1.0000
39.8900 399.0000 1.0000
39.9000 398.0000 1.0000
39.9100 386.0000 1.0000
39.9200 389.0000 1.0000
39.9300 405.0000 1.0000
39.9400 386.0000 1.0000
39.9500 413.0000 1.0000
39.9600 352.0000 1.0000
39.9700 402.0000 1.0000
39.9800 378.0000 1.0000
39.9900 401.0000 1.0000
40.0000 364.0000 1.0000
40.0100 391.0000 1.0000
40.0200 370.0000 1.0000
40.0300 398.0000 1.0000
40.0400 392.0000 1.0000
40.0500 386.0000 1.0000
40.0600 406.0000 1.0000
40.0700 374.0000 1.0000
40.0800 398.0000 1.0000
40.0900 400.0000 1.0000
40.1000 420.0000 1.0000
40.1100 413.0000 1.0000
40.1200 405.0000 1.0000
40.1300 406.0000 1.0000
40.1400 395.0000 1.0000
40.1500 372.0000 1.0000
40.1600 398.0000 1.0000
40.1700 416.0000 1.0000
40.1800 382.0000 1.0000
40.1900 376.0000 1.0000
40.2000 423.0000 1.0000
40.2100 377.0000 1.0000
40.2200 391.0000 1.0000
40.2300 401.0000 1.0000
40.2400 416.0000 1.0000
40.2500 388.0000 1.0000
40.2600 428.0000 1.0000
40.2700 376.0000 1.0000
40.2800 363.0000 1.0000
40.2900 378.0000 1.0000
40.3000 375.0000 1.0000
40.3100 373.0000 1.0000
40.3200 403.0000 1.0000
40.3300 381.0000 1.0000
40.3400 375.0000 1.0000
40.3500 416.0000 1.0000
40.3600 405.0000 1.0000
40.3700 404.0000 1.0000
40.3800 379.0000 1.0000
40.3900 380.0000 1.0000
40.4000 373.0000 1.0000
40.4100 400.0000 1.0000
40.4200 394.0000 1.0000
40.4300 379.0000 1.0000
40.4400 375.0000 1.0000
40.4500 394.0000 1.0000
40.4600 390.0000 1.0000
40.4700 399.0000 1.0000
40.4800 401.0000 1.0000
40.4900 386.0000 1.0000
40.5000 386.0000 1.0000
40.5100 373.0000 1.0000
40.5200 351.0000 1.0000
40.5300 361.0000 1.0000
40.5400 407.0000 1.0000
40.5500 399.0000 1.0000
40.5600 404.0000 1.0000
40.5700 354.0000 1.0000
40.5800 350.0000 1.0000
40.5900 416.0000 1.0000
40.6000 405.0000 1.0000
40.6100 374.0000 1.0000
40.6200 385.0000 1.0000
40.6300 387.0000 1.0000
40.6400 398.0000 1.0000
40.6500 402.0000 1.0000
40.6600 388.0000 1.0000
40.6700 412.0000 1.0000
40.6800 386.0000 1.0000
40.6900 379.0000 1.0000
40.7000 402.0000 1.0000
40.7100 401.0000 1.0000
40.7200 387.0000 1.0000
40.7300 405.0000 1.0000
40.7400 386.0000 1.0000
40.7500 432.0000 1.0000
40.7600 384.0000 1.0000
40.7700 414.0000 1.0000
40.7800 419.0000 1.0000
40.7900 410.0000 1.0000
40.8000 407.0000 1.0000
40.8100 408.0000 1.0000
40.8200 383.0000 1.0000
40.8300 388.0000 1.0000
40.8400 380.0000 1.0000
40.8500 422.0000 1.0000
40.8600 403.0000 1.0000
40.8700 400.0000 1.0000
40.8800 391.0000 1.0000
40.8900 398.0000 1.0000
40.9000 405.0000 1.0000
40.9100 438.0000 1.0000
40.9200 406.0000 1.0000
40.9300 423.0000 1.0000
40.9400 409.0000 1.0000
40.9500 398.0000 1.0000
40.9600 379.0000 1.0000
40.9700 379.0000 1.0000
40.9800 380.0000 1.0000
40.9900 363.0000 1.0000
41.0000 375.0000 1.0000
41.0100 404.0000 1.0000
41.0200 413.0000 1.0000
41.0300 397.0000 1.0000
41.0400 391.0000 1.0000
41.0500 378.0000 1.0000
41.0600 399.0000 1.0000
41.0700 379.0000 1.0000
41.0800 404.0000 1.0000
41.0900 396.0000 1.0000
41.1000 380.0000 1.0000
41.1100 374.0000 1.0000
41.1200 396.0000 1.0000
41.1300 376.0000 1.0000
41.1400 380.0000 1.0000
41.1500 376.0000 1.0000
41.1600 369.0000 1.0000
41.1700 378.0000 1.0000
41.1800 388.0000 1.0000
41.1900 397.0000 1.0000
41.2000 400.0000 1.0000
41.2100 379.0000 1.0000
41.2200 395.0000 1.0000
41.2300 404.0000 1.0000
41.2400 410.0000 1.0000
41.2500 376.0000 1.0000
41.2600 365.0000 1.0000
41.2700 370.0000 1.0000
41.2800 385.0000 1.0000
41.2900 419.0000 1.0000
41.3000 399.0000 1.0000
41.3100 381.0000 1.0000
41.3200 375.0000 1.0000
41.3300 429.0000 1.0000
41.3400 390.0000 1.0000
41.3500 413.0000 1.0000
41.3600 403.0000 1.0000
41.3700 379.0000 1.0000
41.3800 379.0000 1.0000
41.3900 355.0000 1.0000
41.4000 378.0000 1.0000
41.4100 389.0000 1.0000
41.4200 384.0000 1.0000
41.4300 381.0000 1.0000
41.4400 416.0000 1.0000
41.4500 394.0000 1.0000
41.4600 353.0000 1.0000
41.4700 366.0000 1.0000
41.4800 373.0000 1.0000
41.4900 416.0000 1.0000
41.5000 390.0000 1.0000
41.5100 371.0000 1.0000
41.5200 381.0000 1.0000
41.5300 387.0000 1.0000
41.5400 397.0000 1.0000
41.5500 379.0000 1.0000
41.5600 380.0000 1.0000
41.5700 395.0000 1.0000
41.5800 381.0000 1.0000
41.5900 397.0000 1.0000
41.6000 421.0000 1.0000
41.6100 390.0000 1.0000
41.6200 396.0000 1.0000
41.6300 372.0000 1.0000
41.6400 394.0000 1.0000
41.6500 376.0000 1.0000
41.6600 376.0000 1.0000
41.6700 352.0000 1.0000
41.6800 335.0000 1.0000
41.6900 399.0000 1.0000
41.7000 393.0000 1.0000
41.7100 369.0000 1.0000
41.7200 363.0000 1.0000
41.7300 357.0000 1.0000
41.7400 405.0000 1.0000
41.7500 393.0000 1.0000
41.7600 355.0000 1.0000
41.7700 387.0000 1.0000
41.7800 381.0000 1.0000
41.7900 376.0000 1.0000
41.8000 369.0000 1.0000
41.8100 360.0000 1.0000
41.8200 359.0000 1.0000
41.8300 375.0000 1.0000
41.8400 407.0000 1.0000
41.8500 413.0000 1.0000
41.8600 365.0000 1.0000
41.8700 384.0000 1.0000
41.8800 372.0000 1.0000
41.8900 389.0000 1.0000
41.9000 398.0000 1.0000
41.9100 371.0000 1.0000
41.9200 379.0000 1.0000
41.9300 376.0000 1.0000
41.9400 376.0000 1.0000
41.9500 370.0000 1.0000
41.9600 374.0000 1.0000
41.9700 390.0000 1.0000
41.9800 375.0000 1.0000
41.9900 372.0000 1.0000
42.0000 366.0000 1.0000
42.0100 383.0000 1.0000
42.0200 395.0000 1.0000
42.0300 407.0000 1.0000
42.0400 373.0000 1.0000
42.0500 370.0000 1.0000
42.0600 361.0000 1.0000
42.0700 389.0000 1.0000
42.0800 394.0000 1.0000
42.0900 388.0000 1.0000
42.1000 396.0000 1.0000
42.1100 365.0000 1.0000
42.1200 394.0000 1.0000
42.1300 368.0000 1.0000
42.1400 373.0000 1.0000
42.1500 399.0000 1.0000
42.1600 375.0000 1.0000
42.1700 356.0000 1.0000
42.1800 393.0000 1.0000
42.1900 381.0000 1.0000
42.2000 372.0000 1.0000
42.2100 391.0000 1.0000
42.2200 376.0000 1.0000
42.2300 394.0000 1.0000
42.2400 418.0000 1.0000
42.2500 382.0000 1.0000
42.2600 392.0000 1.0000
42.2700 370.0000 1.0000
42.2800 410.0000 1.0000
42.2900 383.0000 1.0000
42.3000 394.0000 1.0000
42.3100 399.0000 1.0000
42.3200 393.0000 1.0000
42.3300 411.0000 1.0000
42.3400 384.0000 1.0000
42.3500 383.0000 1.0000
42.3600 430.0000 1.0000
42.3700 441.0000 1.0000
42.3800 433.0000 1.0000
42.3900 410.0000 1.0000
42.4000 404.0000 1.0000
42.4100 393.0000 1.0000
42.4200 417.0000 1.0000
42.4300 426.0000 1.0000
42.4400 435.0000 1.0000
42.4500 385.0000 1.0000
42.4600 419.0000 1.0000
42.4700 408.0000 1.0000
42.4800 412.0000 1.0000
42.4900 411.0000 1.0000
42.5000 410.0000 1.0000
42.5100 416.0000 1.0000
42.5200 425.0000 1.0000
42.5300 383.0000 1.0000
42.5400 429.0000 1.0000
42.5500 401.0000 1.0000
42.5600 388.0000 1.0000
42.5700 387.0000 1.0000
42.5800 422.0000 1.0000
42.5900 418.0000 1.0000
42.6000 397.0000 1.0000
42.6100 404.0000 1.0000
42.6200 377.0000 1.0000
42.6300 410.0000 1.0000
42.6400 370.0000 1.0000
42.6500 377.0000 1.0000
42.6600 376.0000 1.0000
42.6700 399.0000 1.0000
42.6800 394.0000 1.0000
42.6900 377.0000 1.0000
42.7000 381.0000 1.0000
42.7100 409.0000 1.0000
42.7200 354.0000 1.0000
42.7300 377.0000 1.0000
42.7400 379.0000 1.0000
42.7500 408.0000 1.0000
42.7600 373.0000 1.0000
42.7700 386.0000 1.0000
42.7800 362.0000 1.0000
42.7900 393.0000 1.0000
42.8000 390.0000 1.0000
42.8100 398.0000 1.0000
42.8200 366.0000 1.0000
42.8300 380.0000 1.0000
42.8400 391.0000 1.0000
42.8500 352.0000 1.0000
42.8600 370.0000 1.0000
42.8700 384.0000 1.0000
42.8800 374.0000 1.0000
42.8900 372.0000 1.0000
42.9000 380.0000 1.0000
42.9100 369.0000 1.0000
42.9200 371.0000 1.0000
42.9300 367.0000 1.0000
42.9400 357.0000 1.0000
42.9500 400.0000 1.0000
42.9600 378.0000 1.0000
42.9700 373.0000 1.0000
42.9800 349.0000 1.0000
42.9900 399.0000 1.0000
43.0000 414.0000 1.0000
43.0100 369.0000 1.0000
43.0200 378.0000 1.0000
43.0300 386.0000 1.0000
43.0400 361.0000 1.0000
43.0500 342.0000 1.0000
43.0600 354.0000 1.0000
43.0700 398.0000 1.0000
43.0800 369.0000 1.0000
43.0900 395.0000 1.0000
43.1000 370.0000 1.0000
43.1100 418.0000 1.0000
43.1200 387.0000 1.0000
43.1300 378.0000 1.0000
43.1400 388.0000 1.0000
43.1500 371.0000 1.0000
43.1600 367.0000 1.0000
43.1700 359.0000 1.0000
43.1800 386.0000 1.0000
43.1900 372.0000 1.0000
43.2000 379.0000 1.0000
43.2100 373.0000 1.0000
43.2200 381.0000 1.0000
43.2300 357.0000 1.0000
43.2400 391.0000 1.0000
43.2500 381.0000 1.0000
43.2600 382.0000 1.0000
43.2700 355.0000 1.0000
43.2800 357.0000 1.0000
43.2900 371.0000 1.0000
43.3000 388.0000 1.0000
43.3100 363.0000 1.0000
43.3200 400.0000 1.0000
43.3300 363.0000 1.0000
43.3400 391.0000 1.0000
43.3500 346.0000 1.0000
43.3600 370.0000 1.0000
43.3700 373.0000 1.0000
43.3800 384.0000 1.0000
43.3900 400.0000 1.0000
43.4000 377.0000 1.0000
43.4100 405.0000 1.0000
43.4200 403.0000 1.0000
43.4300 396.0000 1.0000
43.4400 397.0000 1.0000
43.4500 351.0000 1.0000
43.4600 366.0000 1.0000
43.4700 366.0000 1.0000
43.4800 347.0000 1.0000
43.4900 375.0000 1.0000
43.5000 350.0000 1.0000
43.5100 380.0000 1.0000
43.5200 372.0000 1.0000
43.5300 369.0000 1.0000
43.5400 374.0000 1.0000
43.5500 379.0000 1.0000
43.5600 341.0000 1.0000
43.5700 369.0000 1.0000
43.5800 389.0000 1.0000
43.5900 357.0000 1.0000
43.6000 348.0000 1.0000
43.6100 359.0000 1.0000
43.6200 354.0000 1.0000
43.6300 373.0000 1.0000
43.6400 373.0000 1.0000
43.6500 385.0000 1.0000
43.6600 367.0000 1.0000
43.6700 349.0000 1.0000
43.6800 383.0000 1.0000
43.6900 359.0000 1.0000
43.7000 378.0000 1.0000
43.7100 367.0000 1.0000
43.7200 364.0000 1.0000
43.7300 357.0000 1.0000
43.7400 345.0000 1.0000
43.7500 352.0000 1.0000
43.7600 362.0000 1.0000
43.7700 356.0000 1.0000
43.7800 370.0000 1.0000
43.7900 336.0000 1.0000
43.8000 348.0000 1.0000
43.8100 337.0000 1.0000
43.8200 358.0000 1.0000
43.8300 366.0000 1.0000
43.8400 361.0000 1.0000
43.8500 390.0000 1.0000
43.8600 395.0000 1.0000
43.8700 374.0000 1.0000
43.8800 368.0000 1.0000
43.8900 364.0000 1.0000
43.9000 361.0000 1.0000
43.9100 365.0000 1.0000
43.9200 329.0000 1.0000
43.9300 361.0000 1.0000
43.9400 364.0000 1.0000
43.9500 382.0000 1.0000
43.9600 344.0000 1.0000
43.9700 341.0000 1.0000
43.9800 367.0000 1.0000
43.9900 349.0000 1.0000
44.0000 372.0000 1.0000
44.0100 370.0000 1.0000
44.0200 385.0000 1.0000
44.0300 383.0000 1.0000
44.0400 375.0000 1.0000
44.0500 353.0000 1.0000
44.0600 373.0000 1.0000
44.0700 347.0000 1.0000
44.0800 341.0000 1.0000
44.0900 354.0000 1.0000
44.1000 379.0000 1.0000
44.1100 359.0000 1.0000
44.1200 377.0000 1.0000
44.1300 351.0000 1.0000
44.1400 357.0000 1.0000
44.1500 356.0000 1.0000
44.1600 329.0000 1.0000
44.1700 362.0000 1.0000
44.1800 355.0000 1.0000
44.1900 362.0000 1.0000
44.2000 339.0000 1.0000
44.2100 360.0000 1.0000
44.2200 354.0000 1.0000
44.2300 376.0000 1.0000
44.2400 364.0000 1.0000
44.2500 340.0000 1.0000
44.2600 375.0000 1.0000
44.2700 361.0000 1.0000
44.2800 363.0000 1.0000
44.2900 358.0000 1.0000
44.3000 396.0000 1.0000
44.3100 358.0000 1.0000
44.3200 349.0000 1.0000
44.3300 374.0000 1.0000
44.3400 366.0000 1.0000
44.3500 353.0000 1.0000
44.3600 382.0000 1.0000
44.3700 368.0000 1.0000
44.3800 343.0000 1.0000
44.3900 368.0000 1.0000
44.4000 330.0000 1.0000
44.4100 349.0000 1.0000
44.4200 371.0000 1.0000
44.4300 380.0000 1.0000
44.4400 381.0000 1.0000
44.4500 354.0000 1.0000
44.4600 345.0000 1.0000
44.4700 353.0000 1.0000
44.4800 360.0000 1.0000
44.4900 361.0000 1.0000
44.5000 357.0000 1.0000
44.5100 353.0000 1.0000
44.5200 366.0000 1.0000
44.5300 349.0000 1.0000
44.5400 376.0000 1.0000
44.5500 333.0000 1.0000
44.5600 359.0000 1.0000
44.5700 362.0000 1.0000
44.5800 370.0000 1.0000
44.5900 360.0000 1.0000
44.6000 361.0000 1.0000
44.6100 361.0000 1.0000
44.6200 344.0000 1.0000
44.6300 348.0000 1.0000
44.6400 357.0000 1.0000
44.6500 357.0000 1.0000
44.6600 341.0000 1.0000
44.6700 325.0000 1.0000
44.6800 326.0000 1.0000
44.6900 340.0000 1.0000
44.7000 344.0000 1.0000
44.7100 363.0000 1.0000
44.7200 345.0000 1.0000
44.7300 327.0000 1.0000
44.7400 336.0000 1.0000
44.7500 356.0000 1.0000
44.7600 383.0000 1.0000
44.7700 355.0000 1.0000
44.7800 341.0000 1.0000
44.7900 347.0000 1.0000
44.8000 358.0000 1.0000
44.8100 356.0000 1.0000
44.8200 352.0000 1.0000
44.8300 368.0000 1.0000
44.8400 353.0000 1.0000
44.8500 342.0000 1.0000
44.8600 360.0000 1.0000
44.8700 363.0000 1.0000
44.8800 370.0000 1.0000
44.8900 340.0000 1.0000
44.9000 340.0000 1.0000
44.9100 356.0000 1.0000
44.9200 344.0000 1.0000
44.9300 336.0000 1.0000
44.9400 348.0000 1.0000
44.9500 346.0000 1.0000
44.9600 346.0000 1.0000
44.9700 379.0000 1.0000
44.9800 362.0000 1.0000
44.9900 358.0000 1.0000
45.0000 355.0000 1.0000
45.0100 357.0000 1.0000
45.0200 379.0000 1.0000
45.0300 338.0000 1.0000
45.0400 343.0000 1.0000
45.0500 348.0000 1.0000
45.0600 361.0000 1.0000
45.0700 372.0000 1.0000
45.0800 366.0000 1.0000
45.0900 375.0000 1.0000
45.1000 349.0000 1.0000
45.1100 351.0000 1.0000
45.1200 344.0000 1.0000
45.1300 362.0000 1.0000
45.1400 338.0000 1.0000
45.1500 357.0000 1.0000
45.1600 373.0000 1.0000
45.1700 333.0000 1.0000
45.1800 367.0000 1.0000
45.1900 389.0000 1.0000
45.2000 366.0000 1.0000
45.2100 354.0000 1.0000
45.2200 359.0000 1.0000
45.2300 345.0000 1.0000
45.2400 351.0000 1.0000
45.2500 337.0000 1.0000
45.2600 345.0000 1.0000
45.2700 348.0000 1.0000
45.2800 373.0000 1.0000
45.2900 366.0000 1.0000
45.3000 361.0000 1.0000
45.3100 342.0000 1.0000
45.3200 362.0000 1.0000
45.3300 337.0000 1.0000
45.3400 332.0000 1.0000
45.3500 330.0000 1.0000
45.3600 357.0000 1.0000
45.3700 368.0000 1.0000
45.3800 342.0000 1.0000
45.3900 359.0000 1.0000
45.4000 363.0000 1.0000
45.4100 357.0000 1.0000
45.4200 317.0000 1.0000
45.4300 351.0000 1.0000
45.4400 386.0000 1.0000
45.4500 360.0000 1.0000
45.4600 340.0000 1.0000
45.4700 339.0000 1.0000
45.4800 365.0000 1.0000
45.4900 352.0000 1.0000
45.5000 350.0000 1.0000
45.5100 351.0000 1.0000
45.5200 360.0000 1.0000
45.5300 354.0000 1.0000
45.5400 330.0000 1.0000
45.5500 333.0000 1.0000
45.5600 358.0000 1.0000
45.5700 355.0000 1.0000
45.5800 356.0000 1.0000
45.5900 353.0000 1.0000
45.6000 336.0000 1.0000
45.6100 363.0000 1.0000
45.6200 362.0000 1.0000
45.6300 318.0000 1.0000
45.6400 365.0000 1.0000
45.6500 384.0000 1.0000
45.6600 354.0000 1.0000
45.6700 354.0000 1.0000
45.6800 320.0000 1.0000
45.6900 368.0000 1.0000
45.7000 367.0000 1.0000
45.7100 366.0000 1.0000
45.7200 341.0000 1.0000
45.7300 344.0000 1.0000
45.7400 308.0000 1.0000
45.7500 328.0000 1.0000
45.7600 331.0000 1.0000
45.7700 333.0000 1.0000
45.7800 357.0000 1.0000
45.7900 352.0000 1.0000
45.8000 338.0000 1.0000
45.8100 336.0000 1.0000
45.8200 327.0000 1.0000
45.8300 364.0000 1.0000
45.8400 350.0000 1.0000
45.8500 371.0000 1.0000
45.8600 335.0000 1.0000
45.8700 346.0000 1.0000
45.8800 343.0000 1.0000
45.8900 362.0000 1.0000
45.9000 337.0000 1.0000
45.9100 354.0000 1.0000
45.9200 336.0000 1.0000
45.9300 324.0000 1.0000
45.9400 336.0000 1.0000
45.9500 334.0000 1.0000
45.9600 349.0000 1.0000
45.9700 358.0000 1.0000
45.9800 337.0000 1.0000
45.9900 346.0000 1.0000
46.0000 353.0000 1.0000
46.0100 344.0000 1.0000
46.0200 316.0000 1.0000
46.0300 362.0000 1.0000
46.0400 344.0000 1.0000
46.0500 364.0000 1.0000
46.0600 369.0000 1.0000
46.0700 359.0000 1.0000
46.0800 372.0000 1.0000
46.0900 358.0000 1.0000
46.1000 332.0000 1.0000
46.1100 362.0000 1.0000
46.1200 367.0000 1.0000
46.1300 342.0000 1.0000
46.1400 365.0000 1.0000
46.1500 319.0000 1.0000
46.1600 347.0000 1.0000
46.1700 326.0000 1.0000
46.1800 338.0000 1.0000
46.1900 334.0000 1.0000
46.2000 364.0000 1.0000
46.2100 366.0000 1.0000
46.2200 355.0000 1.0000
46.2300 350.0000 1.0000
46.2400 385.0000 1.0000
46.2500 382.0000 1.0000
46.2600 373.0000 1.0000
46.2700 360.0000 1.0000
46.2800 350.0000 1.0000
46.2900 352.0000 1.0000
46.3000 348.0000 1.0000
46.3100 340.0000 1.0000
46.3200 325.0000 1.0000
46.3300 347.0000 1.0000
46.3400 352.0000 1.0000
46.3500 353.0000 1.0000
46.3600 323.0000 1.0000
46.3700 338.0000 1.0000
46.3800 317.0000 1.0000
46.3900 353.0000 1.0000
46.4000 310.0000 1.0000
46.4100 329.0000 1.0000
46.4200 349.0000 1.0000
46.4300 313.0000 1.0000
46.4400 355.0000 1.0000
46.4500 321.0000 1.0000
46.4600 339.0000 1.0000
46.4700 371.0000 1.0000
46.4800 324.0000 1.0000
46.4900 325.0000 1.0000
46.5000 342.0000 1.0000
46.5100 357.0000 1.0000
46.5200 353.0000 1.0000
46.5300 347.0000 1.0000
46.5400 357.0000 1.0000
46.5500 367.0000 1.0000
46.5600 347.0000 1.0000
46.5700 350.0000 1.0000
46.5800 351.0000 1.0000
46.5900 370.0000 1.0000
46.6000 318.0000 1.0000
46.6100 333.0000 1.0000
46.6200 333.0000 1.0000
46.6300 342.0000 1.0000
46.6400 342.0000 1.0000
46.6500 323.0000 1.0000
46.6600 321.0000 1.0000
46.6700 341.0000 1.0000
46.6800 333.0000 1.0000
46.6900 317.0000 1.0000
46.7000 346.0000 1.0000
46.7100 358.0000 1.0000
46.7200 317.0000 1.0000
46.7300 344.0000 1.0000
46.7400 311.0000 1.0000
46.7500 353.0000 1.0000
46.7600 359.0000 1.0000
46.7700 352.0000 1.0000
46.7800 345.0000 1.0000
46.7900 363.0000 1.0000
46.8000 331.0000 1.0000
46.8100 351.0000 1.0000
46.8200 319.0000 1.0000
46.8300 346.0000 1.0000
46.8400 314.0000 1.0000
46.8500 336.0000 1.0000
46.8600 341.0000 1.0000
46.8700 330.0000 1.0000
46.8800 321.0000 1.0000
46.8900 333.0000 1.0000
46.9000 347.0000 1.0000
46.9100 315.0000 1.0000
46.9200 336.0000 1.0000
46.9300 340.0000 1.0000
46.9400 361.0000 1.0000
46.9500 319.0000 1.0000
46.9600 334.0000 1.0000
46.9700 340.0000 1.0000
46.9800 387.0000 1.0000
46.9900 334.0000 1.0000
47.0000 328.0000 1.0000
47.0100 332.0000 1.0000
47.0200 366.0000 1.0000
47.0300 336.0000 1.0000
47.0400 310.0000 1.0000
47.0500 322.0000 1.0000
47.0600 306.0000 1.0000
47.0700 350.0000 1.0000
47.0800 361.0000 1.0000
47.0900 328.0000 1.0000
47.1000 336.0000 1.0000
47.1100 334.0000 1.0000
47.1200 328.0000 1.0000
47.1300 312.0000 1.0000
47.1400 327.0000 1.0000
47.1500 339.0000 1.0000
47.1600 345.0000 1.0000
47.1700 329.0000 1.0000
47.1800 337.0000 1.0000
47.1900 324.0000 1.0000
47.2000 321.0000 1.0000
47.2100 344.0000 1.0000
47.2200 342.0000 1.0000
47.2300 359.0000 1.0000
47.2400 326.0000 1.0000
47.2500 364.0000 1.0000
47.2600 314.0000 1.0000
47.2700 324.0000 1.0000
47.2800 352.0000 1.0000
47.2900 323.0000 1.0000
47.3000 309.0000 1.0000
47.3100 315.0000 1.0000
47.3200 332.0000 1.0000
47.3300 312.0000 1.0000
47.3400 318.0000 1.0000
47.3500 330.0000 1.0000
47.3600 326.0000 1.0000
47.3700 344.0000 1.0000
47.3800 324.0000 1.0000
47.3900 351.0000 1.0000
47.4000 292.0000 1.0000
47.4100 315.0000 1.0000
47.4200 315.0000 1.0000
47.4300 332.0000 1.0000
47.4400 352.0000 1.0000
47.4500 344.0000 1.0000
47.4600 360.0000 1.0000
47.4700 334.0000 1.0000
47.4800 362.0000 1.0000
47.4900 338.0000 1.0000
47.5000 356.0000 1.0000
47.5100 343.0000 1.0000
47.5200 354.0000 1.0000
47.5300 353.0000 1.0000
47.5400 337.0000 1.0000
47.5500 354.0000 1.0000
47.5600 320.0000 1.0000
47.5700 328.0000 1.0000
47.5800 328.0000 1.0000
47.5900 314.0000 1.0000
47.6000 325.0000 1.0000
47.6100 344.0000 1.0000
47.6200 334.0000 1.0000
47.6300 332.0000 1.0000
47.6400 341.0000 1.0000
47.6500 302.0000 1.0000
47.6600 319.0000 1.0000
47.6700 305.0000 1.0000
47.6800 328.0000 1.0000
47.6900 343.0000 1.0000
47.7000 355.0000 1.0000
47.7100 368.0000 1.0000
47.7200 327.0000 1.0000
47.7300 317.0000 1.0000
47.7400 349.0000 1.0000
47.7500 333.0000 1.0000
47.7600 330.0000 1.0000
47.7700 332.0000 1.0000
47.7800 317.0000 1.0000
47.7900 296.0000 1.0000
47.8000 330.0000 1.0000
47.8100 338.0000 1.0000
47.8200 346.0000 1.0000
47.8300 334.0000 1.0000
47.8400 330.0000 1.0000
47.8500 328.0000 1.0000
47.8600 314.0000 1.0000
47.8700 313.0000 1.0000
47.8800 348.0000 1.0000
47.8900 325.0000 1.0000
47.9000 331.0000 1.0000
47.9100 344.0000 1.0000
47.9200 294.0000 1.0000
47.9300 328.0000 1.0000
47.9400 333.0000 1.0000
47.9500 305.0000 1.0000
47.9600 325.0000 1.0000
47.9700 319.0000 1.0000
47.9800 341.0000 1.0000
47.9900 336.0000 1.0000
48.0000 328.0000 1.0000
48.0100 317.0000 1.0000
48.0200 326.0000 1.0000
48.0300 327.0000 1.0000
48.0400 327.0000 1.0000
48.0500 334.0000 1.0000
48.0600 338.0000 1.0000
48.0700 321.0000 1.0000
48.0800 328.0000 1.0000
48.0900 317.0000 1.0000
48.1000 317.0000 1.0000
48.1100 313.0000 1.0000
48.1200 332.0000 1.0000
48.1300 309.0000 1.0000
48.1400 340.0000 1.0000
48.1500 330.0000 1.0000
48.1600 330.0000 1.0000
48.1700 318.0000 1.0000
48.1800 328.0000 1.0000
48.1900 344.0000 1.0000
48.2000 340.0000 1.0000
48.2100 321.0000 1.0000
48.2200 314.0000 1.0000
48.2300 316.0000 1.0000
48.2400 310.0000 1.0000
48.2500 293.0000 1.0000
48.2600 347.0000 1.0000
48.2700 338.0000 1.0000
48.2800 319.0000 1.0000
48.2900 322.0000 1.0000
48.3000 311.0000 1.0000
48.3100 319.0000 1.0000
48.3200 305.0000 1.0000
48.3300 311.0000 1.0000
48.3400 293.0000 1.0000
48.3500 297.0000 1.0000
48.3600 307.0000 1.0000
48.3700 293.0000 1.0000
48.3800 336.0000 1.0000
48.3900 328.0000 1.0000
48.4000 332.0000 1.0000
48.4100 325.0000 1.0000
48.4200 339.0000 1.0000
48.4300 321.0000 1.0000
48.4400 331.0000 1.0000
48.4500 311.0000 1.0000
48.4600 318.0000 1.0000
48.4700 331.0000 1.0000
48.4800 316.0000 1.0000
48.4900 344.0000 1.0000
48.5000 354.0000 1.0000
48.5100 324.0000 1.0000
48.5200 318.0000 1.0000
48.5300 353.0000 1.0000
48.5400 338.0000 1.0000
48.5500 315.0000 1.0000
48.5600 340.0000 1.0000
48.5700 342.0000 1.0000
48.5800 340.0000 1.0000
48.5900 323.0000 1.0000
48.6000 315.0000 1.0000
48.6100 326.0000 1.0000
48.6200 306.0000 1.0000
48.6300 331.0000 1.0000
48.6400 324.0000 1.0000
48.6500 328.0000 1.0000
48.6600 315.0000 1.0000
48.6700 311.0000 1.0000
48.6800 339.0000 1.0000
48.6900 330.0000 1.0000
48.7000 318.0000 1.0000
48.7100 313.0000 1.0000
48.7200 309.0000 1.0000
48.7300 334.0000 1.0000
48.7400 337.0000 1.0000
48.7500 309.0000 1.0000
48.7600 345.0000 1.0000
48.7700 315.0000 1.0000
48.7800 331.0000 1.0000
48.7900 308.0000 1.0000
48.8000 323.0000 1.0000
48.8100 321.0000 1.0000
48.8200 298.0000 1.0000
48.8300 297.0000 1.0000
48.8400 322.0000 1.0000
48.8500 332.0000 1.0000
48.8600 329.0000 1.0000
48.8700 321.0000 1.0000
48.8800 328.0000 1.0000
48.8900 329.0000 1.0000
48.9000 311.0000 1.0000
48.9100 297.0000 1.0000
48.9200 323.0000 1.0000
48.9300 296.0000 1.0000
48.9400 318.0000 1.0000
48.9500 315.0000 1.0000
48.9600 322.0000 1.0000
48.9700 334.0000 1.0000
48.9800 328.0000 1.0000
48.9900 295.0000 1.0000
49.0000 319.0000 1.0000
49.0100 320.0000 1.0000
49.0200 315.0000 1.0000
49.0300 344.0000 1.0000
49.0400 309.0000 1.0000
49.0500 326.0000 1.0000
49.0600 340.0000 1.0000
49.0700 318.0000 1.0000
49.0800 296.0000 1.0000
49.0900 312.0000 1.0000
49.1000 305.0000 1.0000
49.1100 308.0000 1.0000
49.1200 337.0000 1.0000
49.1300 327.0000 1.0000
49.1400 339.0000 1.0000
49.1500 329.0000 1.0000
49.1600 304.0000 1.0000
49.1700 332.0000 1.0000
49.1800 339.0000 1.0000
49.1900 323.0000 1.0000
49.2000 331.0000 1.0000
49.2100 358.0000 1.0000
49.2200 333.0000 1.0000
49.2300 332.0000 1.0000
49.2400 324.0000 1.0000
49.2500 312.0000 1.0000
49.2600 362.0000 1.0000
49.2700 345.0000 1.0000
49.2800 299.0000 1.0000
49.2900 317.0000 1.0000
49.3000 325.0000 1.0000
49.3100 344.0000 1.0000
49.3200 341.0000 1.0000
49.3300 363.0000 1.0000
49.3400 360.0000 1.0000
49.3500 317.0000 1.0000
49.3600 345.0000 1.0000
49.3700 350.0000 1.0000
49.3800 341.0000 1.0000
49.3900 380.0000 1.0000
49.4000 333.0000 1.0000
49.4100 335.0000 1.0000
49.4200 323.0000 1.0000
49.4300 330.0000 1.0000
49.4400 330.0000 1.0000
49.4500 341.0000 1.0000
49.4600 359.0000 1.0000
49.4700 370.0000 1.0000
49.4800 360.0000 1.0000
49.4900 340.0000 1.0000
49.5000 348.0000 1.0000
49.5100 363.0000 1.0000
49.5200 354.0000 1.0000
49.5300 348.0000 1.0000
49.5400 355.0000 1.0000
49.5500 331.0000 1.0000
49.5600 354.0000 1.0000
49.5700 329.0000 1.0000
49.5800 320.0000 1.0000
49.5900 339.0000 1.0000
49.6000 341.0000 1.0000
49.6100 329.0000 1.0000
49.6200 334.0000 1.0000
49.6300 348.0000 1.0000
49.6400 328.0000 1.0000
49.6500 314.0000 1.0000
49.6600 357.0000 1.0000
49.6700 325.0000 1.0000
49.6800 314.0000 1.0000
49.6900 301.0000 1.0000
49.7000 326.0000 1.0000
49.7100 351.0000 1.0000
49.7200 355.0000 1.0000
49.7300 354.0000 1.0000
49.7400 356.0000 1.0000
49.7500 353.0000 1.0000
49.7600 339.0000 1.0000
49.7700 319.0000 1.0000
49.7800 356.0000 1.0000
49.7900 332.0000 1.0000
49.8000 321.0000 1.0000
49.8100 337.0000 1.0000
49.8200 363.0000 1.0000
49.8300 328.0000 1.0000
49.8400 322.0000 1.0000
49.8500 307.0000 1.0000
49.8600 316.0000 1.0000
49.8700 330.0000 1.0000
49.8800 317.0000 1.0000
49.8900 333.0000 1.0000
49.9000 322.0000 1.0000
49.9100 319.0000 1.0000
49.9200 310.0000 1.0000
49.9300 316.0000 1.0000
49.9400 344.0000 1.0000
49.9500 325.0000 1.0000
49.9600 331.0000 1.0000
49.9700 313.0000 1.0000
49.9800 325.0000 1.0000
49.9900 331.0000 1.0000
50.0000 328.0000 1.0000
50.0100 309.0000 1.0000
50.0200 350.0000 1.0000
50.0300 336.0000 1.0000
50.0400 302.0000 1.0000
50.0500 305.0000 1.0000
50.0600 305.0000 1.0000
50.0700 336.0000 1.0000
50.0800 320.0000 1.0000
50.0900 318.0000 1.0000
50.1000 328.0000 1.0000
50.1100 308.0000 1.0000
50.1200 306.0000 1.0000
50.1300 310.0000 1.0000
50.1400 327.0000 1.0000
50.1500 314.0000 1.0000
50.1600 315.0000 1.0000
50.1700 354.0000 1.0000
50.1800 335.0000 1.0000
50.1900 312.0000 1.0000
50.2000 316.0000 1.0000
50.2100 355.0000 1.0000
50.2200 318.0000 1.0000
50.2300 304.0000 1.0000
50.2400 297.0000 1.0000
50.2500 280.0000 1.0000
50.2600 321.0000 1.0000
50.2700 360.0000 1.0000
50.2800 349.0000 1.0000
50.2900 293.0000 1.0000
50.3000 326.0000 1.0000
50.3100 305.0000 1.0000
50.3200 334.0000 1.0000
50.3300 313.0000 1.0000
50.3400 344.0000 1.0000
50.3500 336.0000 1.0000
50.3600 335.0000 1.0000
50.3700 328.0000 1.0000
50.3800 342.0000 1.0000
50.3900 347.0000 1.0000
50.4000 325.0000 1.0000
50.4100 330.0000 1.0000
50.4200 341.0000 1.0000
50.4300 315.0000 1.0000
50.4400 324.0000 1.0000
50.4500 336.0000 1.0000
50.4600 291.0000 1.0000
50.4700 339.0000 1.0000
50.4800 326.0000 1.0000
50.4900 320.0000 1.0000
50.5000 354.0000 1.0000
50.5100 331.0000 1.0000
50.5200 329.0000 1.0000
50.5300 328.0000 1.0000
50.5400 328.0000 1.0000
50.5500 322.0000 1.0000
50.5600 323.0000 1.0000
50.5700 323.0000 1.0000
50.5800 324.0000 1.0000
50.5900 329.0000 1.0000
50.6000 326.0000 1.0000
50.6100 335.0000 1.0000
50.6200 313.0000 1.0000
50.6300 332.0000 1.0000
50.6400 310.0000 1.0000
50.6500 336.0000 1.0000
50.6600 322.0000 1.0000
50.6700 314.0000 1.0000
50.6800 334.0000 1.0000
50.6900 321.0000 1.0000
50.7000 335.0000 1.0000
50.7100 322.0000 1.0000
50.7200 334.0000 1.0000
50.7300 321.0000 1.0000
50.7400 304.0000 1.0000
50.7500 322.0000 1.0000
50.7600 338.0000 1.0000
50.7700 347.0000 1.0000
50.7800 318.0000 1.0000
50.7900 355.0000 1.0000
50.8000 366.0000 1.0000
50.8100 322.0000 1.0000
50.8200 322.0000 1.0000
50.8300 331.0000 1.0000
50.8400 330.0000 1.0000
50.8500 353.0000 1.0000
50.8600 338.0000 1.0000
50.8700 337.0000 1.0000
50.8800 367.0000 1.0000
50.8900 362.0000 1.0000
50.9000 357.0000 1.0000
50.9100 338.0000 1.0000
50.9200 356.0000 1.0000
50.9300 347.0000 1.0000
50.9400 378.0000 1.0000
50.9500 339.0000 1.0000
50.9600 323.0000 1.0000
50.9700 332.0000 1.0000
50.9800 348.0000 1.0000
50.9900 332.0000 1.0000
51.0000 346.0000 1.0000
51.0100 362.0000 1.0000
51.0200 350.0000 1.0000
51.0300 345.0000 1.0000
51.0400 362.0000 1.0000
51.0500 365.0000 1.0000
51.0600 344.0000 1.0000
51.0700 376.0000 1.0000
51.0800 374.0000 1.0000
51.0900 368.0000 1.0000
51.1000 363.0000 1.0000
51.1100 401.0000 1.0000
51.1200 383.0000 1.0000
51.1300 370.0000 1.0000
51.1400 388.0000 1.0000
51.1500 403.0000 1.0000
51.1600 421.0000 1.0000
51.1700 431.0000 1.0000
51.1800 458.0000 1.0000
51.1900 457.0000 1.0000
51.2000 492.0000 1.0000
51.2100 470.0000 1.0000
51.2200 469.0000 1.0000
51.2300 547.0000 1.0000
51.2400 552.0000 1.0000
51.2500 542.0000 1.0000
51.2600 541.0000 1.0000
51.2700 592.0000 1.0000
51.2800 591.0000 1.0000
51.2900 646.0000 1.0000
51.3000 618.0000 1.0000
51.3100 738.0000 1.0000
51.3200 795.0000 1.0000
51.3300 830.0000 1.0000
51.3400 888.0000 1.0000
51.3500 919.0000 1.0000
51.3600 1073.0000 1.0000
51.3700 1035.0000 1.0000
51.3800 1172.0000 1.0000
51.3900 1254.0000 1.0000
51.4000 1310.0000 1.0000
51.4100 1435.0000 1.0000
51.4200 1526.0000 1.0000
51.4300 1667.0000 1.0000
51.4400 1800.0000 1.0000
51.4500 1921.0000 1.0000
51.4600 1904.0000 1.0000
51.4700 2055.0000 1.0000
51.4800 2148.0000 1.0000
51.4900 2137.0000 1.0000
51.5000 2209.0000 1.0000
51.5100 2128.0000 1.0000
51.5200 2109.0000 1.0000
51.5300 2052.0000 1.0000
51.5400 2023.0000 1.0000
51.5500 2000.0000 1.0000
51.5600 1954.0000 1.0000
51.5700 1808.0000 1.0000
51.5800 1786.0000 1.0000
51.5900 1730.0000 1.0000
51.6000 1683.0000 1.0000
51.6100 1602.0000 1.0000
51.6200 1588.0000 1.0000
51.6300 1559.0000 1.0000
51.6400 1538.0000 1.0000
51.6500 1463.0000 1.0000
51.6600 1418.0000 1.0000
51.6700 1306.0000 1.0000
51.6800 1222.0000 1.0000
51.6900 1165.0000 1.0000
51.7000 1031.0000 1.0000
51.7100 1015.0000 1.0000
51.7200 904.0000 1.0000
51.7300 819.0000 1.0000
51.7400 812.0000 1.0000
51.7500 755.0000 1.0000
51.7600 722.0000 1.0000
51.7700 661.0000 1.0000
51.7800 645.0000 1.0000
51.7900 625.0000 1.0000
51.8000 607.0000 1.0000
51.8100 579.0000 1.0000
51.8200 523.0000 1.0000
51.8300 555.0000 1.0000
51.8400 502.0000 1.0000
51.8500 501.0000 1.0000
51.8600 493.0000 1.0000
51.8700 488.0000 1.0000
51.8800 434.0000 1.0000
51.8900 443.0000 1.0000
51.9000 447.0000 1.0000
51.9100 459.0000 1.0000
51.9200 434.0000 1.0000
51.9300 417.0000 1.0000
51.9400 420.0000 1.0000
51.9500 404.0000 1.0000
51.9600 388.0000 1.0000
51.9700 414.0000 1.0000
51.9800 417.0000 1.0000
51.9900 400.0000 1.0000
52.0000 366.0000 1.0000
52.0100 383.0000 1.0000
52.0200 383.0000 1.0000
52.0300 387.0000 1.0000
52.0400 365.0000 1.0000
52.0500 366.0000 1.0000
52.0600 377.0000 1.0000
52.0700 353.0000 1.0000
52.0800 342.0000 1.0000
52.0900 393.0000 1.0000
52.1000 357.0000 1.0000
52.1100 366.0000 1.0000
52.1200 341.0000 1.0000
52.1300 353.0000 1.0000
52.1400 351.0000 1.0000
52.1500 360.0000 1.0000
52.1600 341.0000 1.0000
52.1700 341.0000 1.0000
52.1800 356.0000 1.0000
52.1900 324.0000 1.0000
52.2000 332.0000 1.0000
52.2100 325.0000 1.0000
52.2200 342.0000 1.0000
52.2300 355.0000 1.0000
52.2400 316.0000 1.0000
52.2500 334.0000 1.0000
52.2600 328.0000 1.0000
52.2700 367.0000 1.0000
52.2800 353.0000 1.0000
52.2900 355.0000 1.0000
52.3000 336.0000 1.0000
52.3100 316.0000 1.0000
52.3200 352.0000 1.0000
52.3300 334.0000 1.0000
52.3400 325.0000 1.0000
52.3500 339.0000 1.0000
52.3600 323.0000 1.0000
52.3700 368.0000 1.0000
52.3800 329.0000 1.0000
52.3900 313.0000 1.0000
52.4000 342.0000 1.0000
52.4100 316.0000 1.0000
52.4200 317.0000 1.0000
52.4300 325.0000 1.0000
52.4400 335.0000 1.0000
52.4500 319.0000 1.0000
52.4600 319.0000 1.0000
52.4700 344.0000 1.0000
52.4800 323.0000 1.0000
52.4900 321.0000 1.0000
52.5000 319.0000 1.0000
52.5100 330.0000 1.0000
52.5200 304.0000 1.0000
52.5300 336.0000 1.0000
52.5400 317.0000 1.0000
52.5500 350.0000 1.0000
52.5600 361.0000 1.0000
52.5700 326.0000 1.0000
52.5800 331.0000 1.0000
52.5900 335.0000 1.0000
52.6000 351.0000 1.0000
52.6100 335.0000 1.0000
52.6200 327.0000 1.0000
52.6300 326.0000 1.0000
52.6400 303.0000 1.0000
52.6500 314.0000 1.0000
52.6600 318.0000 1.0000
52.6700 306.0000 1.0000
52.6800 323.0000 1.0000
52.6900 340.0000 1.0000
52.7000 332.0000 1.0000
52.7100 346.0000 1.0000
52.7200 310.0000 1.0000
52.7300 361.0000 1.0000
52.7400 334.0000 1.0000
52.7500 342.0000 1.0000
52.7600 340.0000 1.0000
52.7700 317.0000 1.0000
52.7800 317.0000 1.0000
52.7900 297.0000 1.0000
52.8000 324.0000 1.0000
52.8100 300.0000 1.0000
52.8200 310.0000 1.0000
52.8300 301.0000 1.0000
52.8400 285.0000 1.0000
52.8500 301.0000 1.0000
52.8600 309.0000 1.0000
52.8700 300.0000 1.0000
52.8800 332.0000 1.0000
52.8900 312.0000 1.0000
52.9000 314.0000 1.0000
52.9100 306.0000 1.0000
52.9200 295.0000 1.0000
52.9300 316.0000 1.0000
52.9400 288.0000 1.0000
52.9500 313.0000 1.0000
52.9600 302.0000 1.0000
52.9700 309.0000 1.0000
52.9800 331.0000 1.0000
52.9900 302.0000 1.0000
53.0000 297.0000 1.0000
53.0100 329.0000 1.0000
53.0200 301.0000 1.0000
53.0300 317.0000 1.0000
53.0400 321.0000 1.0000
53.0500 305.0000 1.0000
53.0600 304.0000 1.0000
53.0700 322.0000 1.0000
53.0800 318.0000 1.0000
53.0900 330.0000 1.0000
53.1000 324.0000 1.0000
53.1100 318.0000 1.0000
53.1200 305.0000 1.0000
53.1300 305.0000 1.0000
53.1400 325.0000 1.0000
53.1500 308.0000 1.0000
53.1600 313.0000 1.0000
53.1700 353.0000 1.0000
53.1800 329.0000 1.0000
53.1900 336.0000 1.0000
53.2000 303.0000 1.0000
53.2100 312.0000 1.0000
53.2200 310.0000 1.0000
53.2300 314.0000 1.0000
53.2400 295.0000 1.0000
53.2500 299.0000 1.0000
53.2600 313.0000 1.0000
53.2700 323.0000 1.0000
53.2800 346.0000 1.0000
53.2900 346.0000 1.0000
53.3000 324.0000 1.0000
53.3100 308.0000 1.0000
53.3200 316.0000 1.0000
53.3300 325.0000 1.0000
53.3400 312.0000 1.0000
53.3500 312.0000 1.0000
53.3600 304.0000 1.0000
53.3700 329.0000 1.0000
53.3800 305.0000 1.0000
53.3900 324.0000 1.0000
53.4000 283.0000 1.0000
53.4100 312.0000 1.0000
53.4200 318.0000 1.0000
53.4300 351.0000 1.0000
53.4400 313.0000 1.0000
53.4500 304.0000 1.0000
53.4600 312.0000 1.0000
53.4700 315.0000 1.0000
53.4800 303.0000 1.0000
53.4900 306.0000 1.0000
53.5000 297.0000 1.0000
53.5100 278.0000 1.0000
53.5200 309.0000 1.0000
53.5300 311.0000 1.0000
53.5400 330.0000 1.0000
53.5500 318.0000 1.0000
53.5600 287.0000 1.0000
53.5700 292.0000 1.0000
53.5800 324.0000 1.0000
53.5900 326.0000 1.0000
53.6000 323.0000 1.0000
53.6100 305.0000 1.0000
53.6200 297.0000 1.0000
53.6300 309.0000 1.0000
53.6400 308.0000 1.0000
53.6500 319.0000 1.0000
53.6600 308.0000 1.0000
53.6700 297.0000 1.0000
53.6800 291.0000 1.0000
53.6900 325.0000 1.0000
53.7000 331.0000 1.0000
53.7100 321.0000 1.0000
53.7200 324.0000 1.0000
53.7300 319.0000 1.0000
53.7400 314.0000 1.0000
53.7500 324.0000 1.0000
53.7600 293.0000 1.0000
53.7700 305.0000 1.0000
53.7800 320.0000 1.0000
53.7900 302.0000 1.0000
53.8000 341.0000 1.0000
53.8100 303.0000 1.0000
53.8200 330.0000 1.0000
53.8300 320.0000 1.0000
53.8400 318.0000 1.0000
53.8500 309.0000 1.0000
53.8600 306.0000 1.0000
53.8700 303.0000 1.0000
53.8800 320.0000 1.0000
53.8900 347.0000 1.0000
53.9000 319.0000 1.0000
53.9100 321.0000 1.0000
53.9200 342.0000 1.0000
53.9300 320.0000 1.0000
53.9400 324.0000 1.0000
53.9500 322.0000 1.0000
53.9600 329.0000 1.0000
53.9700 331.0000 1.0000
53.9800 349.0000 1.0000
53.9900 321.0000 1.0000
54.0000 331.0000 1.0000
54.0100 318.0000 1.0000
54.0200 322.0000 1.0000
54.0300 330.0000 1.0000
54.0400 326.0000 1.0000
54.0500 316.0000 1.0000
54.0600 334.0000 1.0000
54.0700 357.0000 1.0000
54.0800 322.0000 1.0000
54.0900 312.0000 1.0000
54.1000 345.0000 1.0000
54.1100 336.0000 1.0000
54.1200 353.0000 1.0000
54.1300 326.0000 1.0000
54.1400 333.0000 1.0000
54.1500 329.0000 1.0000
54.1600 353.0000 1.0000
54.1700 359.0000 1.0000
54.1800 352.0000 1.0000
54.1900 333.0000 1.0000
54.2000 336.0000 1.0000
54.2100 334.0000 1.0000
54.2200 338.0000 1.0000
54.2300 341.0000 1.0000
54.2400 329.0000 1.0000
54.2500 349.0000 1.0000
54.2600 358.0000 1.0000
54.2700 348.0000 1.0000
54.2800 358.0000 1.0000
54.2900 349.0000 1.0000
54.3000 349.0000 1.0000
54.3100 353.0000 1.0000
54.3200 381.0000 1.0000
54.3300 364.0000 1.0000
54.3400 375.0000 1.0000
54.3500 368.0000 1.0000
54.3600 363.0000 1.0000
54.3700 355.0000 1.0000
54.3800 409.0000 1.0000
54.3900 408.0000 1.0000
54.4000 399.0000 1.0000
54.4100 413.0000 1.0000
54.4200 391.0000 1.0000
54.4300 427.0000 1.0000
54.4400 405.0000 1.0000
54.4500 442.0000 1.0000
54.4600 458.0000 1.0000
54.4700 427.0000 1.0000
54.4800 456.0000 1.0000
54.4900 465.0000 1.0000
54.5000 467.0000 1.0000
54.5100 433.0000 1.0000
54.5200 456.0000 1.0000
54.5300 423.0000 1.0000
54.5400 497.0000 1.0000
54.5500 440.0000 1.0000
54.5600 447.0000 1.0000
54.5700 480.0000 1.0000
54.5800 479.0000 1.0000
54.5900 463.0000 1.0000
54.6000 438.0000 1.0000
54.6100 458.0000 1.0000
54.6200 468.0000 1.0000
54.6300 454.0000 1.0000
54.6400 434.0000 1.0000
54.6500 419.0000 1.0000
54.6600 401.0000 1.0000
54.6700 430.0000 1.0000
54.6800 452.0000 1.0000
54.6900 414.0000 1.0000
54.7000 406.0000 1.0000
54.7100 387.0000 1.0000
54.7200 373.0000 1.0000
54.7300 373.0000 1.0000
54.7400 367.0000 1.0000
54.7500 389.0000 1.0000
54.7600 381.0000 1.0000
54.7700 378.0000 1.0000
54.7800 363.0000 1.0000
54.7900 380.0000 1.0000
54.8000 362.0000 1.0000
54.8100 329.0000 1.0000
54.8200 336.0000 1.0000
54.8300 337.0000 1.0000
54.8400 358.0000 1.0000
54.8500 358.0000 1.0000
54.8600 339.0000 1.0000
54.8700 341.0000 1.0000
54.8800 343.0000 1.0000
54.8900 353.0000 1.0000
54.9000 356.0000 1.0000
54.9100 349.0000 1.0000
54.9200 360.0000 1.0000
54.9300 322.0000 1.0000
54.9400 337.0000 1.0000
54.9500 305.0000 1.0000
54.9600 332.0000 1.0000
54.9700 302.0000 1.0000
54.9800 319.0000 1.0000
54.9900 294.0000 1.0000
55.0000 314.0000 1.0000
55.0100 314.0000 1.0000
55.0200 302.0000 1.0000
55.0300 333.0000 1.0000
55.0400 324.0000 1.0000
55.0500 316.0000 1.0000
55.0600 321.0000 1.0000
55.0700 344.0000 1.0000
55.0800 319.0000 1.0000
55.0900 329.0000 1.0000
55.1000 334.0000 1.0000
55.1100 311.0000 1.0000
55.1200 284.0000 1.0000
55.1300 307.0000 1.0000
55.1400 291.0000 1.0000
55.1500 324.0000 1.0000
55.1600 323.0000 1.0000
55.1700 307.0000 1.0000
55.1800 354.0000 1.0000
55.1900 326.0000 1.0000
55.2000 318.0000 1.0000
55.2100 299.0000 1.0000
55.2200 313.0000 1.0000
55.2300 273.0000 1.0000
55.2400 314.0000 1.0000
55.2500 324.0000 1.0000
55.2600 310.0000 1.0000
55.2700 314.0000 1.0000
55.2800 317.0000 1.0000
55.2900 328.0000 1.0000
55.3000 309.0000 1.0000
55.3100 310.0000 1.0000
55.3200 296.0000 1.0000
55.3300 291.0000 1.0000
55.3400 315.0000 1.0000
55.3500 312.0000 1.0000
55.3600 325.0000 1.0000
55.3700 311.0000 1.0000
55.3800 277.0000 1.0000
55.3900 302.0000 1.0000
55.4000 291.0000 1.0000
55.4100 308.0000 1.0000
55.4200 320.0000 1.0000
55.4300 297.0000 1.0000
55.4400 303.0000 1.0000
55.4500 306.0000 1.0000
55.4600 285.0000 1.0000
55.4700 299.0000 1.0000
55.4800 298.0000 1.0000
55.4900 301.0000 1.0000
55.5000 320.0000 1.0000
55.5100 292.0000 1.0000
55.5200 318.0000 1.0000
55.5300 317.0000 1.0000
55.5400 288.0000 1.0000
55.5500 313.0000 1.0000
55.5600 301.0000 1.0000
55.5700 287.0000 1.0000
55.5800 298.0000 1.0000
55.5900 288.0000 1.0000
55.6000 275.0000 1.0000
55.6100 283.0000 1.0000
55.6200 278.0000 1.0000
55.6300 284.0000 1.0000
55.6400 292.0000 1.0000
55.6500 326.0000 1.0000
55.6600 301.0000 1.0000
55.6700 303.0000 1.0000
55.6800 335.0000 1.0000
55.6900 307.0000 1.0000
55.7000 317.0000 1.0000
55.7100 302.0000 1.0000
55.7200 340.0000 1.0000
55.7300 311.0000 1.0000
55.7400 278.0000 1.0000
55.7500 308.0000 1.0000
55.7600 287.0000 1.0000
55.7700 294.0000 1.0000
55.7800 311.0000 1.0000
55.7900 301.0000 1.0000
55.8000 306.0000 1.0000
55.8100 309.0000 1.0000
55.8200 262.0000 1.0000
55.8300 296.0000 1.0000
55.8400 289.0000 1.0000
55.8500 319.0000 1.0000
55.8600 313.0000 1.0000
55.8700 302.0000 1.0000
55.8800 324.0000 1.0000
55.8900 291.0000 1.0000
55.9000 298.0000 1.0000
55.9100 254.0000 1.0000
55.9200 308.0000 1.0000
55.9300 293.0000 1.0000
55.9400 270.0000 1.0000
55.9500 302.0000 1.0000
55.9600 322.0000 1.0000
55.9700 309.0000 1.0000
55.9800 287.0000 1.0000
55.9900 286.0000 1.0000
56.0000 298.0000 1.0000
56.0100 266.0000 1.0000
56.0200 302.0000 1.0000
56.0300 297.0000 1.0000
56.0400 293.0000 1.0000
56.0500 285.0000 1.0000
56.0600 288.0000 1.0000
56.0700 305.0000 1.0000
56.0800 304.0000 1.0000
56.0900 308.0000 1.0000
56.1000 316.0000 1.0000
56.1100 287.0000 1.0000
56.1200 312.0000 1.0000
56.1300 315.0000 1.0000
56.1400 264.0000 1.0000
56.1500 280.0000 1.0000
56.1600 306.0000 1.0000
56.1700 316.0000 1.0000
56.1800 288.0000 1.0000
56.1900 296.0000 1.0000
56.2000 319.0000 1.0000
56.2100 286.0000 1.0000
56.2200 288.0000 1.0000
56.2300 292.0000 1.0000
56.2400 295.0000 1.0000
56.2500 314.0000 1.0000
56.2600 320.0000 1.0000
56.2700 295.0000 1.0000
56.2800 310.0000 1.0000
56.2900 303.0000 1.0000
56.3000 313.0000 1.0000
56.3100 301.0000 1.0000
56.3200 313.0000 1.0000
56.3300 286.0000 1.0000
56.3400 283.0000 1.0000
56.3500 297.0000 1.0000
56.3600 316.0000 1.0000
56.3700 324.0000 1.0000
56.3800 299.0000 1.0000
56.3900 285.0000 1.0000
56.4000 335.0000 1.0000
56.4100 319.0000 1.0000
56.4200 290.0000 1.0000
56.4300 296.0000 1.0000
56.4400 293.0000 1.0000
56.4500 322.0000 1.0000
56.4600 305.0000 1.0000
56.4700 307.0000 1.0000
56.4800 308.0000 1.0000
56.4900 286.0000 1.0000
56.5000 298.0000 1.0000
56.5100 308.0000 1.0000
56.5200 305.0000 1.0000
56.5300 322.0000 1.0000
56.5400 302.0000 1.0000
56.5500 299.0000 1.0000
56.5600 298.0000 1.0000
56.5700 272.0000 1.0000
56.5800 302.0000 1.0000
56.5900 310.0000 1.0000
56.6000 292.0000 1.0000
56.6100 290.0000 1.0000
56.6200 326.0000 1.0000
56.6300 300.0000 1.0000
56.6400 320.0000 1.0000
56.6500 349.0000 1.0000
56.6600 305.0000 1.0000
56.6700 269.0000 1.0000
56.6800 299.0000 1.0000
56.6900 289.0000 1.0000
56.7000 303.0000 1.0000
56.7100 300.0000 1.0000
56.7200 297.0000 1.0000
56.7300 309.0000 1.0000
56.7400 287.0000 1.0000
56.7500 328.0000 1.0000
56.7600 311.0000 1.0000
56.7700 314.0000 1.0000
56.7800 285.0000 1.0000
56.7900 283.0000 1.0000
56.8000 305.0000 1.0000
56.8100 305.0000 1.0000
56.8200 274.0000 1.0000
56.8300 284.0000 1.0000
56.8400 306.0000 1.0000
56.8500 311.0000 1.0000
56.8600 303.0000 1.0000
56.8700 317.0000 1.0000
56.8800 299.0000 1.0000
56.8900 298.0000 1.0000
56.9000 337.0000 1.0000
56.9100 330.0000 1.0000
56.9200 316.0000 1.0000
56.9300 299.0000 1.0000
56.9400 292.0000 1.0000
56.9500 291.0000 1.0000
56.9600 331.0000 1.0000
56.9700 310.0000 1.0000
56.9800 287.0000 1.0000
56.9900 295.0000 1.0000
57.0000 306.0000 1.0000
57.0100 305.0000 1.0000
57.0200 273.0000 1.0000
57.0300 305.0000 1.0000
57.0400 326.0000 1.0000
57.0500 302.0000 1.0000
57.0600 291.0000 1.0000
57.0700 283.0000 1.0000
57.0800 305.0000 1.0000
57.0900 315.0000 1.0000
57.1000 303.0000 1.0000
57.1100 314.0000 1.0000
57.1200 273.0000 1.0000
57.1300 280.0000 1.0000
57.1400 290.0000 1.0000
57.1500 318.0000 1.0000
57.1600 282.0000 1.0000
57.1700 293.0000 1.0000
57.1800 310.0000 1.0000
57.1900 317.0000 1.0000
57.2000 309.0000 1.0000
57.2100 322.0000 1.0000
57.2200 303.0000 1.0000
57.2300 315.0000 1.0000
57.2400 283.0000 1.0000
57.2500 293.0000 1.0000
57.2600 293.0000 1.0000
57.2700 311.0000 1.0000
57.2800 299.0000 1.0000
57.2900 302.0000 1.0000
57.3000 314.0000 1.0000
57.3100 304.0000 1.0000
57.3200 321.0000 1.0000
57.3300 307.0000 1.0000
57.3400 305.0000 1.0000
57.3500 307.0000 1.0000
57.3600 282.0000 1.0000
57.3700 330.0000 1.0000
57.3800 302.0000 1.0000
57.3900 303.0000 1.0000
57.4000 332.0000 1.0000
57.4100 310.0000 1.0000
57.4200 325.0000 1.0000
57.4300 326.0000 1.0000
57.4400 333.0000 1.0000
57.4500 310.0000 1.0000
57.4600 302.0000 1.0000
57.4700 310.0000 1.0000
57.4800 295.0000 1.0000
57.4900 333.0000 1.0000
57.5000 295.0000 1.0000
57.5100 274.0000 1.0000
57.5200 304.0000 1.0000
57.5300 312.0000 1.0000
57.5400 305.0000 1.0000
57.5500 300.0000 1.0000
57.5600 314.0000 1.0000
57.5700 295.0000 1.0000
57.5800 281.0000 1.0000
57.5900 319.0000 1.0000
57.6000 325.0000 1.0000
57.6100 310.0000 1.0000
57.6200 321.0000 1.0000
57.6300 324.0000 1.0000
57.6400 296.0000 1.0000
57.6500 310.0000 1.0000
57.6600 275.0000 1.0000
57.6700 298.0000 1.0000
57.6800 297.0000 1.0000
57.6900 285.0000 1.0000
57.7000 303.0000 1.0000
57.7100 322.0000 1.0000
57.7200 293.0000 1.0000
57.7300 299.0000 1.0000
57.7400 301.0000 1.0000
57.7500 292.0000 1.0000
57.7600 308.0000 1.0000
57.7700 286.0000 1.0000
57.7800 297.0000 1.0000
57.7900 288.0000 1.0000
57.8000 293.0000 1.0000
57.8100 301.0000 1.0000
57.8200 332.0000 1.0000
57.8300 285.0000 1.0000
57.8400 319.0000 1.0000
57.8500 288.0000 1.0000
57.8600 270.0000 1.0000
57.8700 293.0000 1.0000
57.8800 316.0000 1.0000
57.8900 289.0000 1.0000
57.9000 290.0000 1.0000
57.9100 289.0000 1.0000
57.9200 301.0000 1.0000
57.9300 284.0000 1.0000
57.9400 282.0000 1.0000
57.9500 298.0000 1.0000
57.9600 300.0000 1.0000
57.9700 301.0000 1.0000
57.9800 302.0000 1.0000
57.9900 298.0000 1.0000
58.0000 315.0000 1.0000
58.0100 288.0000 1.0000
58.0200 296.0000 1.0000
58.0300 280.0000 1.0000
58.0400 286.0000 1.0000
58.0500 328.0000 1.0000
58.0600 303.0000 1.0000
58.0700 305.0000 1.0000
58.0800 291.0000 1.0000
58.0900 280.0000 1.0000
58.1000 297.0000 1.0000
58.1100 302.0000 1.0000
58.1200 292.0000 1.0000
58.1300 293.0000 1.0000
58.1400 300.0000 1.0000
58.1500 323.0000 1.0000
58.1600 292.0000 1.0000
58.1700 281.0000 1.0000
58.1800 281.0000 1.0000
58.1900 276.0000 1.0000
58.2000 291.0000 1.0000
58.2100 304.0000 1.0000
58.2200 295.0000 1.0000
58.2300 301.0000 1.0000
58.2400 303.0000 1.0000
58.2500 287.0000 1.0000
58.2600 287.0000 1.0000
58.2700 281.0000 1.0000
58.2800 289.0000 1.0000
58.2900 318.0000 1.0000
58.3000 297.0000 1.0000
58.3100 283.0000 1.0000
58.3200 310.0000 1.0000
58.3300 305.0000 1.0000
58.3400 315.0000 1.0000
58.3500 313.0000 1.0000
58.3600 299.0000 1.0000
58.3700 305.0000 1.0000
58.3800 299.0000 1.0000
58.3900 304.0000 1.0000
58.4000 299.0000 1.0000
58.4100 294.0000 1.0000
58.4200 295.0000 1.0000
58.4300 306.0000 1.0000
58.4400 294.0000 1.0000
58.4500 329.0000 1.0000
58.4600 286.0000 1.0000
58.4700 298.0000 1.0000
58.4800 324.0000 1.0000
58.4900 297.0000 1.0000
58.5000 308.0000 1.0000
58.5100 299.0000 1.0000
58.5200 326.0000 1.0000
58.5300 338.0000 1.0000
58.5400 310.0000 1.0000
58.5500 309.0000 1.0000
58.5600 303.0000 1.0000
58.5700 318.0000 1.0000
58.5800 314.0000 1.0000
58.5900 311.0000 1.0000
58.6000 283.0000 1.0000
58.6100 295.0000 1.0000
58.6200 287.0000 1.0000
58.6300 307.0000 1.0000
58.6400 304.0000 1.0000
58.6500 287.0000 1.0000
58.6600 271.0000 1.0000
58.6700 326.0000 1.0000
58.6800 304.0000 1.0000
58.6900 295.0000 1.0000
58.7000 335.0000 1.0000
58.7100 282.0000 1.0000
58.7200 302.0000 1.0000
58.7300 307.0000 1.0000
58.7400 323.0000 1.0000
58.7500 292.0000 1.0000
58.7600 294.0000 1.0000
58.7700 315.0000 1.0000
58.7800 299.0000 1.0000
58.7900 286.0000 1.0000
58.8000 302.0000 1.0000
58.8100 322.0000 1.0000
58.8200 314.0000 1.0000
58.8300 302.0000 1.0000
58.8400 302.0000 1.0000
58.8500 292.0000 1.0000
58.8600 289.0000 1.0000
58.8700 277.0000 1.0000
58.8800 288.0000 1.0000
58.8900 295.0000 1.0000
58.9000 283.0000 1.0000
58.9100 319.0000 1.0000
58.9200 316.0000 1.0000
58.9300 295.0000 1.0000
58.9400 294.0000 1.0000
58.9500 297.0000 1.0000
58.9600 302.0000 1.0000
58.9700 299.0000 1.0000
58.9800 301.0000 1.0000
58.9900 312.0000 1.0000
59.0000 287.0000 1.0000
59.0100 279.0000 1.0000
59.0200 273.0000 1.0000
59.0300 295.0000 1.0000
59.0400 306.0000 1.0000
59.0500 317.0000 1.0000
59.0600 270.0000 1.0000
59.0700 320.0000 1.0000
59.0800 322.0000 1.0000
59.0900 265.0000 1.0000
59.1000 294.0000 1.0000
59.1100 272.0000 1.0000
59.1200 303.0000 1.0000
59.1300 303.0000 1.0000
59.1400 320.0000 1.0000
59.1500 324.0000 1.0000
59.1600 307.0000 1.0000
59.1700 301.0000 1.0000
59.1800 299.0000 1.0000
59.1900 289.0000 1.0000
59.2000 329.0000 1.0000
59.2100 291.0000 1.0000
59.2200 280.0000 1.0000
59.2300 273.0000 1.0000
59.2400 289.0000 1.0000
59.2500 289.0000 1.0000
59.2600 279.0000 1.0000
59.2700 274.0000 1.0000
59.2800 297.0000 1.0000
59.2900 314.0000 1.0000
59.3000 310.0000 1.0000
59.3100 303.0000 1.0000
59.3200 276.0000 1.0000
59.3300 296.0000 1.0000
59.3400 302.0000 1.0000
59.3500 315.0000 1.0000
59.3600 258.0000 1.0000
59.3700 294.0000 1.0000
59.3800 308.0000 1.0000
59.3900 280.0000 1.0000
59.4000 269.0000 1.0000
59.4100 308.0000 1.0000
59.4200 290.0000 1.0000
59.4300 319.0000 1.0000
59.4400 279.0000 1.0000
59.4500 282.0000 1.0000
59.4600 278.0000 1.0000
59.4700 287.0000 1.0000
59.4800 290.0000 1.0000
59.4900 278.0000 1.0000
59.5000 303.0000 1.0000
59.5100 298.0000 1.0000
59.5200 282.0000 1.0000
59.5300 294.0000 1.0000
59.5400 304.0000 1.0000
59.5500 319.0000 1.0000
59.5600 268.0000 1.0000
59.5700 294.0000 1.0000
59.5800 293.0000 1.0000
59.5900 285.0000 1.0000
59.6000 294.0000 1.0000
59.6100 283.0000 1.0000
59.6200 318.0000 1.0000
59.6300 314.0000 1.0000
59.6400 308.0000 1.0000
59.6500 315.0000 1.0000
59.6600 308.0000 1.0000
59.6700 275.0000 1.0000
59.6800 284.0000 1.0000
59.6900 292.0000 1.0000
59.7000 284.0000 1.0000
59.7100 269.0000 1.0000
59.7200 304.0000 1.0000
59.7300 299.0000 1.0000
59.7400 289.0000 1.0000
59.7500 303.0000 1.0000
59.7600 286.0000 1.0000
59.7700 281.0000 1.0000
59.7800 285.0000 1.0000
59.7900 298.0000 1.0000
59.8000 291.0000 1.0000
59.8100 292.0000 1.0000
59.8200 274.0000 1.0000
59.8300 278.0000 1.0000
59.8400 292.0000 1.0000
59.8500 284.0000 1.0000
59.8600 307.0000 1.0000
59.8700 294.0000 1.0000
59.8800 274.0000 1.0000
59.8900 289.0000 1.0000
59.9000 296.0000 1.0000
59.9100 304.0000 1.0000
59.9200 273.0000 1.0000
59.9300 283.0000 1.0000
59.9400 283.0000 1.0000
59.9500 297.0000 1.0000
59.9600 287.0000 1.0000
59.9700 283.0000 1.0000
59.9800 299.0000 1.0000
59.9900 293.0000 1.0000
60.0000 293.0000 1.0000
60.0100 282.0000 1.0000
60.0200 286.0000 1.0000
60.0300 272.0000 1.0000
60.0400 302.0000 1.0000
60.0500 299.0000 1.0000
60.0600 302.0000 1.0000
60.0700 267.0000 1.0000
60.0800 260.0000 1.0000
60.0900 310.0000 1.0000
60.1000 300.0000 1.0000
60.1100 312.0000 1.0000
60.1200 297.0000 1.0000
60.1300 278.0000 1.0000
60.1400 288.0000 1.0000
60.1500 305.0000 1.0000
60.1600 288.0000 1.0000
60.1700 287.0000 1.0000
60.1800 294.0000 1.0000
60.1900 311.0000 1.0000
60.2000 292.0000 1.0000
60.2100 294.0000 1.0000
60.2200 261.0000 1.0000
60.2300 306.0000 1.0000
60.2400 277.0000 1.0000
60.2500 284.0000 1.0000
60.2600 293.0000 1.0000
60.2700 295.0000 1.0000
60.2800 286.0000 1.0000
60.2900 276.0000 1.0000
60.3000 310.0000 1.0000
60.3100 296.0000 1.0000
60.3200 274.0000 1.0000
60.3300 300.0000 1.0000
60.3400 307.0000 1.0000
60.3500 299.0000 1.0000
60.3600 269.0000 1.0000
60.3700 278.0000 1.0000
60.3800 301.0000 1.0000
60.3900 299.0000 1.0000
60.4000 320.0000 1.0000
60.4100 330.0000 1.0000
60.4200 310.0000 1.0000
60.4300 302.0000 1.0000
60.4400 309.0000 1.0000
60.4500 287.0000 1.0000
60.4600 284.0000 1.0000
60.4700 291.0000 1.0000
60.4800 295.0000 1.0000
60.4900 296.0000 1.0000
60.5000 297.0000 1.0000
60.5100 297.0000 1.0000
60.5200 307.0000 1.0000
60.5300 313.0000 1.0000
60.5400 305.0000 1.0000
60.5500 296.0000 1.0000
60.5600 286.0000 1.0000
60.5700 298.0000 1.0000
60.5800 298.0000 1.0000
60.5900 287.0000 1.0000
60.6000 301.0000 1.0000
60.6100 300.0000 1.0000
60.6200 283.0000 1.0000
60.6300 300.0000 1.0000
60.6400 282.0000 1.0000
60.6500 302.0000 1.0000
60.6600 327.0000 1.0000
60.6700 288.0000 1.0000
60.6800 270.0000 1.0000
60.6900 315.0000 1.0000
60.7000 276.0000 1.0000
60.7100 327.0000 1.0000
60.7200 280.0000 1.0000
60.7300 280.0000 1.0000
60.7400 302.0000 1.0000
60.7500 281.0000 1.0000
60.7600 306.0000 1.0000
60.7700 305.0000 1.0000
60.7800 286.0000 1.0000
60.7900 320.0000 1.0000
60.8000 323.0000 1.0000
60.8100 303.0000 1.0000
60.8200 291.0000 1.0000
60.8300 305.0000 1.0000
60.8400 307.0000 1.0000
60.8500 307.0000 1.0000
60.8600 314.0000 1.0000
60.8700 318.0000 1.0000
60.8800 311.0000 1.0000
60.8900 304.0000 1.0000
60.9000 316.0000 1.0000
60.9100 296.0000 1.0000
60.9200 286.0000 1.0000
60.9300 321.0000 1.0000
60.9400 286.0000 1.0000
60.9500 304.0000 1.0000
60.9600 264.0000 1.0000
60.9700 297.0000 1.0000
60.9800 306.0000 1.0000
60.9900 322.0000 1.0000
61.0000 314.0000 1.0000
61.0100 334.0000 1.0000
61.0200 286.0000 1.0000
61.0300 301.0000 1.0000
61.0400 327.0000 1.0000
61.0500 320.0000 1.0000
61.0600 297.0000 1.0000
61.0700 314.0000 1.0000
61.0800 311.0000 1.0000
61.0900 329.0000 1.0000
61.1000 309.0000 1.0000
61.1100 328.0000 1.0000
61.1200 308.0000 1.0000
61.1300 320.0000 1.0000
61.1400 327.0000 1.0000
61.1500 333.0000 1.0000
61.1600 310.0000 1.0000
61.1700 333.0000 1.0000
61.1800 334.0000 1.0000
61.1900 352.0000 1.0000
61.2000 329.0000 1.0000
61.2100 322.0000 1.0000
61.2200 355.0000 1.0000
61.2300 344.0000 1.0000
61.2400 367.0000 1.0000
61.2500 370.0000 1.0000
61.2600 341.0000 1.0000
61.2700 353.0000 1.0000
61.2800 370.0000 1.0000
61.2900 397.0000 1.0000
61.3000 398.0000 1.0000
61.3100 400.0000 1.0000
61.3200 432.0000 1.0000
61.3300 393.0000 1.0000
61.3400 412.0000 1.0000
61.3500 417.0000 1.0000
61.3600 438.0000 1.0000
61.3700 410.0000 1.0000
61.3800 474.0000 1.0000
61.3900 459.0000 1.0000
61.4000 480.0000 1.0000
61.4100 526.0000 1.0000
61.4200 545.0000 1.0000
61.4300 510.0000 1.0000
61.4400 537.0000 1.0000
61.4500 558.0000 1.0000
61.4600 565.0000 1.0000
61.4700 586.0000 1.0000
61.4800 556.0000 1.0000
61.4900 584.0000 1.0000
61.5000 617.0000 1.0000
61.5100 577.0000 1.0000
61.5200 632.0000 1.0000
61.5300 614.0000 1.0000
61.5400 621.0000 1.0000
61.5500 635.0000 1.0000
61.5600 655.0000 1.0000
61.5700 630.0000 1.0000
61.5800 638.0000 1.0000
61.5900 605.0000 1.0000
61.6000 619.0000 1.0000
61.6100 581.0000 1.0000
61.6200 623.0000 1.0000
61.6300 629.0000 1.0000
61.6400 594.0000 1.0000
61.6500 618.0000 1.0000
61.6600 574.0000 1.0000
61.6700 607.0000 1.0000
61.6800 585.0000 1.0000
61.6900 541.0000 1.0000
61.7000 538.0000 1.0000
61.7100 541.0000 1.0000
61.7200 530.0000 1.0000
61.7300 517.0000 1.0000
61.7400 538.0000 1.0000
61.7500 559.0000 1.0000
61.7600 509.0000 1.0000
61.7700 488.0000 1.0000
61.7800 497.0000 1.0000
61.7900 475.0000 1.0000
61.8000 493.0000 1.0000
61.8100 472.0000 1.0000
61.8200 486.0000 1.0000
61.8300 459.0000 1.0000
61.8400 423.0000 1.0000
61.8500 404.0000 1.0000
61.8600 414.0000 1.0000
61.8700 411.0000 1.0000
61.8800 434.0000 1.0000
61.8900 399.0000 1.0000
61.9000 387.0000 1.0000
61.9100 380.0000 1.0000
61.9200 345.0000 1.0000
61.9300 383.0000 1.0000
61.9400 396.0000 1.0000
61.9500 353.0000 1.0000
61.9600 365.0000 1.0000
61.9700 347.0000 1.0000
61.9800 379.0000 1.0000
61.9900 345.0000 1.0000
62.0000 343.0000 1.0000
62.0100 336.0000 1.0000
62.0200 353.0000 1.0000
62.0300 363.0000 1.0000
62.0400 344.0000 1.0000
62.0500 354.0000 1.0000
62.0600 333.0000 1.0000
62.0700 325.0000 1.0000
62.0800 361.0000 1.0000
62.0900 344.0000 1.0000
62.1000 338.0000 1.0000
62.1100 349.0000 1.0000
62.1200 351.0000 1.0000
62.1300 299.0000 1.0000
62.1400 322.0000 1.0000
62.1500 340.0000 1.0000
62.1600 331.0000 1.0000
62.1700 335.0000 1.0000
62.1800 321.0000 1.0000
62.1900 316.0000 1.0000
62.2000 324.0000 1.0000
62.2100 330.0000 1.0000
62.2200 316.0000 1.0000
62.2300 342.0000 1.0000
62.2400 332.0000 1.0000
62.2500 345.0000 1.0000
62.2600 322.0000 1.0000
62.2700 341.0000 1.0000
62.2800 340.0000 1.0000
62.2900 341.0000 1.0000
62.3000 326.0000 1.0000
62.3100 325.0000 1.0000
62.3200 304.0000 1.0000
62.3300 313.0000 1.0000
62.3400 340.0000 1.0000
62.3500 309.0000 1.0000
62.3600 320.0000 1.0000
62.3700 341.0000 1.0000
62.3800 333.0000 1.0000
62.3900 335.0000 1.0000
62.4000 329.0000 1.0000
62.4100 333.0000 1.0000
62.4200 312.0000 1.0000
62.4300 328.0000 1.0000
62.4400 336.0000 1.0000
62.4500 333.0000 1.0000
62.4600 350.0000 1.0000
62.4700 324.0000 1.0000
62.4800 338.0000 1.0000
62.4900 317.0000 1.0000
62.5000 332.0000 1.0000
62.5100 346.0000 1.0000
62.5200 339.0000 1.0000
62.5300 326.0000 1.0000
62.5400 329.0000 1.0000
62.5500 297.0000 1.0000
62.5600 304.0000 1.0000
62.5700 305.0000 1.0000
62.5800 293.0000 1.0000
62.5900 298.0000 1.0000
62.6000 328.0000 1.0000
62.6100 316.0000 1.0000
62.6200 344.0000 1.0000
62.6300 320.0000 1.0000
62.6400 310.0000 1.0000
62.6500 308.0000 1.0000
62.6600 282.0000 1.0000
62.6700 299.0000 1.0000
62.6800 297.0000 1.0000
62.6900 316.0000 1.0000
62.7000 298.0000 1.0000
62.7100 295.0000 1.0000
62.7200 295.0000 1.0000
62.7300 308.0000 1.0000
62.7400 286.0000 1.0000
62.7500 312.0000 1.0000
62.7600 301.0000 1.0000
62.7700 288.0000 1.0000
62.7800 321.0000 1.0000
62.7900 288.0000 1.0000
62.8000 292.0000 1.0000
62.8100 278.0000 1.0000
62.8200 312.0000 1.0000
62.8300 337.0000 1.0000
62.8400 343.0000 1.0000
62.8500 297.0000 1.0000
62.8600 287.0000 1.0000
62.8700 292.0000 1.0000
62.8800 314.0000 1.0000
62.8900 307.0000 1.0000
62.9000 320.0000 1.0000
62.9100 298.0000 1.0000
62.9200 274.0000 1.0000
62.9300 304.0000 1.0000
62.9400 303.0000 1.0000
62.9500 305.0000 1.0000
62.9600 289.0000 1.0000
62.9700 288.0000 1.0000
62.9800 291.0000 1.0000
62.9900 312.0000 1.0000
63.0000 286.0000 1.0000
63.0100 263.0000 1.0000
63.0200 307.0000 1.0000
63.0300 313.0000 1.0000
63.0400 325.0000 1.0000
63.0500 311.0000 1.0000
63.0600 295.0000 1.0000
63.0700 309.0000 1.0000
63.0800 261.0000 1.0000
63.0900 318.0000 1.0000
63.1000 296.0000 1.0000
63.1100 267.0000 1.0000
63.1200 291.0000 1.0000
63.1300 285.0000 1.0000
63.1400 300.0000 1.0000
63.1500 317.0000 1.0000
63.1600 319.0000 1.0000
63.1700 301.0000 1.0000
63.1800 318.0000 1.0000
63.1900 311.0000 1.0000
63.2000 301.0000 1.0000
63.2100 299.0000 1.0000
63.2200 297.0000 1.0000
63.2300 291.0000 1.0000
63.2400 280.0000 1.0000
63.2500 288.0000 1.0000
63.2600 301.0000 1.0000
63.2700 305.0000 1.0000
63.2800 318.0000 1.0000
63.2900 276.0000 1.0000
63.3000 285.0000 1.0000
63.3100 281.0000 1.0000
63.3200 298.0000 1.0000
63.3300 313.0000 1.0000
63.3400 299.0000 1.0000
63.3500 260.0000 1.0000
63.3600 283.0000 1.0000
63.3700 282.0000 1.0000
63.3800 321.0000 1.0000
63.3900 276.0000 1.0000
63.4000 293.0000 1.0000
63.4100 307.0000 1.0000
63.4200 306.0000 1.0000
63.4300 291.0000 1.0000
63.4400 290.0000 1.0000
63.4500 289.0000 1.0000
63.4600 273.0000 1.0000
63.4700 309.0000 1.0000
63.4800 283.0000 1.0000
63.4900 302.0000 1.0000
63.5000 296.0000 1.0000
63.5100 265.0000 1.0000
63.5200 287.0000 1.0000
63.5300 319.0000 1.0000
63.5400 311.0000 1.0000
63.5500 326.0000 1.0000
63.5600 313.0000 1.0000
63.5700 296.0000 1.0000
63.5800 328.0000 1.0000
63.5900 282.0000 1.0000
63.6000 330.0000 1.0000
63.6100 315.0000 1.0000
63.6200 316.0000 1.0000
63.6300 322.0000 1.0000
63.6400 320.0000 1.0000
63.6500 318.0000 1.0000
63.6600 330.0000 1.0000
63.6700 316.0000 1.0000
63.6800 302.0000 1.0000
63.6900 300.0000 1.0000
63.7000 323.0000 1.0000
63.7100 304.0000 1.0000
63.7200 318.0000 1.0000
63.7300 351.0000 1.0000
63.7400 316.0000 1.0000
63.7500 334.0000 1.0000
63.7600 331.0000 1.0000
63.7700 323.0000 1.0000
63.7800 356.0000 1.0000
63.7900 383.0000 1.0000
63.8000 342.0000 1.0000
63.8100 373.0000 1.0000
63.8200 389.0000 1.0000
63.8300 373.0000 1.0000
63.8400 381.0000 1.0000
63.8500 392.0000 1.0000
63.8600 386.0000 1.0000
63.8700 439.0000 1.0000
63.8800 444.0000 1.0000
63.8900 414.0000 1.0000
63.9000 415.0000 1.0000
63.9100 416.0000 1.0000
63.9200 436.0000 1.0000
63.9300 465.0000 1.0000
63.9400 489.0000 1.0000
63.9500 448.0000 1.0000
63.9600 485.0000 1.0000
63.9700 481.0000 1.0000
63.9800 461.0000 1.0000
63.9900 500.0000 1.0000
64.0000 444.0000 1.0000
64.0100 440.0000 1.0000
64.0200 444.0000 1.0000
64.0300 424.0000 1.0000
64.0400 420.0000 1.0000
64.0500 422.0000 1.0000
64.0600 409.0000 1.0000
64.0700 418.0000 1.0000
64.0800 446.0000 1.0000
64.0900 424.0000 1.0000
64.1000 427.0000 1.0000
64.1100 401.0000 1.0000
64.1200 412.0000 1.0000
64.1300 381.0000 1.0000
64.1400 399.0000 1.0000
64.1500 423.0000 1.0000
64.1600 416.0000 1.0000
64.1700 405.0000 1.0000
64.1800 407.0000 1.0000
64.1900 380.0000 1.0000
64.2000 376.0000 1.0000
64.2100 336.0000 1.0000
64.2200 361.0000 1.0000
64.2300 359.0000 1.0000
64.2400 331.0000 1.0000
64.2500 341.0000 1.0000
64.2600 332.0000 1.0000
64.2700 316.0000 1.0000
64.2800 349.0000 1.0000
64.2900 343.0000 1.0000
64.3000 350.0000 1.0000
64.3100 345.0000 1.0000
64.3200 334.0000 1.0000
64.3300 358.0000 1.0000
64.3400 337.0000 1.0000
64.3500 304.0000 1.0000
64.3600 351.0000 1.0000
64.3700 356.0000 1.0000
64.3800 292.0000 1.0000
64.3900 325.0000 1.0000
64.4000 329.0000 1.0000
64.4100 312.0000 1.0000
64.4200 277.0000 1.0000
64.4300 336.0000 1.0000
64.4400 340.0000 1.0000
64.4500 315.0000 1.0000
64.4600 361.0000 1.0000
64.4700 363.0000 1.0000
64.4800 344.0000 1.0000
64.4900 317.0000 1.0000
64.5000 316.0000 1.0000
64.5100 307.0000 1.0000
64.5200 272.0000 1.0000
64.5300 285.0000 1.0000
64.5400 343.0000 1.0000
64.5500 324.0000 1.0000
64.5600 305.0000 1.0000
64.5700 303.0000 1.0000
64.5800 320.0000 1.0000
64.5900 311.0000 1.0000
64.6000 291.0000 1.0000
64.6100 271.0000 1.0000
64.6200 300.0000 1.0000
64.6300 322.0000 1.0000
64.6400 293.0000 1.0000
64.6500 321.0000 1.0000
64.6600 316.0000 1.0000
64.6700 324.0000 1.0000
64.6800 288.0000 1.0000
64.6900 342.0000 1.0000
64.7000 312.0000 1.0000
64.7100 288.0000 1.0000
64.7200 301.0000 1.0000
64.7300 306.0000 1.0000
64.7400 309.0000 1.0000
64.7500 274.0000 1.0000
64.7600 316.0000 1.0000
64.7700 312.0000 1.0000
64.7800 304.0000 1.0000
64.7900 319.0000 1.0000
64.8000 311.0000 1.0000
64.8100 295.0000 1.0000
64.8200 309.0000 1.0000
64.8300 318.0000 1.0000
64.8400 307.0000 1.0000
64.8500 332.0000 1.0000
64.8600 282.0000 1.0000
64.8700 300.0000 1.0000
64.8800 302.0000 1.0000
64.8900 313.0000 1.0000
64.9000 292.0000 1.0000
64.9100 319.0000 1.0000
64.9200 299.0000 1.0000
64.9300 294.0000 1.0000
64.9400 290.0000 1.0000
64.9500 306.0000 1.0000
64.9600 325.0000 1.0000
64.9700 322.0000 1.0000
64.9800 323.0000 1.0000
64.9900 301.0000 1.0000
65.0000 320.0000 1.0000
65.0100 327.0000 1.0000
65.0200 336.0000 1.0000
65.0300 313.0000 1.0000
65.0400 343.0000 1.0000
65.0500 317.0000 1.0000
65.0600 317.0000 1.0000
65.0700 324.0000 1.0000
65.0800 348.0000 1.0000
65.0900 334.0000 1.0000
65.1000 319.0000 1.0000
65.1100 353.0000 1.0000
65.1200 361.0000 1.0000
65.1300 348.0000 1.0000
65.1400 366.0000 1.0000
65.1500 357.0000 1.0000
65.1600 358.0000 1.0000
65.1700 360.0000 1.0000
65.1800 350.0000 1.0000
65.1900 391.0000 1.0000
65.2000 369.0000 1.0000
65.2100 374.0000 1.0000
65.2200 365.0000 1.0000
65.2300 403.0000 1.0000
65.2400 413.0000 1.0000
65.2500 423.0000 1.0000
65.2600 397.0000 1.0000
65.2700 400.0000 1.0000
65.2800 440.0000 1.0000
65.2900 442.0000 1.0000
65.3000 407.0000 1.0000
65.3100 469.0000 1.0000
65.3200 493.0000 1.0000
65.3300 492.0000 1.0000
65.3400 540.0000 1.0000
65.3500 524.0000 1.0000
65.3600 537.0000 1.0000
65.3700 581.0000 1.0000
65.3800 566.0000 1.0000
65.3900 636.0000 1.0000
65.4000 661.0000 1.0000
65.4100 687.0000 1.0000
65.4200 724.0000 1.0000
65.4300 723.0000 1.0000
65.4400 757.0000 1.0000
65.4500 820.0000 1.0000
65.4600 833.0000 1.0000
65.4700 859.0000 1.0000
65.4800 901.0000 1.0000
65.4900 959.0000 1.0000
65.5000 951.0000 1.0000
65.5100 1031.0000 1.0000
65.5200 1036.0000 1.0000
65.5300 1005.0000 1.0000
65.5400 1060.0000 1.0000
65.5500 1109.0000 1.0000
65.5600 1055.0000 1.0000
65.5700 1077.0000 1.0000
65.5800 1076.0000 1.0000
65.5900 1060.0000 1.0000
65.6000 1106.0000 1.0000
65.6100 1016.0000 1.0000
65.6200 1006.0000 1.0000
65.6300 970.0000 1.0000
65.6400 1011.0000 1.0000
65.6500 952.0000 1.0000
65.6600 961.0000 1.0000
65.6700 890.0000 1.0000
65.6800 907.0000 1.0000
65.6900 891.0000 1.0000
65.7000 881.0000 1.0000
65.7100 836.0000 1.0000
65.7200 880.0000 1.0000
65.7300 816.0000 1.0000
65.7400 805.0000 1.0000
65.7500 826.0000 1.0000
65.7600 748.0000 1.0000
65.7700 749.0000 1.0000
65.7800 731.0000 1.0000
65.7900 695.0000 1.0000
65.8000 711.0000 1.0000
65.8100 681.0000 1.0000
65.8200 625.0000 1.0000
65.8300 618.0000 1.0000
65.8400 606.0000 1.0000
65.8500 561.0000 1.0000
65.8600 534.0000 1.0000
65.8700 533.0000 1.0000
65.8800 475.0000 1.0000
65.8900 483.0000 1.0000
65.9000 474.0000 1.0000
65.9100 441.0000 1.0000
65.9200 462.0000 1.0000
65.9300 428.0000 1.0000
65.9400 428.0000 1.0000
65.9500 387.0000 1.0000
65.9600 392.0000 1.0000
65.9700 390.0000 1.0000
65.9800 366.0000 1.0000
65.9900 388.0000 1.0000
66.0000 370.0000 1.0000
66.0100 387.0000 1.0000
66.0200 394.0000 1.0000
66.0300 367.0000 1.0000
66.0400 341.0000 1.0000
66.0500 338.0000 1.0000
66.0600 361.0000 1.0000
66.0700 363.0000 1.0000
66.0800 367.0000 1.0000
66.0900 337.0000 1.0000
66.1000 326.0000 1.0000
66.1100 339.0000 1.0000
66.1200 318.0000 1.0000
66.1300 308.0000 1.0000
66.1400 330.0000 1.0000
66.1500 326.0000 1.0000
66.1600 321.0000 1.0000
66.1700 287.0000 1.0000
66.1800 304.0000 1.0000
66.1900 301.0000 1.0000
66.2000 312.0000 1.0000
66.2100 309.0000 1.0000
66.2200 292.0000 1.0000
66.2300 301.0000 1.0000
66.2400 320.0000 1.0000
66.2500 278.0000 1.0000
66.2600 292.0000 1.0000
66.2700 296.0000 1.0000
66.2800 310.0000 1.0000
66.2900 285.0000 1.0000
66.3000 290.0000 1.0000
66.3100 290.0000 1.0000
66.3200 293.0000 1.0000
66.3300 295.0000 1.0000
66.3400 314.0000 1.0000
66.3500 307.0000 1.0000
66.3600 296.0000 1.0000
66.3700 303.0000 1.0000
66.3800 272.0000 1.0000
66.3900 322.0000 1.0000
66.4000 291.0000 1.0000
66.4100 277.0000 1.0000
66.4200 271.0000 1.0000
66.4300 267.0000 1.0000
66.4400 298.0000 1.0000
66.4500 292.0000 1.0000
66.4600 288.0000 1.0000
66.4700 274.0000 1.0000
66.4800 301.0000 1.0000
66.4900 288.0000 1.0000
66.5000 293.0000 1.0000
66.5100 282.0000 1.0000
66.5200 311.0000 1.0000
66.5300 307.0000 1.0000
66.5400 284.0000 1.0000
66.5500 299.0000 1.0000
66.5600 281.0000 1.0000
66.5700 277.0000 1.0000
66.5800 283.0000 1.0000
66.5900 289.0000 1.0000
66.6000 276.0000 1.0000
66.6100 281.0000 1.0000
66.6200 281.0000 1.0000
66.6300 259.0000 1.0000
66.6400 275.0000 1.0000
66.6500 255.0000 1.0000
66.6600 266.0000 1.0000
66.6700 289.0000 1.0000
66.6800 287.0000 1.0000
66.6900 288.0000 1.0000
66.7000 270.0000 1.0000
66.7100 256.0000 1.0000
66.7200 259.0000 1.0000
66.7300 298.0000 1.0000
66.7400 249.0000 1.0000
66.7500 242.0000 1.0000
66.7600 288.0000 1.0000
66.7700 274.0000 1.0000
66.7800 270.0000 1.0000
66.7900 296.0000 1.0000
66.8000 281.0000 1.0000
66.8100 289.0000 1.0000
66.8200 284.0000 1.0000
66.8300 278.0000 1.0000
66.8400 289.0000 1.0000
66.8500 271.0000 1.0000
66.8600 279.0000 1.0000
66.8700 279.0000 1.0000
66.8800 269.0000 1.0000
66.8900 283.0000 1.0000
66.9000 268.0000 1.0000
66.9100 287.0000 1.0000
66.9200 274.0000 1.0000
66.9300 250.0000 1.0000
66.9400 253.0000 1.0000
66.9500 275.0000 1.0000
66.9600 257.0000 1.0000
66.9700 268.0000 1.0000
66.9800 286.0000 1.0000
66.9900 255.0000 1.0000
67.0000 260.0000 1.0000
67.0100 260.0000 1.0000
67.0200 260.0000 1.0000
67.0300 280.0000 1.0000
67.0400 293.0000 1.0000
67.0500 297.0000 1.0000
67.0600 292.0000 1.0000
67.0700 267.0000 1.0000
67.0800 255.0000 1.0000
67.0900 293.0000 1.0000
67.1000 290.0000 1.0000
67.1100 263.0000 1.0000
67.1200 308.0000 1.0000
67.1300 261.0000 1.0000
67.1400 259.0000 1.0000
67.1500 266.0000 1.0000
67.1600 269.0000 1.0000
67.1700 250.0000 1.0000
67.1800 251.0000 1.0000
67.1900 251.0000 1.0000
67.2000 267.0000 1.0000
67.2100 261.0000 1.0000
67.2200 253.0000 1.0000
67.2300 279.0000 1.0000
67.2400 296.0000 1.0000
67.2500 273.0000 1.0000
67.2600 274.0000 1.0000
67.2700 272.0000 1.0000
67.2800 279.0000 1.0000
67.2900 266.0000 1.0000
67.3000 268.0000 1.0000
67.3100 270.0000 1.0000
67.3200 261.0000 1.0000
67.3300 285.0000 1.0000
67.3400 271.0000 1.0000
67.3500 286.0000 1.0000
67.3600 295.0000 1.0000
67.3700 250.0000 1.0000
67.3800 246.0000 1.0000
67.3900 282.0000 1.0000
67.4000 282.0000 1.0000
67.4100 265.0000 1.0000
67.4200 277.0000 1.0000
67.4300 266.0000 1.0000
67.4400 267.0000 1.0000
67.4500 264.0000 1.0000
67.4600 272.0000 1.0000
67.4700 257.0000 1.0000
67.4800 277.0000 1.0000
67.4900 267.0000 1.0000
67.5000 258.0000 1.0000
67.5100 243.0000 1.0000
67.5200 249.0000 1.0000
67.5300 268.0000 1.0000
67.5400 274.0000 1.0000
67.5500 261.0000 1.0000
67.5600 295.0000 1.0000
67.5700 281.0000 1.0000
67.5800 256.0000 1.0000
67.5900 253.0000 1.0000
67.6000 251.0000 1.0000
67.6100 246.0000 1.0000
67.6200 268.0000 1.0000
67.6300 255.0000 1.0000
67.6400 268.0000 1.0000
67.6500 274.0000 1.0000
67.6600 259.0000 1.0000
67.6700 269.0000 1.0000
67.6800 261.0000 1.0000
67.6900 279.0000 1.0000
67.7000 263.0000 1.0000
67.7100 244.0000 1.0000
67.7200 273.0000 1.0000
67.7300 273.0000 1.0000
67.7400 285.0000 1.0000
67.7500 263.0000 1.0000
67.7600 246.0000 1.0000
67.7700 258.0000 1.0000
67.7800 292.0000 1.0000
67.7900 262.0000 1.0000
67.8000 244.0000 1.0000
67.8100 254.0000 1.0000
67.8200 247.0000 1.0000
67.8300 251.0000 1.0000
67.8400 261.0000 1.0000
67.8500 261.0000 1.0000
67.8600 287.0000 1.0000
67.8700 257.0000 1.0000
67.8800 298.0000 1.0000
67.8900 254.0000 1.0000
67.9000 252.0000 1.0000
67.9100 241.0000 1.0000
67.9200 268.0000 1.0000
67.9300 262.0000 1.0000
67.9400 277.0000 1.0000
67.9500 251.0000 1.0000
67.9600 291.0000 1.0000
67.9700 250.0000 1.0000
67.9800 263.0000 1.0000
67.9900 263.0000 1.0000
68.0000 251.0000 1.0000
68.0100 255.0000 1.0000
68.0200 260.0000 1.0000
68.0300 258.0000 1.0000
68.0400 248.0000 1.0000
68.0500 261.0000 1.0000
68.0600 273.0000 1.0000
68.0700 277.0000 1.0000
68.0800 250.0000 1.0000
68.0900 278.0000 1.0000
68.1000 245.0000 1.0000
68.1100 279.0000 1.0000
68.1200 292.0000 1.0000
68.1300 246.0000 1.0000
68.1400 267.0000 1.0000
68.1500 266.0000 1.0000
68.1600 260.0000 1.0000
68.1700 244.0000 1.0000
68.1800 255.0000 1.0000
68.1900 257.0000 1.0000
68.2000 248.0000 1.0000
68.2100 273.0000 1.0000
68.2200 265.0000 1.0000
68.2300 255.0000 1.0000
68.2400 272.0000 1.0000
68.2500 249.0000 1.0000
68.2600 234.0000 1.0000
68.2700 254.0000 1.0000
68.2800 256.0000 1.0000
68.2900 266.0000 1.0000
68.3000 269.0000 1.0000
68.3100 253.0000 1.0000
68.3200 289.0000 1.0000
68.3300 250.0000 1.0000
68.3400 239.0000 1.0000
68.3500 264.0000 1.0000
68.3600 265.0000 1.0000
68.3700 275.0000 1.0000
68.3800 255.0000 1.0000
68.3900 246.0000 1.0000
68.4000 264.0000 1.0000
68.4100 246.0000 1.0000
68.4200 256.0000 1.0000
68.4300 247.0000 1.0000
68.4400 249.0000 1.0000
68.4500 237.0000 1.0000
68.4600 259.0000 1.0000
68.4700 265.0000 1.0000
68.4800 274.0000 1.0000
68.4900 279.0000 1.0000
68.5000 264.0000 1.0000
68.5100 252.0000 1.0000
68.5200 263.0000 1.0000
68.5300 294.0000 1.0000
68.5400 253.0000 1.0000
68.5500 257.0000 1.0000
68.5600 259.0000 1.0000
68.5700 251.0000 1.0000
68.5800 254.0000 1.0000
68.5900 263.0000 1.0000
68.6000 287.0000 1.0000
68.6100 276.0000 1.0000
68.6200 272.0000 1.0000
68.6300 265.0000 1.0000
68.6400 251.0000 1.0000
68.6500 257.0000 1.0000
68.6600 262.0000 1.0000
68.6700 256.0000 1.0000
68.6800 237.0000 1.0000
68.6900 240.0000 1.0000
68.7000 264.0000 1.0000
68.7100 236.0000 1.0000
68.7200 240.0000 1.0000
68.7300 259.0000 1.0000
68.7400 239.0000 1.0000
68.7500 263.0000 1.0000
68.7600 269.0000 1.0000
68.7700 268.0000 1.0000
68.7800 249.0000 1.0000
68.7900 253.0000 1.0000
68.8000 240.0000 1.0000
68.8100 255.0000 1.0000
68.8200 264.0000 1.0000
68.8300 252.0000 1.0000
68.8400 286.0000 1.0000
68.8500 257.0000 1.0000
68.8600 262.0000 1.0000
68.8700 239.0000 1.0000
68.8800 225.0000 1.0000
68.8900 235.0000 1.0000
68.9000 240.0000 1.0000
68.9100 240.0000 1.0000
68.9200 252.0000 1.0000
68.9300 262.0000 1.0000
68.9400 262.0000 1.0000
68.9500 250.0000 1.0000
68.9600 254.0000 1.0000
68.9700 269.0000 1.0000
68.9800 269.0000 1.0000
68.9900 258.0000 1.0000
69.0000 250.0000 1.0000
69.0100 266.0000 1.0000
69.0200 256.0000 1.0000
69.0300 260.0000 1.0000
69.0400 254.0000 1.0000
69.0500 274.0000 1.0000
69.0600 271.0000 1.0000
69.0700 252.0000 1.0000
69.0800 262.0000 1.0000
69.0900 247.0000 1.0000
69.1000 271.0000 1.0000
69.1100 249.0000 1.0000
69.1200 264.0000 1.0000
69.1300 271.0000 1.0000
69.1400 280.0000 1.0000
69.1500 255.0000 1.0000
69.1600 243.0000 1.0000
69.1700 248.0000 1.0000
69.1800 256.0000 1.0000
69.1900 255.0000 1.0000
69.2000 237.0000 1.0000
69.2100 253.0000 1.0000
69.2200 254.0000 1.0000
69.2300 235.0000 1.0000
69.2400 245.0000 1.0000
69.2500 258.0000 1.0000
69.2600 240.0000 1.0000
69.2700 235.0000 1.0000
69.2800 246.0000 1.0000
69.2900 253.0000 1.0000
69.3000 274.0000 1.0000
69.3100 261.0000 1.0000
69.3200 239.0000 1.0000
69.3300 229.0000 1.0000
69.3400 232.0000 1.0000
69.3500 259.0000 1.0000
69.3600 251.0000 1.0000
69.3700 260.0000 1.0000
69.3800 260.0000 1.0000
69.3900 260.0000 1.0000
69.4000 240.0000 1.0000
69.4100 242.0000 1.0000
69.4200 240.0000 1.0000
69.4300 260.0000 1.0000
69.4400 248.0000 1.0000
69.4500 265.0000 1.0000
69.4600 254.0000 1.0000
69.4700 246.0000 1.0000
69.4800 269.0000 1.0000
69.4900 254.0000 1.0000
69.5000 256.0000 1.0000
69.5100 255.0000 1.0000
69.5200 237.0000 1.0000
69.5300 270.0000 1.0000
69.5400 288.0000 1.0000
69.5500 259.0000 1.0000
69.5600 237.0000 1.0000
69.5700 259.0000 1.0000
69.5800 261.0000 1.0000
69.5900 264.0000 1.0000
69.6000 247.0000 1.0000
69.6100 254.0000 1.0000
69.6200 240.0000 1.0000
69.6300 256.0000 1.0000
69.6400 263.0000 1.0000
69.6500 259.0000 1.0000
69.6600 274.0000 1.0000
69.6700 295.0000 1.0000
69.6800 257.0000 1.0000
69.6900 248.0000 1.0000
69.7000 272.0000 1.0000
69.7100 230.0000 1.0000
69.7200 239.0000 1.0000
69.7300 253.0000 1.0000
69.7400 243.0000 1.0000
69.7500 251.0000 1.0000
69.7600 262.0000 1.0000
69.7700 269.0000 1.0000
69.7800 236.0000 1.0000
69.7900 226.0000 1.0000
69.8000 244.0000 1.0000
69.8100 234.0000 1.0000
69.8200 265.0000 1.0000
69.8300 239.0000 1.0000
69.8400 262.0000 1.0000
69.8500 264.0000 1.0000
69.8600 251.0000 1.0000
69.8700 254.0000 1.0000
69.8800 276.0000 1.0000
69.8900 264.0000 1.0000
69.9000 219.0000 1.0000
69.9100 256.0000 1.0000
69.9200 249.0000 1.0000
69.9300 237.0000 1.0000
69.9400 248.0000 1.0000
69.9500 245.0000 1.0000
69.9600 245.0000 1.0000
69.9700 254.0000 1.0000
69.9800 238.0000 1.0000
69.9900 245.0000 1.0000
70.0000 224.0000 1.0000
*RAS_INT_END
*RAS_TEMPERATURE_START
*RAS_TEMPERATURE_END
*RAS_DATA_END
