*RAS_DATA_START
*RAS_HEADER_START
*DISP_FMT_X "%.2f"
*DISP_FMT_Y "%.0f"
*DISP_FULLSCALE "18050.0000000000"
*DISP_LINE_COLOR "255.0000000000"
*DISP_LINE_STYLE "0.0000000000"
*DISP_LINE_WIDTH "0.2500000000"
*DISP_NOTE "測定データ-6"
*DISP_OFFSET_Y "0.0000000000"
*DISP_PEAKSEARCH_UNIT_Y "cps"
*DISP_RANGE_BOTTOM "0.0000000000"
*DISP_RANGE_LEFT "20.0000000000"
*DISP_RANGE_LOGCUTOFF "0.0100000000"
*DISP_RANGE_RIGHT "70.0000000000"
*DISP_RANGE_TOP "18050.0000000000"
*DISP_SCALE_MODE_Y "0.0000000000"
*DISP_TAB_NAME "2θ/θ"
*DISP_TITLE_Y "強度"
*DISP_UNIT_Y "cps"
*DISP_WINDOW_NAME "MSG_MACROENGINE"
*FILE_COMMENT " "
*FILE_MD5 ""
*FILE_MEMO " "
*FILE_OPERATOR "Administrator"
*FILE_SAMPLE " "
*FILE_TYPE "RAS_RAW"
*FILE_USERGROUP "システムマネージャ"
*FILE_VERSION "1.0000000000"
*HW_ATTACHMENT_ID "ATT0025"
*HW_ATTACHMENT_NAME "標準|Standard"
*HW_COUNTER_ID-0 "CUT0025"
*HW_COUNTER_ID-1 "CUT0020"
*HW_COUNTER_ID-2 "CUT0020"
*HW_COUNTER_ID-3 "CSL0021"
*HW_COUNTER_ID-4 "CMC0021"
*HW_COUNTER_NAME-0 "D/teX Ultra|D/teX Ultra"
*HW_COUNTER_NAME-1 "None|None"
*HW_COUNTER_NAME-2 "None|None"
*HW_COUNTER_NAME-3 "BBM|BBM"
*HW_COUNTER_NAME-4 "検出器モノクロメータ|Detector monochromator"
*HW_COUNTER_SELECT_NAME "D/teX Ultra|D/teX Ultra"
*HW_GONIOMETER_ID "GON0023"
*HW_GONIOMETER_NAME "SmartLab|SmartLab"
*HW_GONIOMETER_RADIUS-0 "90.0"
*HW_GONIOMETER_RADIUS-1 "114.0"
*HW_GONIOMETER_RADIUS-2 "190.0"
*HW_GONIOMETER_RADIUS-3 "300.0"
*HW_GONIOMETER_RADIUS-4 "187.0"
*HW_GONIOMETER_RADIUS-5 "300.0"
*HW_GONIOMETER_RADIUS-6 "113.0"
*HW_GONIOMETER_RADIUS-7 "331.0"
*HW_I_OPT_ID-0 "CBO0021"
*HW_I_OPT_ID-1 "ICR0023"
*HW_I_OPT_ID-2 "ISL0021"
*HW_I_OPT_ID-3 "ISO0021"
*HW_I_OPT_ID-4 "IAD0021"
*HW_I_OPT_ID-5 "IPR0001"
*HW_I_OPT_NAME-0 "CBOユニット|CBO unit"
*HW_I_OPT_NAME-1 "標準入射光学ユニット|Standard incident optical unit"
*HW_I_OPT_NAME-2 "標準入射スリットボックス|Standard incident slit box"
*HW_I_OPT_NAME-3 "入射平行スリット|Incident parallel slit"
*HW_I_OPT_NAME-4 "長手制限スリット|Length limiting slit"
*HW_I_OPT_NAME-5 "None|None"
*HW_R_ATTENUATER_AUTOMODE "0"
*HW_R_OPT_ID-0 "RSS0021"
*HW_R_OPT_ID-1 "RCR0023"
*HW_R_OPT_ID-2 "RSO0021"
*HW_R_OPT_ID-3 "RRS0021"
*HW_R_OPT_ID-4 "ATN0021"
*HW_R_OPT_ID-5 "RFL0021"
*HW_R_OPT_ID-6 "RAD0021"
*HW_R_OPT_NAME-0 "標準受光スリットボックス1|Standard receiving slit box # 1"
*HW_R_OPT_NAME-1 "標準受光光学ユニット1|Standard receiving unit # 1"
*HW_R_OPT_NAME-2 "標準受光光学ユニット2|Standard receiving optical unit # 2"
*HW_R_OPT_NAME-3 "標準受光スリットボックス2|Standard receiving slit box # 2"
*HW_R_OPT_NAME-4 "標準アッテネータ|Standard Attenuator"
*HW_R_OPT_NAME-5 "Cu Kβ|Cu K-beta"
*HW_R_OPT_NAME-6 "調整用受光スリット|Alignment receiving slit"
*HW_SAMPLE_HOLDER_ID "SMP0023"
*HW_SAMPLE_HOLDER_NAME "標準Zステージ|Standard Z stage"
*HW_XG_CURRENT_MAX "50"
*HW_XG_CURRENT_MIN "2"
*HW_XG_CURRENT_RESOLUTION "1"
*HW_XG_CURRENT_UNIT "mA"
*HW_XG_FOCUS "1mm x 10mm"
*HW_XG_FOCUS_TYPE "Normal"
*HW_XG_ID ""
*HW_XG_NAME "3kW 封入管(ID:1200)|3kW Sealed tube(ID:1200)"
*HW_XG_TARGET_ATOMIC_NUMBER "29.0000000000"
*HW_XG_TARGET_NAME "Cu"
*HW_XG_TYPE "Hermetic"
*HW_XG_VOLTAGE_MAX "60"
*HW_XG_VOLTAGE_MIN "20"
*HW_XG_VOLTAGE_RESOLUTION "1"
*HW_XG_VOLTAGE_UNIT "kV"
*HW_XG_WATT_MAX "1.500"
*HW_XG_WATT_UNIT "kW"
*HW_XG_WAVE_LENGTH_ALPHA1 "1.540593"
*HW_XG_WAVE_LENGTH_ALPHA2 "1.544414"
*HW_XG_WAVE_LENGTH_BETA "1.392250"
*MEAS_COND_AXIS_NAME-0 "2θ/θ"
*MEAS_COND_AXIS_NAME-1 "2θ"
*MEAS_COND_AXIS_NAME-2 "ω"
*MEAS_COND_AXIS_NAME-3 "Z"
*MEAS_COND_AXIS_NAME-4 "2θ/ω"
*MEAS_COND_AXIS_NAME-5 "θs"
*MEAS_COND_AXIS_NAME-6 "θd"
*MEAS_COND_AXIS_NAME-7 "Ts"
*MEAS_COND_AXIS_NAME-8 "CBO選択スリット"
*MEAS_COND_AXIS_NAME-9 "M"
*MEAS_COND_AXIS_NAME-10 "入射平行スリット"
*MEAS_COND_AXIS_NAME-11 "入射スリット"
*MEAS_COND_AXIS_NAME-12 ""
*MEAS_COND_AXIS_NAME-13 "Zs"
*MEAS_COND_AXIS_NAME-14 "入射光学素子"
*MEAS_COND_AXIS_NAME-15 "長手制限スリット"
*MEAS_COND_AXIS_NAME-16 "センタースリット"
*MEAS_COND_AXIS_NAME-17 "フィルター"
*MEAS_COND_AXIS_NAME-18 "受光スリット1"
*MEAS_COND_AXIS_NAME-19 "受光スリット2"
*MEAS_COND_AXIS_NAME-20 "受光光学素子"
*MEAS_COND_AXIS_NAME-21 "受光平行スリット"
*MEAS_COND_AXIS_NAME-22 "調整用受光スリット"
*MEAS_COND_AXIS_NAME-23 ""
*MEAS_COND_AXIS_NAME-24 ""
*MEAS_COND_AXIS_NAME-25 "Zd"
*MEAS_COND_AXIS_NAME-26 "アッテネータ"
*MEAS_COND_AXIS_NAME-27 "検出器モノクロメータ"
*MEAS_COND_AXIS_NAME-28 "モノクロメータスリット"
*MEAS_COND_AXIS_NAME-29 "プライマリビーム"
*MEAS_COND_AXIS_NAME-30 "PHA"
*MEAS_COND_AXIS_NAME_INTERNAL-0 "TwoThetaTheta"
*MEAS_COND_AXIS_NAME_INTERNAL-1 "TwoTheta"
*MEAS_COND_AXIS_NAME_INTERNAL-2 "Omega"
*MEAS_COND_AXIS_NAME_INTERNAL-3 "Z"
*MEAS_COND_AXIS_NAME_INTERNAL-4 "TwoThetaOmega"
*MEAS_COND_AXIS_NAME_INTERNAL-5 "ThetaS"
*MEAS_COND_AXIS_NAME_INTERNAL-6 "ThetaD"
*MEAS_COND_AXIS_NAME_INTERNAL-7 "Ts"
*MEAS_COND_AXIS_NAME_INTERNAL-8 "CBO"
*MEAS_COND_AXIS_NAME_INTERNAL-9 "CBO-M"
*MEAS_COND_AXIS_NAME_INTERNAL-10 "IncidentSollerSlit"
*MEAS_COND_AXIS_NAME_INTERNAL-11 "IncidentSlitBox"
*MEAS_COND_AXIS_NAME_INTERNAL-12 "IncidentSlitBox-_Axis"
*MEAS_COND_AXIS_NAME_INTERNAL-13 "Zs"
*MEAS_COND_AXIS_NAME_INTERNAL-14 "IncidentMonochromator"
*MEAS_COND_AXIS_NAME_INTERNAL-15 "IncidentAxdSlit"
*MEAS_COND_AXIS_NAME_INTERNAL-16 "CenterSlit"
*MEAS_COND_AXIS_NAME_INTERNAL-17 "Filter"
*MEAS_COND_AXIS_NAME_INTERNAL-18 "ReceivingSlitBox1"
*MEAS_COND_AXIS_NAME_INTERNAL-19 "ReceivingSlitBox2"
*MEAS_COND_AXIS_NAME_INTERNAL-20 "ReceivingOptics"
*MEAS_COND_AXIS_NAME_INTERNAL-21 "ReceivingSollerSlit"
*MEAS_COND_AXIS_NAME_INTERNAL-22 "ReceivingAxdSlit"
*MEAS_COND_AXIS_NAME_INTERNAL-23 "ReceivingSlitBox1-_Axis"
*MEAS_COND_AXIS_NAME_INTERNAL-24 "ReceivingSlitBox2-_Axis"
*MEAS_COND_AXIS_NAME_INTERNAL-25 "ReceivingSlitBox2-Zd"
*MEAS_COND_AXIS_NAME_INTERNAL-26 "Attenuator"
*MEAS_COND_AXIS_NAME_INTERNAL-27 "CounterMonochromator"
*MEAS_COND_AXIS_NAME_INTERNAL-28 "CounterSlit"
*MEAS_COND_AXIS_NAME_INTERNAL-29 "IncidentPrimary"
*MEAS_COND_AXIS_NAME_INTERNAL-30 "PHA"
*MEAS_COND_AXIS_NAME_MAGICNO-0 "83951616.0000000000"
*MEAS_COND_AXIS_NAME_MAGICNO-1 "268632064.0000000000"
*MEAS_COND_AXIS_NAME_MAGICNO-2 "268500992.0000000000"
*MEAS_COND_AXIS_NAME_MAGICNO-3 "285278208.0000000000"
*MEAS_COND_AXIS_NAME_MAGICNO-4 "83951616.0000000000"
*MEAS_COND_AXIS_NAME_MAGICNO-5 "131072.0000000000"
*MEAS_COND_AXIS_NAME_MAGICNO-6 "131072.0000000000"
*MEAS_COND_AXIS_NAME_MAGICNO-7 "318898176.0000000000"
*MEAS_COND_AXIS_NAME_MAGICNO-8 "20971521.0000000000"
*MEAS_COND_AXIS_NAME_MAGICNO-9 "285343744.0000000000"
*MEAS_COND_AXIS_NAME_MAGICNO-10 "20971521.0000000000"
*MEAS_COND_AXIS_NAME_MAGICNO-11 "22020097.0000000000"
*MEAS_COND_AXIS_NAME_MAGICNO-12 "25165824.0000000000"
*MEAS_COND_AXIS_NAME_MAGICNO-13 "318898176.0000000000"
*MEAS_COND_AXIS_NAME_MAGICNO-14 "1.0000000000"
*MEAS_COND_AXIS_NAME_MAGICNO-15 "20971521.0000000000"
*MEAS_COND_AXIS_NAME_MAGICNO-16 "20971521.0000000000"
*MEAS_COND_AXIS_NAME_MAGICNO-17 "20971521.0000000000"
*MEAS_COND_AXIS_NAME_MAGICNO-18 "23068673.0000000000"
*MEAS_COND_AXIS_NAME_MAGICNO-19 "23068673.0000000000"
*MEAS_COND_AXIS_NAME_MAGICNO-20 "20971521.0000000000"
*MEAS_COND_AXIS_NAME_MAGICNO-21 "20971521.0000000000"
*MEAS_COND_AXIS_NAME_MAGICNO-22 "20971521.0000000000"
*MEAS_COND_AXIS_NAME_MAGICNO-23 "25165824.0000000000"
*MEAS_COND_AXIS_NAME_MAGICNO-24 "25165824.0000000000"
*MEAS_COND_AXIS_NAME_MAGICNO-25 "285343744.0000000000"
*MEAS_COND_AXIS_NAME_MAGICNO-26 "17301505.0000000000"
*MEAS_COND_AXIS_NAME_MAGICNO-27 "20971521.0000000000"
*MEAS_COND_AXIS_NAME_MAGICNO-28 "20971521.0000000000"
*MEAS_COND_AXIS_NAME_MAGICNO-29 "20971521.0000000000"
*MEAS_COND_AXIS_NAME_MAGICNO-30 "0.0000000000"
*MEAS_COND_AXIS_OFFSET-0 "-"
*MEAS_COND_AXIS_OFFSET-1 "-0.0801000000"
*MEAS_COND_AXIS_OFFSET-2 "0.1646000000"
*MEAS_COND_AXIS_OFFSET-3 "-"
*MEAS_COND_AXIS_OFFSET-4 "-"
*MEAS_COND_AXIS_OFFSET-5 "0.1646000000"
*MEAS_COND_AXIS_OFFSET-6 "-0.2447000000"
*MEAS_COND_AXIS_OFFSET-7 "-"
*MEAS_COND_AXIS_OFFSET-8 "-"
*MEAS_COND_AXIS_OFFSET-9 "-"
*MEAS_COND_AXIS_OFFSET-10 "-"
*MEAS_COND_AXIS_OFFSET-11 "-"
*MEAS_COND_AXIS_OFFSET-12 "-"
*MEAS_COND_AXIS_OFFSET-13 "-"
*MEAS_COND_AXIS_OFFSET-14 "-"
*MEAS_COND_AXIS_OFFSET-15 "-"
*MEAS_COND_AXIS_OFFSET-16 "-"
*MEAS_COND_AXIS_OFFSET-17 "-"
*MEAS_COND_AXIS_OFFSET-18 "-"
*MEAS_COND_AXIS_OFFSET-19 "-"
*MEAS_COND_AXIS_OFFSET-20 "-"
*MEAS_COND_AXIS_OFFSET-21 "-"
*MEAS_COND_AXIS_OFFSET-22 "-"
*MEAS_COND_AXIS_OFFSET-23 "-"
*MEAS_COND_AXIS_OFFSET-24 "-"
*MEAS_COND_AXIS_OFFSET-25 "-"
*MEAS_COND_AXIS_OFFSET-26 "-"
*MEAS_COND_AXIS_OFFSET-27 "-"
*MEAS_COND_AXIS_OFFSET-28 "-"
*MEAS_COND_AXIS_OFFSET-29 "-"
*MEAS_COND_AXIS_OFFSET-30 "-"
*MEAS_COND_AXIS_POSITION-0 "0.0000000000"
*MEAS_COND_AXIS_POSITION-1 "0.0000000000"
*MEAS_COND_AXIS_POSITION-2 "0.0000000000"
*MEAS_COND_AXIS_POSITION-3 "-2.9256400000"
*MEAS_COND_AXIS_POSITION-4 "0.0000000000"
*MEAS_COND_AXIS_POSITION-5 "0.0000000000"
*MEAS_COND_AXIS_POSITION-6 "0.0000000000"
*MEAS_COND_AXIS_POSITION-7 "-0.4278800000"
*MEAS_COND_AXIS_POSITION-8 "BB"
*MEAS_COND_AXIS_POSITION-9 "0.0000000000"
*MEAS_COND_AXIS_POSITION-10 "Soller_slit_5.0deg"
*MEAS_COND_AXIS_POSITION-11 "2/3deg"
*MEAS_COND_AXIS_POSITION-12 "2.2088000000"
*MEAS_COND_AXIS_POSITION-13 "-1.0609400000"
*MEAS_COND_AXIS_POSITION-14 "0.0000000000"
*MEAS_COND_AXIS_POSITION-15 "10.0mm"
*MEAS_COND_AXIS_POSITION-16 "None"
*MEAS_COND_AXIS_POSITION-17 "Cu_K-beta"
*MEAS_COND_AXIS_POSITION-18 "13.000mm"
*MEAS_COND_AXIS_POSITION-19 "13.000mm"
*MEAS_COND_AXIS_POSITION-20 "No_unit"
*MEAS_COND_AXIS_POSITION-21 "Soller_slit_5.0deg"
*MEAS_COND_AXIS_POSITION-22 "None"
*MEAS_COND_AXIS_POSITION-23 "13.0000000000"
*MEAS_COND_AXIS_POSITION-24 "13.0000000000"
*MEAS_COND_AXIS_POSITION-25 "0.0081300000"
*MEAS_COND_AXIS_POSITION-26 "Open"
*MEAS_COND_AXIS_POSITION-27 "None"
*MEAS_COND_AXIS_POSITION-28 "None"
*MEAS_COND_AXIS_POSITION-29 "None"
*MEAS_COND_AXIS_POSITION-30 "38.0000000000"
*MEAS_COND_AXIS_UNIT-0 "deg"
*MEAS_COND_AXIS_UNIT-1 "deg"
*MEAS_COND_AXIS_UNIT-2 "deg"
*MEAS_COND_AXIS_UNIT-3 "mm"
*MEAS_COND_AXIS_UNIT-4 "deg"
*MEAS_COND_AXIS_UNIT-5 "deg"
*MEAS_COND_AXIS_UNIT-6 "deg"
*MEAS_COND_AXIS_UNIT-7 "mm"
*MEAS_COND_AXIS_UNIT-8 ""
*MEAS_COND_AXIS_UNIT-9 "pulse"
*MEAS_COND_AXIS_UNIT-10 ""
*MEAS_COND_AXIS_UNIT-11 ""
*MEAS_COND_AXIS_UNIT-12 "mm"
*MEAS_COND_AXIS_UNIT-13 "mm"
*MEAS_COND_AXIS_UNIT-14 ""
*MEAS_COND_AXIS_UNIT-15 ""
*MEAS_COND_AXIS_UNIT-16 ""
*MEAS_COND_AXIS_UNIT-17 ""
*MEAS_COND_AXIS_UNIT-18 ""
*MEAS_COND_AXIS_UNIT-19 ""
*MEAS_COND_AXIS_UNIT-20 ""
*MEAS_COND_AXIS_UNIT-21 ""
*MEAS_COND_AXIS_UNIT-22 ""
*MEAS_COND_AXIS_UNIT-23 "mm"
*MEAS_COND_AXIS_UNIT-24 "mm"
*MEAS_COND_AXIS_UNIT-25 "mm"
*MEAS_COND_AXIS_UNIT-26 ""
*MEAS_COND_AXIS_UNIT-27 ""
*MEAS_COND_AXIS_UNIT-28 ""
*MEAS_COND_AXIS_UNIT-29 ""
*MEAS_COND_AXIS_UNIT-30 "div"
*MEAS_COND_COUNTER_CNTLOSS_CORR "0.0000000000"
*MEAS_COND_COUNTER_PHABASE "38.0000000000"
*MEAS_COND_COUNTER_PHAWINDOW "16.0000000000"
*MEAS_COND_COUNTER_PHA_UNIT "div"
*MEAS_COND_COUNTER_TAUDIFF "30.0000000000"
*MEAS_COND_COUNTER_TAUINT "0.0000000000"
*MEAS_COND_IRRADIATION_MODE "OFF"
*MEAS_COND_IRRADIATION_WIDTH ""
*MEAS_COND_OPT_ATTR "集中法"
*MEAS_COND_OPT_NAME "@集中法"
*MEAS_COND_UNSYMMETRIC_MODE "OFF"
*MEAS_COND_XG_CURRENT "30.0000000000"
*MEAS_COND_XG_VOLTAGE "40.0000000000"
*MEAS_COND_XG_WAVE_TYPE "Ka"
*MEAS_DATA_COUNT "5001.0000000000"
*MEAS_SCAN_AXIS_X "2θ/θ"
*MEAS_SCAN_AXIS_X_INTERNAL "TwoThetaTheta"
*MEAS_SCAN_END_TIME "07/09/22 15:02:19"
*MEAS_SCAN_MODE "CONTINUOUS"
*MEAS_SCAN_MONITOR "0"
*MEAS_SCAN_RESOLUTION_X "0.0002"
*MEAS_SCAN_SPEED "2.5"
*MEAS_SCAN_SPEED_UNIT "deg/min"
*MEAS_SCAN_START "20.0000000000"
*MEAS_SCAN_START_TIME "07/09/22 14:40:54"
*MEAS_SCAN_STEP "0.0100000000"
*MEAS_SCAN_STOP "70.0000000000"
*MEAS_SCAN_UNIT_X "deg"
*MEAS_SCAN_UNIT_Y "counts"
*RAS_HEADER_END
*RAS_INT_START
20.0000 1053.0000 1.0000
20.0100 981.0000 1.0000
20.0200 1001.0000 1.0000
20.0300 1050.0000 1.0000
20.0400 1011.0000 1.0000
20.0500 1005.0000 1.0000
20.0600 1022.0000 1.0000
20.0700 1056.0000 1.0000
20.0800 1050.0000 1.0000
20.0900 1065.0000 1.0000
20.1000 1033.0000 1.0000
20.1100 1033.0000 1.0000
20.1200 1009.0000 1.0000
20.1300 1048.0000 1.0000
20.1400 1044.0000 1.0000
20.1500 1027.0000 1.0000
20.1600 1015.0000 1.0000
20.1700 1015.0000 1.0000
20.1800 1012.0000 1.0000
20.1900 1015.0000 1.0000
20.2000 1060.0000 1.0000
20.2100 1011.0000 1.0000
20.2200 1053.0000 1.0000
20.2300 1061.0000 1.0000
20.2400 1049.0000 1.0000
20.2500 1018.0000 1.0000
20.2600 1036.0000 1.0000
20.2700 1056.0000 1.0000
20.2800 1029.0000 1.0000
20.2900 1039.0000 1.0000
20.3000 1012.0000 1.0000
20.3100 1035.0000 1.0000
20.3200 1040.0000 1.0000
20.3300 1030.0000 1.0000
20.3400 1003.0000 1.0000
20.3500 1061.0000 1.0000
20.3600 1015.0000 1.0000
20.3700 1001.0000 1.0000
20.3800 984.0000 1.0000
20.3900 1052.0000 1.0000
20.4000 1060.0000 1.0000
20.4100 1040.0000 1.0000
20.4200 1009.0000 1.0000
20.4300 999.0000 1.0000
20.4400 1031.0000 1.0000
20.4500 962.0000 1.0000
20.4600 1013.0000 1.0000
20.4700 1006.0000 1.0000
20.4800 1021.0000 1.0000
20.4900 1043.0000 1.0000
20.5000 1002.0000 1.0000
20.5100 1038.0000 1.0000
20.5200 1020.0000 1.0000
20.5300 1056.0000 1.0000
20.5400 1050.0000 1.0000
20.5500 1076.0000 1.0000
20.5600 1065.0000 1.0000
20.5700 1042.0000 1.0000
20.5800 1010.0000 1.0000
20.5900 1003.0000 1.0000
20.6000 1006.0000 1.0000
20.6100 982.0000 1.0000
20.6200 1013.0000 1.0000
20.6300 980.0000 1.0000
20.6400 995.0000 1.0000
20.6500 1005.0000 1.0000
20.6600 1053.0000 1.0000
20.6700 1024.0000 1.0000
20.6800 1072.0000 1.0000
20.6900 1094.0000 1.0000
20.7000 1029.0000 1.0000
20.7100 1010.0000 1.0000
20.7200 1039.0000 1.0000
20.7300 1007.0000 1.0000
20.7400 1019.0000 1.0000
20.7500 1032.0000 1.0000
20.7600 1052.0000 1.0000
20.7700 980.0000 1.0000
20.7800 1019.0000 1.0000
20.7900 1078.0000 1.0000
20.8000 1038.0000 1.0000
20.8100 998.0000 1.0000
20.8200 1029.0000 1.0000
20.8300 1035.0000 1.0000
20.8400 1030.0000 1.0000
20.8500 1024.0000 1.0000
20.8600 1017.0000 1.0000
20.8700 1018.0000 1.0000
20.8800 1041.0000 1.0000
20.8900 981.0000 1.0000
20.9000 995.0000 1.0000
20.9100 1068.0000 1.0000
20.9200 1091.0000 1.0000
20.9300 996.0000 1.0000
20.9400 1041.0000 1.0000
20.9500 1021.0000 1.0000
20.9600 1013.0000 1.0000
20.9700 1066.0000 1.0000
20.9800 1007.0000 1.0000
20.9900 1067.0000 1.0000
21.0000 972.0000 1.0000
21.0100 987.0000 1.0000
21.0200 1020.0000 1.0000
21.0300 1057.0000 1.0000
21.0400 1030.0000 1.0000
21.0500 1081.0000 1.0000
21.0600 1033.0000 1.0000
21.0700 1049.0000 1.0000
21.0800 1024.0000 1.0000
21.0900 983.0000 1.0000
21.1000 1037.0000 1.0000
21.1100 1039.0000 1.0000
21.1200 991.0000 1.0000
21.1300 1073.0000 1.0000
21.1400 1104.0000 1.0000
21.1500 1022.0000 1.0000
21.1600 1009.0000 1.0000
21.1700 1052.0000 1.0000
21.1800 993.0000 1.0000
21.1900 1055.0000 1.0000
21.2000 1040.0000 1.0000
21.2100 981.0000 1.0000
21.2200 991.0000 1.0000
21.2300 1026.0000 1.0000
21.2400 1071.0000 1.0000
21.2500 984.0000 1.0000
21.2600 1036.0000 1.0000
21.2700 1073.0000 1.0000
21.2800 1085.0000 1.0000
21.2900 1042.0000 1.0000
21.3000 1042.0000 1.0000
21.3100 1036.0000 1.0000
21.3200 1043.0000 1.0000
21.3300 1031.0000 1.0000
21.3400 1027.0000 1.0000
21.3500 1021.0000 1.0000
21.3600 981.0000 1.0000
21.3700 1013.0000 1.0000
21.3800 981.0000 1.0000
21.3900 1023.0000 1.0000
21.4000 1021.0000 1.0000
21.4100 1040.0000 1.0000
21.4200 1005.0000 1.0000
21.4300 988.0000 1.0000
21.4400 979.0000 1.0000
21.4500 1058.0000 1.0000
21.4600 990.0000 1.0000
21.4700 995.0000 1.0000
21.4800 1044.0000 1.0000
21.4900 964.0000 1.0000
21.5000 1000.0000 1.0000
21.5100 1034.0000 1.0000
21.5200 1018.0000 1.0000
21.5300 981.0000 1.0000
21.5400 1007.0000 1.0000
21.5500 1058.0000 1.0000
21.5600 1044.0000 1.0000
21.5700 1022.0000 1.0000
21.5800 1050.0000 1.0000
21.5900 1016.0000 1.0000
21.6000 1016.0000 1.0000
21.6100 1012.0000 1.0000
21.6200 1024.0000 1.0000
21.6300 1041.0000 1.0000
21.6400 942.0000 1.0000
21.6500 1010.0000 1.0000
21.6600 986.0000 1.0000
21.6700 1017.0000 1.0000
21.6800 989.0000 1.0000
21.6900 990.0000 1.0000
21.7000 1062.0000 1.0000
21.7100 1031.0000 1.0000
21.7200 1060.0000 1.0000
21.7300 998.0000 1.0000
21.7400 1054.0000 1.0000
21.7500 990.0000 1.0000
21.7600 1030.0000 1.0000
21.7700 1055.0000 1.0000
21.7800 1000.0000 1.0000
21.7900 1019.0000 1.0000
21.8000 1020.0000 1.0000
21.8100 990.0000 1.0000
21.8200 1008.0000 1.0000
21.8300 1087.0000 1.0000
21.8400 1074.0000 1.0000
21.8500 1098.0000 1.0000
21.8600 1023.0000 1.0000
21.8700 1048.0000 1.0000
21.8800 1029.0000 1.0000
21.8900 1022.0000 1.0000
21.9000 1003.0000 1.0000
21.9100 965.0000 1.0000
21.9200 1005.0000 1.0000
21.9300 1034.0000 1.0000
21.9400 1012.0000 1.0000
21.9500 1004.0000 1.0000
21.9600 1018.0000 1.0000
21.9700 1039.0000 1.0000
21.9800 994.0000 1.0000
21.9900 1017.0000 1.0000
22.0000 1069.0000 1.0000
22.0100 1028.0000 1.0000
22.0200 1006.0000 1.0000
22.0300 985.0000 1.0000
22.0400 1019.0000 1.0000
22.0500 998.0000 1.0000
22.0600 1062.0000 1.0000
22.0700 1064.0000 1.0000
22.0800 1017.0000 1.0000
22.0900 1064.0000 1.0000
22.1000 1012.0000 1.0000
22.1100 1046.0000 1.0000
22.1200 1033.0000 1.0000
22.1300 1000.0000 1.0000
22.1400 1033.0000 1.0000
22.1500 1069.0000 1.0000
22.1600 1016.0000 1.0000
22.1700 1009.0000 1.0000
22.1800 1038.0000 1.0000
22.1900 1027.0000 1.0000
22.2000 1029.0000 1.0000
22.2100 1043.0000 1.0000
22.2200 1006.0000 1.0000
22.2300 1020.0000 1.0000
22.2400 1047.0000 1.0000
22.2500 1031.0000 1.0000
22.2600 1036.0000 1.0000
22.2700 936.0000 1.0000
22.2800 1000.0000 1.0000
22.2900 1046.0000 1.0000
22.3000 1049.0000 1.0000
22.3100 1050.0000 1.0000
22.3200 1012.0000 1.0000
22.3300 1003.0000 1.0000
22.3400 994.0000 1.0000
22.3500 998.0000 1.0000
22.3600 1033.0000 1.0000
22.3700 1034.0000 1.0000
22.3800 1006.0000 1.0000
22.3900 1068.0000 1.0000
22.4000 1036.0000 1.0000
22.4100 1044.0000 1.0000
22.4200 1049.0000 1.0000
22.4300 1035.0000 1.0000
22.4400 1072.0000 1.0000
22.4500 1030.0000 1.0000
22.4600 999.0000 1.0000
22.4700 1016.0000 1.0000
22.4800 1063.0000 1.0000
22.4900 1031.0000 1.0000
22.5000 991.0000 1.0000
22.5100 1095.0000 1.0000
22.5200 1070.0000 1.0000
22.5300 1025.0000 1.0000
22.5400 1039.0000 1.0000
22.5500 1079.0000 1.0000
22.5600 1031.0000 1.0000
22.5700 1002.0000 1.0000
22.5800 1036.0000 1.0000
22.5900 1084.0000 1.0000
22.6000 1039.0000 1.0000
22.6100 1025.0000 1.0000
22.6200 1012.0000 1.0000
22.6300 987.0000 1.0000
22.6400 991.0000 1.0000
22.6500 997.0000 1.0000
22.6600 987.0000 1.0000
22.6700 1003.0000 1.0000
22.6800 1028.0000 1.0000
22.6900 1067.0000 1.0000
22.7000 1014.0000 1.0000
22.7100 1018.0000 1.0000
22.7200 1063.0000 1.0000
22.7300 1039.0000 1.0000
22.7400 1042.0000 1.0000
22.7500 1036.0000 1.0000
22.7600 1056.0000 1.0000
22.7700 1009.0000 1.0000
22.7800 1043.0000 1.0000
22.7900 961.0000 1.0000
22.8000 1057.0000 1.0000
22.8100 1032.0000 1.0000
22.8200 1015.0000 1.0000
22.8300 1033.0000 1.0000
22.8400 1036.0000 1.0000
22.8500 1031.0000 1.0000
22.8600 982.0000 1.0000
22.8700 1075.0000 1.0000
22.8800 1087.0000 1.0000
22.8900 1094.0000 1.0000
22.9000 993.0000 1.0000
22.9100 1011.0000 1.0000
22.9200 1005.0000 1.0000
22.9300 986.0000 1.0000
22.9400 1022.0000 1.0000
22.9500 1012.0000 1.0000
22.9600 1014.0000 1.0000
22.9700 963.0000 1.0000
22.9800 1016.0000 1.0000
22.9900 1001.0000 1.0000
23.0000 1038.0000 1.0000
23.0100 1006.0000 1.0000
23.0200 1013.0000 1.0000
23.0300 1038.0000 1.0000
23.0400 1035.0000 1.0000
23.0500 979.0000 1.0000
23.0600 1034.0000 1.0000
23.0700 1033.0000 1.0000
23.0800 1022.0000 1.0000
23.0900 1027.0000 1.0000
23.1000 1012.0000 1.0000
23.1100 991.0000 1.0000
23.1200 1005.0000 1.0000
23.1300 991.0000 1.0000
23.1400 1013.0000 1.0000
23.1500 1001.0000 1.0000
23.1600 1039.0000 1.0000
23.1700 1015.0000 1.0000
23.1800 998.0000 1.0000
23.1900 1054.0000 1.0000
23.2000 1041.0000 1.0000
23.2100 1049.0000 1.0000
23.2200 1022.0000 1.0000
23.2300 1003.0000 1.0000
23.2400 984.0000 1.0000
23.2500 995.0000 1.0000
23.2600 1011.0000 1.0000
23.2700 1060.0000 1.0000
23.2800 1030.0000 1.0000
23.2900 1009.0000 1.0000
23.3000 989.0000 1.0000
23.3100 980.0000 1.0000
23.3200 1040.0000 1.0000
23.3300 979.0000 1.0000
23.3400 969.0000 1.0000
23.3500 970.0000 1.0000
23.3600 1008.0000 1.0000
23.3700 1035.0000 1.0000
23.3800 998.0000 1.0000
23.3900 963.0000 1.0000
23.4000 1034.0000 1.0000
23.4100 1022.0000 1.0000
23.4200 1024.0000 1.0000
23.4300 1032.0000 1.0000
23.4400 1004.0000 1.0000
23.4500 997.0000 1.0000
23.4600 1020.0000 1.0000
23.4700 1058.0000 1.0000
23.4800 977.0000 1.0000
23.4900 1063.0000 1.0000
23.5000 1056.0000 1.0000
23.5100 1019.0000 1.0000
23.5200 1049.0000 1.0000
23.5300 997.0000 1.0000
23.5400 978.0000 1.0000
23.5500 1042.0000 1.0000
23.5600 998.0000 1.0000
23.5700 1057.0000 1.0000
23.5800 1029.0000 1.0000
23.5900 1056.0000 1.0000
23.6000 1018.0000 1.0000
23.6100 1023.0000 1.0000
23.6200 1026.0000 1.0000
23.6300 1019.0000 1.0000
23.6400 1008.0000 1.0000
23.6500 991.0000 1.0000
23.6600 1040.0000 1.0000
23.6700 978.0000 1.0000
23.6800 1047.0000 1.0000
23.6900 1011.0000 1.0000
23.7000 1036.0000 1.0000
23.7100 1029.0000 1.0000
23.7200 1022.0000 1.0000
23.7300 1026.0000 1.0000
23.7400 1027.0000 1.0000
23.7500 1026.0000 1.0000
23.7600 1044.0000 1.0000
23.7700 1009.0000 1.0000
23.7800 1054.0000 1.0000
23.7900 1028.0000 1.0000
23.8000 1015.0000 1.0000
23.8100 1040.0000 1.0000
23.8200 1061.0000 1.0000
23.8300 1019.0000 1.0000
23.8400 1029.0000 1.0000
23.8500 1032.0000 1.0000
23.8600 1050.0000 1.0000
23.8700 1054.0000 1.0000
23.8800 1078.0000 1.0000
23.8900 1035.0000 1.0000
23.9000 985.0000 1.0000
23.9100 1026.0000 1.0000
23.9200 1033.0000 1.0000
23.9300 1022.0000 1.0000
23.9400 1039.0000 1.0000
23.9500 1047.0000 1.0000
23.9600 1021.0000 1.0000
23.9700 1034.0000 1.0000
23.9800 1015.0000 1.0000
23.9900 1017.0000 1.0000
24.0000 1073.0000 1.0000
24.0100 1109.0000 1.0000
24.0200 1078.0000 1.0000
24.0300 1108.0000 1.0000
24.0400 1113.0000 1.0000
24.0500 1143.0000 1.0000
24.0600 1031.0000 1.0000
24.0700 1105.0000 1.0000
24.0800 1139.0000 1.0000
24.0900 1081.0000 1.0000
24.1000 1115.0000 1.0000
24.1100 1082.0000 1.0000
24.1200 1104.0000 1.0000
24.1300 1105.0000 1.0000
24.1400 1075.0000 1.0000
24.1500 1117.0000 1.0000
24.1600 1086.0000 1.0000
24.1700 1062.0000 1.0000
24.1800 1035.0000 1.0000
24.1900 1002.0000 1.0000
24.2000 1069.0000 1.0000
24.2100 1024.0000 1.0000
24.2200 1034.0000 1.0000
24.2300 1027.0000 1.0000
24.2400 1014.0000 1.0000
24.2500 1016.0000 1.0000
24.2600 1017.0000 1.0000
24.2700 1052.0000 1.0000
24.2800 1033.0000 1.0000
24.2900 1036.0000 1.0000
24.3000 1050.0000 1.0000
24.3100 1010.0000 1.0000
24.3200 964.0000 1.0000
24.3300 987.0000 1.0000
24.3400 1009.0000 1.0000
24.3500 1070.0000 1.0000
24.3600 1051.0000 1.0000
24.3700 952.0000 1.0000
24.3800 981.0000 1.0000
24.3900 1032.0000 1.0000
24.4000 1005.0000 1.0000
24.4100 1059.0000 1.0000
24.4200 1049.0000 1.0000
24.4300 1043.0000 1.0000
24.4400 1011.0000 1.0000
24.4500 999.0000 1.0000
24.4600 1026.0000 1.0000
24.4700 1039.0000 1.0000
24.4800 1043.0000 1.0000
24.4900 1036.0000 1.0000
24.5000 1025.0000 1.0000
24.5100 1001.0000 1.0000
24.5200 1028.0000 1.0000
24.5300 1021.0000 1.0000
24.5400 1038.0000 1.0000
24.5500 1022.0000 1.0000
24.5600 954.0000 1.0000
24.5700 958.0000 1.0000
24.5800 1028.0000 1.0000
24.5900 1027.0000 1.0000
24.6000 1037.0000 1.0000
24.6100 977.0000 1.0000
24.6200 942.0000 1.0000
24.6300 1041.0000 1.0000
24.6400 1036.0000 1.0000
24.6500 1026.0000 1.0000
24.6600 1003.0000 1.0000
24.6700 998.0000 1.0000
24.6800 1042.0000 1.0000
24.6900 1036.0000 1.0000
24.7000 1017.0000 1.0000
24.7100 994.0000 1.0000
24.7200 1002.0000 1.0000
24.7300 1033.0000 1.0000
24.7400 1029.0000 1.0000
24.7500 987.0000 1.0000
24.7600 984.0000 1.0000
24.7700 1021.0000 1.0000
24.7800 1037.0000 1.0000
24.7900 988.0000 1.0000
24.8000 1015.0000 1.0000
24.8100 974.0000 1.0000
24.8200 991.0000 1.0000
24.8300 1015.0000 1.0000
24.8400 1040.0000 1.0000
24.8500 1011.0000 1.0000
24.8600 1020.0000 1.0000
24.8700 952.0000 1.0000
24.8800 1039.0000 1.0000
24.8900 944.0000 1.0000
24.9000 991.0000 1.0000
24.9100 1004.0000 1.0000
24.9200 993.0000 1.0000
24.9300 985.0000 1.0000
24.9400 1005.0000 1.0000
24.9500 993.0000 1.0000
24.9600 967.0000 1.0000
24.9700 983.0000 1.0000
24.9800 1023.0000 1.0000
24.9900 897.0000 1.0000
25.0000 963.0000 1.0000
25.0100 958.0000 1.0000
25.0200 1037.0000 1.0000
25.0300 966.0000 1.0000
25.0400 985.0000 1.0000
25.0500 1016.0000 1.0000
25.0600 970.0000 1.0000
25.0700 928.0000 1.0000
25.0800 942.0000 1.0000
25.0900 996.0000 1.0000
25.1000 966.0000 1.0000
25.1100 968.0000 1.0000
25.1200 943.0000 1.0000
25.1300 1009.0000 1.0000
25.1400 992.0000 1.0000
25.1500 986.0000 1.0000
25.1600 962.0000 1.0000
25.1700 956.0000 1.0000
25.1800 964.0000 1.0000
25.1900 966.0000 1.0000
25.2000 1000.0000 1.0000
25.2100 978.0000 1.0000
25.2200 1010.0000 1.0000
25.2300 1021.0000 1.0000
25.2400 1010.0000 1.0000
25.2500 988.0000 1.0000
25.2600 974.0000 1.0000
25.2700 941.0000 1.0000
25.2800 987.0000 1.0000
25.2900 943.0000 1.0000
25.3000 978.0000 1.0000
25.3100 978.0000 1.0000
25.3200 969.0000 1.0000
25.3300 1017.0000 1.0000
25.3400 976.0000 1.0000
25.3500 990.0000 1.0000
25.3600 988.0000 1.0000
25.3700 989.0000 1.0000
25.3800 1050.0000 1.0000
25.3900 1046.0000 1.0000
25.4000 1024.0000 1.0000
25.4100 977.0000 1.0000
25.4200 994.0000 1.0000
25.4300 988.0000 1.0000
25.4400 1030.0000 1.0000
25.4500 1043.0000 1.0000
25.4600 984.0000 1.0000
25.4700 981.0000 1.0000
25.4800 1041.0000 1.0000
25.4900 1058.0000 1.0000
25.5000 951.0000 1.0000
25.5100 1057.0000 1.0000
25.5200 1020.0000 1.0000
25.5300 986.0000 1.0000
25.5400 1019.0000 1.0000
25.5500 994.0000 1.0000
25.5600 983.0000 1.0000
25.5700 977.0000 1.0000
25.5800 985.0000 1.0000
25.5900 994.0000 1.0000
25.6000 1030.0000 1.0000
25.6100 1002.0000 1.0000
25.6200 989.0000 1.0000
25.6300 933.0000 1.0000
25.6400 984.0000 1.0000
25.6500 998.0000 1.0000
25.6600 1033.0000 1.0000
25.6700 1033.0000 1.0000
25.6800 1014.0000 1.0000
25.6900 1043.0000 1.0000
25.7000 986.0000 1.0000
25.7100 1042.0000 1.0000
25.7200 1021.0000 1.0000
25.7300 1039.0000 1.0000
25.7400 1047.0000 1.0000
25.7500 994.0000 1.0000
25.7600 1008.0000 1.0000
25.7700 1043.0000 1.0000
25.7800 1100.0000 1.0000
25.7900 1040.0000 1.0000
25.8000 1044.0000 1.0000
25.8100 996.0000 1.0000
25.8200 1028.0000 1.0000
25.8300 1018.0000 1.0000
25.8400 1025.0000 1.0000
25.8500 1028.0000 1.0000
25.8600 1026.0000 1.0000
25.8700 1052.0000 1.0000
25.8800 1116.0000 1.0000
25.8900 1072.0000 1.0000
25.9000 1031.0000 1.0000
25.9100 1036.0000 1.0000
25.9200 1096.0000 1.0000
25.9300 1022.0000 1.0000
25.9400 1090.0000 1.0000
25.9500 1096.0000 1.0000
25.9600 1119.0000 1.0000
25.9700 1106.0000 1.0000
25.9800 1097.0000 1.0000
25.9900 1101.0000 1.0000
26.0000 1112.0000 1.0000
26.0100 1128.0000 1.0000
26.0200 1100.0000 1.0000
26.0300 1211.0000 1.0000
26.0400 1130.0000 1.0000
26.0500 1136.0000 1.0000
26.0600 1200.0000 1.0000
26.0700 1150.0000 1.0000
26.0800 1193.0000 1.0000
26.0900 1246.0000 1.0000
26.1000 1253.0000 1.0000
26.1100 1244.0000 1.0000
26.1200 1250.0000 1.0000
26.1300 1277.0000 1.0000
26.1400 1310.0000 1.0000
26.1500 1351.0000 1.0000
26.1600 1406.0000 1.0000
26.1700 1445.0000 1.0000
26.1800 1404.0000 1.0000
26.1900 1475.0000 1.0000
26.2000 1456.0000 1.0000
26.2100 1569.0000 1.0000
26.2200 1598.0000 1.0000
26.2300 1700.0000 1.0000
26.2400 1791.0000 1.0000
26.2500 1749.0000 1.0000
26.2600 1869.0000 1.0000
26.2700 1919.0000 1.0000
26.2800 2052.0000 1.0000
26.2900 2143.0000 1.0000
26.3000 2215.0000 1.0000
26.3100 2289.0000 1.0000
26.3200 2459.0000 1.0000
26.3300 2493.0000 1.0000
26.3400 2706.0000 1.0000
26.3500 2925.0000 1.0000
26.3600 3071.0000 1.0000
26.3700 3191.0000 1.0000
26.3800 3336.0000 1.0000
26.3900 3417.0000 1.0000
26.4000 3447.0000 1.0000
26.4100 3610.0000 1.0000
26.4200 3532.0000 1.0000
26.4300 3585.0000 1.0000
26.4400 3599.0000 1.0000
26.4500 3505.0000 1.0000
26.4600 3383.0000 1.0000
26.4700 3178.0000 1.0000
26.4800 3112.0000 1.0000
26.4900 2879.0000 1.0000
26.5000 2812.0000 1.0000
26.5100 2715.0000 1.0000
26.5200 2464.0000 1.0000
26.5300 2387.0000 1.0000
26.5400 2223.0000 1.0000
26.5500 2104.0000 1.0000
26.5600 2057.0000 1.0000
26.5700 2022.0000 1.0000
26.5800 1914.0000 1.0000
26.5900 1827.0000 1.0000
26.6000 1703.0000 1.0000
26.6100 1707.0000 1.0000
26.6200 1583.0000 1.0000
26.6300 1484.0000 1.0000
26.6400 1471.0000 1.0000
26.6500 1439.0000 1.0000
26.6600 1414.0000 1.0000
26.6700 1347.0000 1.0000
26.6800 1342.0000 1.0000
26.6900 1347.0000 1.0000
26.7000 1308.0000 1.0000
26.7100 1250.0000 1.0000
26.7200 1206.0000 1.0000
26.7300 1205.0000 1.0000
26.7400 1247.0000 1.0000
26.7500 1188.0000 1.0000
26.7600 1150.0000 1.0000
26.7700 1150.0000 1.0000
26.7800 1138.0000 1.0000
26.7900 1148.0000 1.0000
26.8000 1142.0000 1.0000
26.8100 1130.0000 1.0000
26.8200 1134.0000 1.0000
26.8300 1103.0000 1.0000
26.8400 1074.0000 1.0000
26.8500 1071.0000 1.0000
26.8600 1040.0000 1.0000
26.8700 1052.0000 1.0000
26.8800 1026.0000 1.0000
26.8900 1093.0000 1.0000
26.9000 1076.0000 1.0000
26.9100 1065.0000 1.0000
26.9200 1050.0000 1.0000
26.9300 1015.0000 1.0000
26.9400 1020.0000 1.0000
26.9500 1101.0000 1.0000
26.9600 1108.0000 1.0000
26.9700 1053.0000 1.0000
26.9800 982.0000 1.0000
26.9900 1047.0000 1.0000
27.0000 1024.0000 1.0000
27.0100 966.0000 1.0000
27.0200 964.0000 1.0000
27.0300 992.0000 1.0000
27.0400 1035.0000 1.0000
27.0500 991.0000 1.0000
27.0600 992.0000 1.0000
27.0700 938.0000 1.0000
27.0800 986.0000 1.0000
27.0900 970.0000 1.0000
27.1000 946.0000 1.0000
27.1100 985.0000 1.0000
27.1200 979.0000 1.0000
27.1300 972.0000 1.0000
27.1400 969.0000 1.0000
27.1500 969.0000 1.0000
27.1600 931.0000 1.0000
27.1700 962.0000 1.0000
27.1800 949.0000 1.0000
27.1900 910.0000 1.0000
27.2000 969.0000 1.0000
27.2100 928.0000 1.0000
27.2200 958.0000 1.0000
27.2300 927.0000 1.0000
27.2400 926.0000 1.0000
27.2500 966.0000 1.0000
27.2600 965.0000 1.0000
27.2700 968.0000 1.0000
27.2800 927.0000 1.0000
27.2900 932.0000 1.0000
27.3000 973.0000 1.0000
27.3100 930.0000 1.0000
27.3200 927.0000 1.0000
27.3300 978.0000 1.0000
27.3400 915.0000 1.0000
27.3500 901.0000 1.0000
27.3600 966.0000 1.0000
27.3700 915.0000 1.0000
27.3800 941.0000 1.0000
27.3900 959.0000 1.0000
27.4000 973.0000 1.0000
27.4100 957.0000 1.0000
27.4200 920.0000 1.0000
27.4300 916.0000 1.0000
27.4400 909.0000 1.0000
27.4500 915.0000 1.0000
27.4600 876.0000 1.0000
27.4700 952.0000 1.0000
27.4800 936.0000 1.0000
27.4900 929.0000 1.0000
27.5000 935.0000 1.0000
27.5100 903.0000 1.0000
27.5200 913.0000 1.0000
27.5300 931.0000 1.0000
27.5400 930.0000 1.0000
27.5500 918.0000 1.0000
27.5600 965.0000 1.0000
27.5700 940.0000 1.0000
27.5800 929.0000 1.0000
27.5900 952.0000 1.0000
27.6000 923.0000 1.0000
27.6100 920.0000 1.0000
27.6200 910.0000 1.0000
27.6300 934.0000 1.0000
27.6400 951.0000 1.0000
27.6500 930.0000 1.0000
27.6600 916.0000 1.0000
27.6700 890.0000 1.0000
27.6800 897.0000 1.0000
27.6900 950.0000 1.0000
27.7000 889.0000 1.0000
27.7100 889.0000 1.0000
27.7200 849.0000 1.0000
27.7300 915.0000 1.0000
27.7400 889.0000 1.0000
27.7500 876.0000 1.0000
27.7600 909.0000 1.0000
27.7700 934.0000 1.0000
27.7800 877.0000 1.0000
27.7900 870.0000 1.0000
27.8000 901.0000 1.0000
27.8100 882.0000 1.0000
27.8200 872.0000 1.0000
27.8300 962.0000 1.0000
27.8400 946.0000 1.0000
27.8500 923.0000 1.0000
27.8600 888.0000 1.0000
27.8700 937.0000 1.0000
27.8800 930.0000 1.0000
27.8900 885.0000 1.0000
27.9000 898.0000 1.0000
27.9100 928.0000 1.0000
27.9200 912.0000 1.0000
27.9300 941.0000 1.0000
27.9400 908.0000 1.0000
27.9500 868.0000 1.0000
27.9600 887.0000 1.0000
27.9700 891.0000 1.0000
27.9800 878.0000 1.0000
27.9900 907.0000 1.0000
28.0000 896.0000 1.0000
28.0100 857.0000 1.0000
28.0200 885.0000 1.0000
28.0300 866.0000 1.0000
28.0400 858.0000 1.0000
28.0500 961.0000 1.0000
28.0600 896.0000 1.0000
28.0700 853.0000 1.0000
28.0800 854.0000 1.0000
28.0900 901.0000 1.0000
28.1000 901.0000 1.0000
28.1100 885.0000 1.0000
28.1200 876.0000 1.0000
28.1300 847.0000 1.0000
28.1400 853.0000 1.0000
28.1500 915.0000 1.0000
28.1600 935.0000 1.0000
28.1700 922.0000 1.0000
28.1800 883.0000 1.0000
28.1900 860.0000 1.0000
28.2000 844.0000 1.0000
28.2100 936.0000 1.0000
28.2200 882.0000 1.0000
28.2300 879.0000 1.0000
28.2400 872.0000 1.0000
28.2500 898.0000 1.0000
28.2600 920.0000 1.0000
28.2700 821.0000 1.0000
28.2800 909.0000 1.0000
28.2900 845.0000 1.0000
28.3000 881.0000 1.0000
28.3100 905.0000 1.0000
28.3200 910.0000 1.0000
28.3300 855.0000 1.0000
28.3400 827.0000 1.0000
28.3500 866.0000 1.0000
28.3600 868.0000 1.0000
28.3700 899.0000 1.0000
28.3800 850.0000 1.0000
28.3900 848.0000 1.0000
28.4000 911.0000 1.0000
28.4100 870.0000 1.0000
28.4200 852.0000 1.0000
28.4300 901.0000 1.0000
28.4400 867.0000 1.0000
28.4500 858.0000 1.0000
28.4600 859.0000 1.0000
28.4700 866.0000 1.0000
28.4800 914.0000 1.0000
28.4900 882.0000 1.0000
28.5000 895.0000 1.0000
28.5100 824.0000 1.0000
28.5200 799.0000 1.0000
28.5300 863.0000 1.0000
28.5400 862.0000 1.0000
28.5500 863.0000 1.0000
28.5600 854.0000 1.0000
28.5700 871.0000 1.0000
28.5800 840.0000 1.0000
28.5900 821.0000 1.0000
28.6000 830.0000 1.0000
28.6100 845.0000 1.0000
28.6200 846.0000 1.0000
28.6300 848.0000 1.0000
28.6400 866.0000 1.0000
28.6500 818.0000 1.0000
28.6600 885.0000 1.0000
28.6700 891.0000 1.0000
28.6800 834.0000 1.0000
28.6900 853.0000 1.0000
28.7000 880.0000 1.0000
28.7100 840.0000 1.0000
28.7200 871.0000 1.0000
28.7300 869.0000 1.0000
28.7400 851.0000 1.0000
28.7500 868.0000 1.0000
28.7600 850.0000 1.0000
28.7700 857.0000 1.0000
28.7800 813.0000 1.0000
28.7900 861.0000 1.0000
28.8000 835.0000 1.0000
28.8100 854.0000 1.0000
28.8200 867.0000 1.0000
28.8300 825.0000 1.0000
28.8400 839.0000 1.0000
28.8500 800.0000 1.0000
28.8600 852.0000 1.0000
28.8700 845.0000 1.0000
28.8800 865.0000 1.0000
28.8900 866.0000 1.0000
28.9000 905.0000 1.0000
28.9100 836.0000 1.0000
28.9200 816.0000 1.0000
28.9300 850.0000 1.0000
28.9400 870.0000 1.0000
28.9500 898.0000 1.0000
28.9600 813.0000 1.0000
28.9700 820.0000 1.0000
28.9800 868.0000 1.0000
28.9900 866.0000 1.0000
29.0000 847.0000 1.0000
29.0100 824.0000 1.0000
29.0200 832.0000 1.0000
29.0300 828.0000 1.0000
29.0400 853.0000 1.0000
29.0500 847.0000 1.0000
29.0600 873.0000 1.0000
29.0700 883.0000 1.0000
29.0800 847.0000 1.0000
29.0900 786.0000 1.0000
29.1000 864.0000 1.0000
29.1100 853.0000 1.0000
29.1200 843.0000 1.0000
29.1300 844.0000 1.0000
29.1400 862.0000 1.0000
29.1500 877.0000 1.0000
29.1600 893.0000 1.0000
29.1700 812.0000 1.0000
29.1800 823.0000 1.0000
29.1900 860.0000 1.0000
29.2000 823.0000 1.0000
29.2100 789.0000 1.0000
29.2200 851.0000 1.0000
29.2300 860.0000 1.0000
29.2400 798.0000 1.0000
29.2500 836.0000 1.0000
29.2600 805.0000 1.0000
29.2700 812.0000 1.0000
29.2800 843.0000 1.0000
29.2900 821.0000 1.0000
29.3000 825.0000 1.0000
29.3100 887.0000 1.0000
29.3200 833.0000 1.0000
29.3300 833.0000 1.0000
29.3400 808.0000 1.0000
29.3500 845.0000 1.0000
29.3600 828.0000 1.0000
29.3700 852.0000 1.0000
29.3800 803.0000 1.0000
29.3900 792.0000 1.0000
29.4000 786.0000 1.0000
29.4100 806.0000 1.0000
29.4200 855.0000 1.0000
29.4300 833.0000 1.0000
29.4400 793.0000 1.0000
29.4500 790.0000 1.0000
29.4600 785.0000 1.0000
29.4700 808.0000 1.0000
29.4800 809.0000 1.0000
29.4900 813.0000 1.0000
29.5000 890.0000 1.0000
29.5100 832.0000 1.0000
29.5200 820.0000 1.0000
29.5300 799.0000 1.0000
29.5400 820.0000 1.0000
29.5500 815.0000 1.0000
29.5600 760.0000 1.0000
29.5700 773.0000 1.0000
29.5800 878.0000 1.0000
29.5900 841.0000 1.0000
29.6000 856.0000 1.0000
29.6100 834.0000 1.0000
29.6200 834.0000 1.0000
29.6300 806.0000 1.0000
29.6400 804.0000 1.0000
29.6500 794.0000 1.0000
29.6600 832.0000 1.0000
29.6700 835.0000 1.0000
29.6800 823.0000 1.0000
29.6900 843.0000 1.0000
29.7000 824.0000 1.0000
29.7100 771.0000 1.0000
29.7200 810.0000 1.0000
29.7300 796.0000 1.0000
29.7400 780.0000 1.0000
29.7500 840.0000 1.0000
29.7600 793.0000 1.0000
29.7700 823.0000 1.0000
29.7800 790.0000 1.0000
29.7900 850.0000 1.0000
29.8000 848.0000 1.0000
29.8100 821.0000 1.0000
29.8200 854.0000 1.0000
29.8300 843.0000 1.0000
29.8400 777.0000 1.0000
29.8500 832.0000 1.0000
29.8600 833.0000 1.0000
29.8700 790.0000 1.0000
29.8800 807.0000 1.0000
29.8900 823.0000 1.0000
29.9000 792.0000 1.0000
29.9100 817.0000 1.0000
29.9200 845.0000 1.0000
29.9300 831.0000 1.0000
29.9400 809.0000 1.0000
29.9500 828.0000 1.0000
29.9600 827.0000 1.0000
29.9700 787.0000 1.0000
29.9800 866.0000 1.0000
29.9900 855.0000 1.0000
30.0000 807.0000 1.0000
30.0100 845.0000 1.0000
30.0200 819.0000 1.0000
30.0300 840.0000 1.0000
30.0400 767.0000 1.0000
30.0500 814.0000 1.0000
30.0600 830.0000 1.0000
30.0700 837.0000 1.0000
30.0800 806.0000 1.0000
30.0900 849.0000 1.0000
30.1000 858.0000 1.0000
30.1100 831.0000 1.0000
30.1200 812.0000 1.0000
30.1300 814.0000 1.0000
30.1400 806.0000 1.0000
30.1500 820.0000 1.0000
30.1600 758.0000 1.0000
30.1700 786.0000 1.0000
30.1800 796.0000 1.0000
30.1900 824.0000 1.0000
30.2000 804.0000 1.0000
30.2100 800.0000 1.0000
30.2200 769.0000 1.0000
30.2300 814.0000 1.0000
30.2400 858.0000 1.0000
30.2500 810.0000 1.0000
30.2600 787.0000 1.0000
30.2700 847.0000 1.0000
30.2800 792.0000 1.0000
30.2900 835.0000 1.0000
30.3000 796.0000 1.0000
30.3100 806.0000 1.0000
30.3200 787.0000 1.0000
30.3300 786.0000 1.0000
30.3400 811.0000 1.0000
30.3500 791.0000 1.0000
30.3600 800.0000 1.0000
30.3700 752.0000 1.0000
30.3800 836.0000 1.0000
30.3900 831.0000 1.0000
30.4000 830.0000 1.0000
30.4100 790.0000 1.0000
30.4200 812.0000 1.0000
30.4300 778.0000 1.0000
30.4400 791.0000 1.0000
30.4500 779.0000 1.0000
30.4600 788.0000 1.0000
30.4700 786.0000 1.0000
30.4800 811.0000 1.0000
30.4900 786.0000 1.0000
30.5000 792.0000 1.0000
30.5100 818.0000 1.0000
30.5200 825.0000 1.0000
30.5300 795.0000 1.0000
30.5400 757.0000 1.0000
30.5500 763.0000 1.0000
30.5600 765.0000 1.0000
30.5700 801.0000 1.0000
30.5800 832.0000 1.0000
30.5900 755.0000 1.0000
30.6000 765.0000 1.0000
30.6100 807.0000 1.0000
30.6200 802.0000 1.0000
30.6300 797.0000 1.0000
30.6400 787.0000 1.0000
30.6500 829.0000 1.0000
30.6600 825.0000 1.0000
30.6700 789.0000 1.0000
30.6800 748.0000 1.0000
30.6900 814.0000 1.0000
30.7000 789.0000 1.0000
30.7100 794.0000 1.0000
30.7200 756.0000 1.0000
30.7300 794.0000 1.0000
30.7400 771.0000 1.0000
30.7500 808.0000 1.0000
30.7600 751.0000 1.0000
30.7700 745.0000 1.0000
30.7800 798.0000 1.0000
30.7900 806.0000 1.0000
30.8000 820.0000 1.0000
30.8100 766.0000 1.0000
30.8200 794.0000 1.0000
30.8300 734.0000 1.0000
30.8400 796.0000 1.0000
30.8500 740.0000 1.0000
30.8600 772.0000 1.0000
30.8700 781.0000 1.0000
30.8800 734.0000 1.0000
30.8900 802.0000 1.0000
30.9000 793.0000 1.0000
30.9100 798.0000 1.0000
30.9200 789.0000 1.0000
30.9300 799.0000 1.0000
30.9400 774.0000 1.0000
30.9500 802.0000 1.0000
30.9600 747.0000 1.0000
30.9700 754.0000 1.0000
30.9800 803.0000 1.0000
30.9900 781.0000 1.0000
31.0000 767.0000 1.0000
31.0100 771.0000 1.0000
31.0200 799.0000 1.0000
31.0300 825.0000 1.0000
31.0400 789.0000 1.0000
31.0500 724.0000 1.0000
31.0600 793.0000 1.0000
31.0700 794.0000 1.0000
31.0800 827.0000 1.0000
31.0900 803.0000 1.0000
31.1000 792.0000 1.0000
31.1100 787.0000 1.0000
31.1200 767.0000 1.0000
31.1300 801.0000 1.0000
31.1400 788.0000 1.0000
31.1500 808.0000 1.0000
31.1600 805.0000 1.0000
31.1700 776.0000 1.0000
31.1800 805.0000 1.0000
31.1900 840.0000 1.0000
31.2000 795.0000 1.0000
31.2100 786.0000 1.0000
31.2200 770.0000 1.0000
31.2300 812.0000 1.0000
31.2400 810.0000 1.0000
31.2500 795.0000 1.0000
31.2600 810.0000 1.0000
31.2700 797.0000 1.0000
31.2800 773.0000 1.0000
31.2900 784.0000 1.0000
31.3000 766.0000 1.0000
31.3100 744.0000 1.0000
31.3200 752.0000 1.0000
31.3300 771.0000 1.0000
31.3400 758.0000 1.0000
31.3500 765.0000 1.0000
31.3600 775.0000 1.0000
31.3700 757.0000 1.0000
31.3800 775.0000 1.0000
31.3900 775.0000 1.0000
31.4000 757.0000 1.0000
31.4100 786.0000 1.0000
31.4200 792.0000 1.0000
31.4300 770.0000 1.0000
31.4400 774.0000 1.0000
31.4500 748.0000 1.0000
31.4600 730.0000 1.0000
31.4700 763.0000 1.0000
31.4800 769.0000 1.0000
31.4900 749.0000 1.0000
31.5000 784.0000 1.0000
31.5100 731.0000 1.0000
31.5200 755.0000 1.0000
31.5300 702.0000 1.0000
31.5400 775.0000 1.0000
31.5500 725.0000 1.0000
31.5600 739.0000 1.0000
31.5700 761.0000 1.0000
31.5800 744.0000 1.0000
31.5900 772.0000 1.0000
31.6000 729.0000 1.0000
31.6100 729.0000 1.0000
31.6200 749.0000 1.0000
31.6300 768.0000 1.0000
31.6400 761.0000 1.0000
31.6500 713.0000 1.0000
31.6600 808.0000 1.0000
31.6700 746.0000 1.0000
31.6800 795.0000 1.0000
31.6900 752.0000 1.0000
31.7000 716.0000 1.0000
31.7100 774.0000 1.0000
31.7200 784.0000 1.0000
31.7300 764.0000 1.0000
31.7400 707.0000 1.0000
31.7500 752.0000 1.0000
31.7600 795.0000 1.0000
31.7700 779.0000 1.0000
31.7800 788.0000 1.0000
31.7900 769.0000 1.0000
31.8000 772.0000 1.0000
31.8100 778.0000 1.0000
31.8200 710.0000 1.0000
31.8300 747.0000 1.0000
31.8400 728.0000 1.0000
31.8500 754.0000 1.0000
31.8600 792.0000 1.0000
31.8700 719.0000 1.0000
31.8800 688.0000 1.0000
31.8900 766.0000 1.0000
31.9000 750.0000 1.0000
31.9100 769.0000 1.0000
31.9200 744.0000 1.0000
31.9300 776.0000 1.0000
31.9400 785.0000 1.0000
31.9500 754.0000 1.0000
31.9600 737.0000 1.0000
31.9700 773.0000 1.0000
31.9800 731.0000 1.0000
31.9900 760.0000 1.0000
32.0000 710.0000 1.0000
32.0100 714.0000 1.0000
32.0200 695.0000 1.0000
32.0300 795.0000 1.0000
32.0400 750.0000 1.0000
32.0500 735.0000 1.0000
32.0600 764.0000 1.0000
32.0700 731.0000 1.0000
32.0800 746.0000 1.0000
32.0900 772.0000 1.0000
32.1000 765.0000 1.0000
32.1100 757.0000 1.0000
32.1200 784.0000 1.0000
32.1300 778.0000 1.0000
32.1400 718.0000 1.0000
32.1500 755.0000 1.0000
32.1600 745.0000 1.0000
32.1700 749.0000 1.0000
32.1800 712.0000 1.0000
32.1900 691.0000 1.0000
32.2000 753.0000 1.0000
32.2100 780.0000 1.0000
32.2200 737.0000 1.0000
32.2300 737.0000 1.0000
32.2400 772.0000 1.0000
32.2500 727.0000 1.0000
32.2600 757.0000 1.0000
32.2700 742.0000 1.0000
32.2800 718.0000 1.0000
32.2900 757.0000 1.0000
32.3000 735.0000 1.0000
32.3100 759.0000 1.0000
32.3200 725.0000 1.0000
32.3300 777.0000 1.0000
32.3400 788.0000 1.0000
32.3500 735.0000 1.0000
32.3600 726.0000 1.0000
32.3700 710.0000 1.0000
32.3800 699.0000 1.0000
32.3900 739.0000 1.0000
32.4000 728.0000 1.0000
32.4100 718.0000 1.0000
32.4200 761.0000 1.0000
32.4300 721.0000 1.0000
32.4400 755.0000 1.0000
32.4500 712.0000 1.0000
32.4600 760.0000 1.0000
32.4700 714.0000 1.0000
32.4800 692.0000 1.0000
32.4900 757.0000 1.0000
32.5000 763.0000 1.0000
32.5100 706.0000 1.0000
32.5200 720.0000 1.0000
32.5300 681.0000 1.0000
32.5400 765.0000 1.0000
32.5500 741.0000 1.0000
32.5600 770.0000 1.0000
32.5700 726.0000 1.0000
32.5800 696.0000 1.0000
32.5900 727.0000 1.0000
32.6000 719.0000 1.0000
32.6100 707.0000 1.0000
32.6200 692.0000 1.0000
32.6300 754.0000 1.0000
32.6400 747.0000 1.0000
32.6500 723.0000 1.0000
32.6600 711.0000 1.0000
32.6700 740.0000 1.0000
32.6800 745.0000 1.0000
32.6900 775.0000 1.0000
32.7000 772.0000 1.0000
32.7100 787.0000 1.0000
32.7200 756.0000 1.0000
32.7300 732.0000 1.0000
32.7400 718.0000 1.0000
32.7500 712.0000 1.0000
32.7600 740.0000 1.0000
32.7700 742.0000 1.0000
32.7800 709.0000 1.0000
32.7900 766.0000 1.0000
32.8000 778.0000 1.0000
32.8100 756.0000 1.0000
32.8200 745.0000 1.0000
32.8300 777.0000 1.0000
32.8400 768.0000 1.0000
32.8500 792.0000 1.0000
32.8600 713.0000 1.0000
32.8700 744.0000 1.0000
32.8800 750.0000 1.0000
32.8900 768.0000 1.0000
32.9000 771.0000 1.0000
32.9100 766.0000 1.0000
32.9200 769.0000 1.0000
32.9300 772.0000 1.0000
32.9400 808.0000 1.0000
32.9500 802.0000 1.0000
32.9600 810.0000 1.0000
32.9700 828.0000 1.0000
32.9800 857.0000 1.0000
32.9900 811.0000 1.0000
33.0000 812.0000 1.0000
33.0100 891.0000 1.0000
33.0200 906.0000 1.0000
33.0300 889.0000 1.0000
33.0400 893.0000 1.0000
33.0500 897.0000 1.0000
33.0600 926.0000 1.0000
33.0700 901.0000 1.0000
33.0800 907.0000 1.0000
33.0900 877.0000 1.0000
33.1000 892.0000 1.0000
33.1100 902.0000 1.0000
33.1200 911.0000 1.0000
33.1300 876.0000 1.0000
33.1400 916.0000 1.0000
33.1500 851.0000 1.0000
33.1600 886.0000 1.0000
33.1700 874.0000 1.0000
33.1800 878.0000 1.0000
33.1900 850.0000 1.0000
33.2000 866.0000 1.0000
33.2100 827.0000 1.0000
33.2200 808.0000 1.0000
33.2300 851.0000 1.0000
33.2400 811.0000 1.0000
33.2500 785.0000 1.0000
33.2600 802.0000 1.0000
33.2700 803.0000 1.0000
33.2800 854.0000 1.0000
33.2900 877.0000 1.0000
33.3000 825.0000 1.0000
33.3100 812.0000 1.0000
33.3200 848.0000 1.0000
33.3300 859.0000 1.0000
33.3400 900.0000 1.0000
33.3500 865.0000 1.0000
33.3600 851.0000 1.0000
33.3700 872.0000 1.0000
33.3800 899.0000 1.0000
33.3900 947.0000 1.0000
33.4000 955.0000 1.0000
33.4100 942.0000 1.0000
33.4200 978.0000 1.0000
33.4300 970.0000 1.0000
33.4400 1017.0000 1.0000
33.4500 1006.0000 1.0000
33.4600 1085.0000 1.0000
33.4700 1104.0000 1.0000
33.4800 1114.0000 1.0000
33.4900 1159.0000 1.0000
33.5000 1225.0000 1.0000
33.5100 1237.0000 1.0000
33.5200 1339.0000 1.0000
33.5300 1385.0000 1.0000
33.5400 1409.0000 1.0000
33.5500 1503.0000 1.0000
33.5600 1619.0000 1.0000
33.5700 1762.0000 1.0000
33.5800 1723.0000 1.0000
33.5900 1853.0000 1.0000
33.6000 1899.0000 1.0000
33.6100 1856.0000 1.0000
33.6200 1891.0000 1.0000
33.6300 1857.0000 1.0000
33.6400 1776.0000 1.0000
33.6500 1851.0000 1.0000
33.6600 1811.0000 1.0000
33.6700 1822.0000 1.0000
33.6800 1735.0000 1.0000
33.6900 1654.0000 1.0000
33.7000 1604.0000 1.0000
33.7100 1557.0000 1.0000
33.7200 1465.0000 1.0000
33.7300 1472.0000 1.0000
33.7400 1384.0000 1.0000
33.7500 1329.0000 1.0000
33.7600 1293.0000 1.0000
33.7700 1271.0000 1.0000
33.7800 1125.0000 1.0000
33.7900 1110.0000 1.0000
33.8000 1132.0000 1.0000
33.8100 1050.0000 1.0000
33.8200 1071.0000 1.0000
33.8300 988.0000 1.0000
33.8400 987.0000 1.0000
33.8500 995.0000 1.0000
33.8600 991.0000 1.0000
33.8700 942.0000 1.0000
33.8800 910.0000 1.0000
33.8900 866.0000 1.0000
33.9000 841.0000 1.0000
33.9100 830.0000 1.0000
33.9200 875.0000 1.0000
33.9300 886.0000 1.0000
33.9400 804.0000 1.0000
33.9500 829.0000 1.0000
33.9600 822.0000 1.0000
33.9700 792.0000 1.0000
33.9800 758.0000 1.0000
33.9900 755.0000 1.0000
34.0000 759.0000 1.0000
34.0100 724.0000 1.0000
34.0200 732.0000 1.0000
34.0300 764.0000 1.0000
34.0400 748.0000 1.0000
34.0500 732.0000 1.0000
34.0600 716.0000 1.0000
34.0700 729.0000 1.0000
34.0800 711.0000 1.0000
34.0900 749.0000 1.0000
34.1000 754.0000 1.0000
34.1100 705.0000 1.0000
34.1200 701.0000 1.0000
34.1300 690.0000 1.0000
34.1400 728.0000 1.0000
34.1500 680.0000 1.0000
34.1600 683.0000 1.0000
34.1700 699.0000 1.0000
34.1800 691.0000 1.0000
34.1900 704.0000 1.0000
34.2000 713.0000 1.0000
34.2100 707.0000 1.0000
34.2200 709.0000 1.0000
34.2300 702.0000 1.0000
34.2400 719.0000 1.0000
34.2500 716.0000 1.0000
34.2600 723.0000 1.0000
34.2700 704.0000 1.0000
34.2800 691.0000 1.0000
34.2900 696.0000 1.0000
34.3000 678.0000 1.0000
34.3100 693.0000 1.0000
34.3200 729.0000 1.0000
34.3300 687.0000 1.0000
34.3400 683.0000 1.0000
34.3500 657.0000 1.0000
34.3600 654.0000 1.0000
34.3700 716.0000 1.0000
34.3800 691.0000 1.0000
34.3900 714.0000 1.0000
34.4000 712.0000 1.0000
34.4100 661.0000 1.0000
34.4200 675.0000 1.0000
34.4300 706.0000 1.0000
34.4400 645.0000 1.0000
34.4500 702.0000 1.0000
34.4600 630.0000 1.0000
34.4700 650.0000 1.0000
34.4800 678.0000 1.0000
34.4900 716.0000 1.0000
34.5000 645.0000 1.0000
34.5100 677.0000 1.0000
34.5200 657.0000 1.0000
34.5300 675.0000 1.0000
34.5400 592.0000 1.0000
34.5500 649.0000 1.0000
34.5600 655.0000 1.0000
34.5700 685.0000 1.0000
34.5800 655.0000 1.0000
34.5900 685.0000 1.0000
34.6000 680.0000 1.0000
34.6100 675.0000 1.0000
34.6200 628.0000 1.0000
34.6300 693.0000 1.0000
34.6400 617.0000 1.0000
34.6500 618.0000 1.0000
34.6600 657.0000 1.0000
34.6700 624.0000 1.0000
34.6800 639.0000 1.0000
34.6900 625.0000 1.0000
34.7000 652.0000 1.0000
34.7100 641.0000 1.0000
34.7200 645.0000 1.0000
34.7300 645.0000 1.0000
34.7400 674.0000 1.0000
34.7500 642.0000 1.0000
34.7600 646.0000 1.0000
34.7700 684.0000 1.0000
34.7800 692.0000 1.0000
34.7900 643.0000 1.0000
34.8000 639.0000 1.0000
34.8100 620.0000 1.0000
34.8200 636.0000 1.0000
34.8300 693.0000 1.0000
34.8400 658.0000 1.0000
34.8500 630.0000 1.0000
34.8600 643.0000 1.0000
34.8700 653.0000 1.0000
34.8800 644.0000 1.0000
34.8900 651.0000 1.0000
34.9000 646.0000 1.0000
34.9100 647.0000 1.0000
34.9200 642.0000 1.0000
34.9300 586.0000 1.0000
34.9400 582.0000 1.0000
34.9500 641.0000 1.0000
34.9600 670.0000 1.0000
34.9700 614.0000 1.0000
34.9800 608.0000 1.0000
34.9900 604.0000 1.0000
35.0000 614.0000 1.0000
35.0100 623.0000 1.0000
35.0200 645.0000 1.0000
35.0300 647.0000 1.0000
35.0400 626.0000 1.0000
35.0500 623.0000 1.0000
35.0600 638.0000 1.0000
35.0700 658.0000 1.0000
35.0800 652.0000 1.0000
35.0900 653.0000 1.0000
35.1000 659.0000 1.0000
35.1100 638.0000 1.0000
35.1200 659.0000 1.0000
35.1300 641.0000 1.0000
35.1400 638.0000 1.0000
35.1500 655.0000 1.0000
35.1600 651.0000 1.0000
35.1700 603.0000 1.0000
35.1800 623.0000 1.0000
35.1900 628.0000 1.0000
35.2000 686.0000 1.0000
35.2100 713.0000 1.0000
35.2200 671.0000 1.0000
35.2300 679.0000 1.0000
35.2400 681.0000 1.0000
35.2500 669.0000 1.0000
35.2600 647.0000 1.0000
35.2700 647.0000 1.0000
35.2800 632.0000 1.0000
35.2900 677.0000 1.0000
35.3000 632.0000 1.0000
35.3100 669.0000 1.0000
35.3200 653.0000 1.0000
35.3300 737.0000 1.0000
35.3400 738.0000 1.0000
35.3500 699.0000 1.0000
35.3600 737.0000 1.0000
35.3700 759.0000 1.0000
35.3800 744.0000 1.0000
35.3900 743.0000 1.0000
35.4000 746.0000 1.0000
35.4100 800.0000 1.0000
35.4200 852.0000 1.0000
35.4300 879.0000 1.0000
35.4400 935.0000 1.0000
35.4500 891.0000 1.0000
35.4600 969.0000 1.0000
35.4700 1005.0000 1.0000
35.4800 1118.0000 1.0000
35.4900 1184.0000 1.0000
35.5000 1154.0000 1.0000
35.5100 1230.0000 1.0000
35.5200 1275.0000 1.0000
35.5300 1275.0000 1.0000
35.5400 1254.0000 1.0000
35.5500 1287.0000 1.0000
35.5600 1265.0000 1.0000
35.5700 1242.0000 1.0000
35.5800 1208.0000 1.0000
35.5900 1139.0000 1.0000
35.6000 1116.0000 1.0000
35.6100 1146.0000 1.0000
35.6200 1069.0000 1.0000
35.6300 1006.0000 1.0000
35.6400 947.0000 1.0000
35.6500 912.0000 1.0000
35.6600 905.0000 1.0000
35.6700 875.0000 1.0000
35.6800 876.0000 1.0000
35.6900 803.0000 1.0000
35.7000 767.0000 1.0000
35.7100 702.0000 1.0000
35.7200 750.0000 1.0000
35.7300 678.0000 1.0000
35.7400 690.0000 1.0000
35.7500 700.0000 1.0000
35.7600 649.0000 1.0000
35.7700 646.0000 1.0000
35.7800 651.0000 1.0000
35.7900 670.0000 1.0000
35.8000 606.0000 1.0000
35.8100 581.0000 1.0000
35.8200 588.0000 1.0000
35.8300 646.0000 1.0000
35.8400 581.0000 1.0000
35.8500 589.0000 1.0000
35.8600 657.0000 1.0000
35.8700 605.0000 1.0000
35.8800 594.0000 1.0000
35.8900 609.0000 1.0000
35.9000 618.0000 1.0000
35.9100 611.0000 1.0000
35.9200 586.0000 1.0000
35.9300 577.0000 1.0000
35.9400 590.0000 1.0000
35.9500 599.0000 1.0000
35.9600 629.0000 1.0000
35.9700 599.0000 1.0000
35.9800 588.0000 1.0000
35.9900 622.0000 1.0000
36.0000 604.0000 1.0000
36.0100 619.0000 1.0000
36.0200 626.0000 1.0000
36.0300 588.0000 1.0000
36.0400 574.0000 1.0000
36.0500 634.0000 1.0000
36.0600 612.0000 1.0000
36.0700 568.0000 1.0000
36.0800 602.0000 1.0000
36.0900 595.0000 1.0000
36.1000 568.0000 1.0000
36.1100 615.0000 1.0000
36.1200 585.0000 1.0000
36.1300 566.0000 1.0000
36.1400 607.0000 1.0000
36.1500 581.0000 1.0000
36.1600 587.0000 1.0000
36.1700 583.0000 1.0000
36.1800 627.0000 1.0000
36.1900 602.0000 1.0000
36.2000 593.0000 1.0000
36.2100 587.0000 1.0000
36.2200 591.0000 1.0000
36.2300 605.0000 1.0000
36.2400 559.0000 1.0000
36.2500 542.0000 1.0000
36.2600 575.0000 1.0000
36.2700 627.0000 1.0000
36.2800 589.0000 1.0000
36.2900 573.0000 1.0000
36.3000 588.0000 1.0000
36.3100 565.0000 1.0000
36.3200 600.0000 1.0000
36.3300 596.0000 1.0000
36.3400 590.0000 1.0000
36.3500 606.0000 1.0000
36.3600 630.0000 1.0000
36.3700 611.0000 1.0000
36.3800 630.0000 1.0000
36.3900 554.0000 1.0000
36.4000 594.0000 1.0000
36.4100 616.0000 1.0000
36.4200 562.0000 1.0000
36.4300 603.0000 1.0000
36.4400 590.0000 1.0000
36.4500 559.0000 1.0000
36.4600 560.0000 1.0000
36.4700 603.0000 1.0000
36.4800 597.0000 1.0000
36.4900 566.0000 1.0000
36.5000 607.0000 1.0000
36.5100 592.0000 1.0000
36.5200 584.0000 1.0000
36.5300 602.0000 1.0000
36.5400 570.0000 1.0000
36.5500 578.0000 1.0000
36.5600 608.0000 1.0000
36.5700 603.0000 1.0000
36.5800 591.0000 1.0000
36.5900 551.0000 1.0000
36.6000 579.0000 1.0000
36.6100 565.0000 1.0000
36.6200 592.0000 1.0000
36.6300 562.0000 1.0000
36.6400 576.0000 1.0000
36.6500 645.0000 1.0000
36.6600 576.0000 1.0000
36.6700 582.0000 1.0000
36.6800 589.0000 1.0000
36.6900 573.0000 1.0000
36.7000 580.0000 1.0000
36.7100 566.0000 1.0000
36.7200 589.0000 1.0000
36.7300 579.0000 1.0000
36.7400 601.0000 1.0000
36.7500 616.0000 1.0000
36.7600 568.0000 1.0000
36.7700 577.0000 1.0000
36.7800 583.0000 1.0000
36.7900 559.0000 1.0000
36.8000 559.0000 1.0000
36.8100 597.0000 1.0000
36.8200 594.0000 1.0000
36.8300 583.0000 1.0000
36.8400 600.0000 1.0000
36.8500 562.0000 1.0000
36.8600 596.0000 1.0000
36.8700 581.0000 1.0000
36.8800 616.0000 1.0000
36.8900 599.0000 1.0000
36.9000 593.0000 1.0000
36.9100 596.0000 1.0000
36.9200 592.0000 1.0000
36.9300 588.0000 1.0000
36.9400 551.0000 1.0000
36.9500 602.0000 1.0000
36.9600 594.0000 1.0000
36.9700 591.0000 1.0000
36.9800 560.0000 1.0000
36.9900 585.0000 1.0000
37.0000 572.0000 1.0000
37.0100 569.0000 1.0000
37.0200 609.0000 1.0000
37.0300 621.0000 1.0000
37.0400 596.0000 1.0000
37.0500 565.0000 1.0000
37.0600 614.0000 1.0000
37.0700 612.0000 1.0000
37.0800 599.0000 1.0000
37.0900 619.0000 1.0000
37.1000 557.0000 1.0000
37.1100 580.0000 1.0000
37.1200 625.0000 1.0000
37.1300 643.0000 1.0000
37.1400 658.0000 1.0000
37.1500 596.0000 1.0000
37.1600 618.0000 1.0000
37.1700 630.0000 1.0000
37.1800 603.0000 1.0000
37.1900 637.0000 1.0000
37.2000 601.0000 1.0000
37.2100 621.0000 1.0000
37.2200 624.0000 1.0000
37.2300 604.0000 1.0000
37.2400 683.0000 1.0000
37.2500 700.0000 1.0000
37.2600 702.0000 1.0000
37.2700 641.0000 1.0000
37.2800 676.0000 1.0000
37.2900 708.0000 1.0000
37.3000 674.0000 1.0000
37.3100 678.0000 1.0000
37.3200 698.0000 1.0000
37.3300 688.0000 1.0000
37.3400 730.0000 1.0000
37.3500 771.0000 1.0000
37.3600 782.0000 1.0000
37.3700 752.0000 1.0000
37.3800 776.0000 1.0000
37.3900 792.0000 1.0000
37.4000 817.0000 1.0000
37.4100 876.0000 1.0000
37.4200 905.0000 1.0000
37.4300 870.0000 1.0000
37.4400 908.0000 1.0000
37.4500 921.0000 1.0000
37.4600 1018.0000 1.0000
37.4700 1042.0000 1.0000
37.4800 1100.0000 1.0000
37.4900 1083.0000 1.0000
37.5000 1206.0000 1.0000
37.5100 1281.0000 1.0000
37.5200 1296.0000 1.0000
37.5300 1404.0000 1.0000
37.5400 1515.0000 1.0000
37.5500 1613.0000 1.0000
37.5600 1703.0000 1.0000
37.5700 1882.0000 1.0000
37.5800 1945.0000 1.0000
37.5900 2062.0000 1.0000
37.6000 2150.0000 1.0000
37.6100 2286.0000 1.0000
37.6200 2390.0000 1.0000
37.6300 2547.0000 1.0000
37.6400 2543.0000 1.0000
37.6500 2638.0000 1.0000
37.6600 2658.0000 1.0000
37.6700 2762.0000 1.0000
37.6800 2752.0000 1.0000
37.6900 2688.0000 1.0000
37.7000 2667.0000 1.0000
37.7100 2596.0000 1.0000
37.7200 2507.0000 1.0000
37.7300 2493.0000 1.0000
37.7400 2361.0000 1.0000
37.7500 2319.0000 1.0000
37.7600 2256.0000 1.0000
37.7700 2120.0000 1.0000
37.7800 2118.0000 1.0000
37.7900 1928.0000 1.0000
37.8000 1762.0000 1.0000
37.8100 1791.0000 1.0000
37.8200 1636.0000 1.0000
37.8300 1506.0000 1.0000
37.8400 1475.0000 1.0000
37.8500 1383.0000 1.0000
37.8600 1279.0000 1.0000
37.8700 1230.0000 1.0000
37.8800 1193.0000 1.0000
37.8900 1125.0000 1.0000
37.9000 1105.0000 1.0000
37.9100 1003.0000 1.0000
37.9200 1005.0000 1.0000
37.9300 999.0000 1.0000
37.9400 899.0000 1.0000
37.9500 847.0000 1.0000
37.9600 855.0000 1.0000
37.9700 841.0000 1.0000
37.9800 822.0000 1.0000
37.9900 763.0000 1.0000
38.0000 739.0000 1.0000
38.0100 697.0000 1.0000
38.0200 687.0000 1.0000
38.0300 681.0000 1.0000
38.0400 623.0000 1.0000
38.0500 669.0000 1.0000
38.0600 669.0000 1.0000
38.0700 625.0000 1.0000
38.0800 630.0000 1.0000
38.0900 638.0000 1.0000
38.1000 627.0000 1.0000
38.1100 647.0000 1.0000
38.1200 592.0000 1.0000
38.1300 611.0000 1.0000
38.1400 598.0000 1.0000
38.1500 592.0000 1.0000
38.1600 596.0000 1.0000
38.1700 555.0000 1.0000
38.1800 557.0000 1.0000
38.1900 603.0000 1.0000
38.2000 603.0000 1.0000
38.2100 592.0000 1.0000
38.2200 552.0000 1.0000
38.2300 568.0000 1.0000
38.2400 527.0000 1.0000
38.2500 577.0000 1.0000
38.2600 581.0000 1.0000
38.2700 580.0000 1.0000
38.2800 587.0000 1.0000
38.2900 521.0000 1.0000
38.3000 540.0000 1.0000
38.3100 520.0000 1.0000
38.3200 509.0000 1.0000
38.3300 565.0000 1.0000
38.3400 538.0000 1.0000
38.3500 537.0000 1.0000
38.3600 546.0000 1.0000
38.3700 534.0000 1.0000
38.3800 534.0000 1.0000
38.3900 530.0000 1.0000
38.4000 537.0000 1.0000
38.4100 508.0000 1.0000
38.4200 503.0000 1.0000
38.4300 532.0000 1.0000
38.4400 538.0000 1.0000
38.4500 546.0000 1.0000
38.4600 510.0000 1.0000
38.4700 572.0000 1.0000
38.4800 566.0000 1.0000
38.4900 546.0000 1.0000
38.5000 549.0000 1.0000
38.5100 562.0000 1.0000
38.5200 544.0000 1.0000
38.5300 541.0000 1.0000
38.5400 554.0000 1.0000
38.5500 536.0000 1.0000
38.5600 555.0000 1.0000
38.5700 546.0000 1.0000
38.5800 533.0000 1.0000
38.5900 555.0000 1.0000
38.6000 558.0000 1.0000
38.6100 538.0000 1.0000
38.6200 572.0000 1.0000
38.6300 510.0000 1.0000
38.6400 549.0000 1.0000
38.6500 578.0000 1.0000
38.6600 572.0000 1.0000
38.6700 582.0000 1.0000
38.6800 568.0000 1.0000
38.6900 555.0000 1.0000
38.7000 535.0000 1.0000
38.7100 576.0000 1.0000
38.7200 522.0000 1.0000
38.7300 594.0000 1.0000
38.7400 608.0000 1.0000
38.7500 572.0000 1.0000
38.7600 578.0000 1.0000
38.7700 569.0000 1.0000
38.7800 568.0000 1.0000
38.7900 522.0000 1.0000
38.8000 552.0000 1.0000
38.8100 597.0000 1.0000
38.8200 552.0000 1.0000
38.8300 544.0000 1.0000
38.8400 535.0000 1.0000
38.8500 541.0000 1.0000
38.8600 524.0000 1.0000
38.8700 538.0000 1.0000
38.8800 511.0000 1.0000
38.8900 527.0000 1.0000
38.9000 576.0000 1.0000
38.9100 544.0000 1.0000
38.9200 543.0000 1.0000
38.9300 549.0000 1.0000
38.9400 495.0000 1.0000
38.9500 507.0000 1.0000
38.9600 550.0000 1.0000
38.9700 533.0000 1.0000
38.9800 549.0000 1.0000
38.9900 524.0000 1.0000
39.0000 528.0000 1.0000
39.0100 544.0000 1.0000
39.0200 511.0000 1.0000
39.0300 478.0000 1.0000
39.0400 508.0000 1.0000
39.0500 541.0000 1.0000
39.0600 516.0000 1.0000
39.0700 514.0000 1.0000
39.0800 508.0000 1.0000
39.0900 492.0000 1.0000
39.1000 534.0000 1.0000
39.1100 479.0000 1.0000
39.1200 502.0000 1.0000
39.1300 507.0000 1.0000
39.1400 496.0000 1.0000
39.1500 480.0000 1.0000
39.1600 512.0000 1.0000
39.1700 516.0000 1.0000
39.1800 510.0000 1.0000
39.1900 510.0000 1.0000
39.2000 497.0000 1.0000
39.2100 514.0000 1.0000
39.2200 497.0000 1.0000
39.2300 502.0000 1.0000
39.2400 510.0000 1.0000
39.2500 508.0000 1.0000
39.2600 500.0000 1.0000
39.2700 505.0000 1.0000
39.2800 510.0000 1.0000
39.2900 468.0000 1.0000
39.3000 474.0000 1.0000
39.3100 474.0000 1.0000
39.3200 524.0000 1.0000
39.3300 511.0000 1.0000
39.3400 465.0000 1.0000
39.3500 526.0000 1.0000
39.3600 506.0000 1.0000
39.3700 469.0000 1.0000
39.3800 499.0000 1.0000
39.3900 460.0000 1.0000
39.4000 477.0000 1.0000
39.4100 469.0000 1.0000
39.4200 485.0000 1.0000
39.4300 480.0000 1.0000
39.4400 506.0000 1.0000
39.4500 492.0000 1.0000
39.4600 495.0000 1.0000
39.4700 488.0000 1.0000
39.4800 480.0000 1.0000
39.4900 519.0000 1.0000
39.5000 501.0000 1.0000
39.5100 498.0000 1.0000
39.5200 520.0000 1.0000
39.5300 499.0000 1.0000
39.5400 471.0000 1.0000
39.5500 467.0000 1.0000
39.5600 471.0000 1.0000
39.5700 483.0000 1.0000
39.5800 504.0000 1.0000
39.5900 521.0000 1.0000
39.6000 502.0000 1.0000
39.6100 491.0000 1.0000
39.6200 473.0000 1.0000
39.6300 454.0000 1.0000
39.6400 483.0000 1.0000
39.6500 499.0000 1.0000
39.6600 480.0000 1.0000
39.6700 513.0000 1.0000
39.6800 527.0000 1.0000
39.6900 505.0000 1.0000
39.7000 507.0000 1.0000
39.7100 511.0000 1.0000
39.7200 457.0000 1.0000
39.7300 473.0000 1.0000
39.7400 503.0000 1.0000
39.7500 516.0000 1.0000
39.7600 519.0000 1.0000
39.7700 489.0000 1.0000
39.7800 478.0000 1.0000
39.7900 485.0000 1.0000
39.8000 481.0000 1.0000
39.8100 481.0000 1.0000
39.8200 465.0000 1.0000
39.8300 492.0000 1.0000
39.8400 494.0000 1.0000
39.8500 487.0000 1.0000
39.8600 513.0000 1.0000
39.8700 473.0000 1.0000
39.8800 512.0000 1.0000
39.8900 477.0000 1.0000
39.9000 518.0000 1.0000
39.9100 497.0000 1.0000
39.9200 521.0000 1.0000
39.9300 483.0000 1.0000
39.9400 481.0000 1.0000
39.9500 487.0000 1.0000
39.9600 466.0000 1.0000
39.9700 495.0000 1.0000
39.9800 484.0000 1.0000
39.9900 506.0000 1.0000
40.0000 526.0000 1.0000
40.0100 479.0000 1.0000
40.0200 503.0000 1.0000
40.0300 490.0000 1.0000
40.0400 477.0000 1.0000
40.0500 469.0000 1.0000
40.0600 468.0000 1.0000
40.0700 522.0000 1.0000
40.0800 494.0000 1.0000
40.0900 478.0000 1.0000
40.1000 487.0000 1.0000
40.1100 445.0000 1.0000
40.1200 485.0000 1.0000
40.1300 492.0000 1.0000
40.1400 509.0000 1.0000
40.1500 460.0000 1.0000
40.1600 464.0000 1.0000
40.1700 502.0000 1.0000
40.1800 465.0000 1.0000
40.1900 475.0000 1.0000
40.2000 491.0000 1.0000
40.2100 494.0000 1.0000
40.2200 470.0000 1.0000
40.2300 510.0000 1.0000
40.2400 500.0000 1.0000
40.2500 506.0000 1.0000
40.2600 512.0000 1.0000
40.2700 493.0000 1.0000
40.2800 509.0000 1.0000
40.2900 460.0000 1.0000
40.3000 476.0000 1.0000
40.3100 520.0000 1.0000
40.3200 446.0000 1.0000
40.3300 494.0000 1.0000
40.3400 458.0000 1.0000
40.3500 499.0000 1.0000
40.3600 473.0000 1.0000
40.3700 487.0000 1.0000
40.3800 486.0000 1.0000
40.3900 479.0000 1.0000
40.4000 459.0000 1.0000
40.4100 474.0000 1.0000
40.4200 522.0000 1.0000
40.4300 525.0000 1.0000
40.4400 521.0000 1.0000
40.4500 490.0000 1.0000
40.4600 521.0000 1.0000
40.4700 517.0000 1.0000
40.4800 499.0000 1.0000
40.4900 522.0000 1.0000
40.5000 527.0000 1.0000
40.5100 524.0000 1.0000
40.5200 469.0000 1.0000
40.5300 513.0000 1.0000
40.5400 515.0000 1.0000
40.5500 530.0000 1.0000
40.5600 530.0000 1.0000
40.5700 492.0000 1.0000
40.5800 497.0000 1.0000
40.5900 516.0000 1.0000
40.6000 481.0000 1.0000
40.6100 478.0000 1.0000
40.6200 474.0000 1.0000
40.6300 459.0000 1.0000
40.6400 472.0000 1.0000
40.6500 485.0000 1.0000
40.6600 472.0000 1.0000
40.6700 519.0000 1.0000
40.6800 515.0000 1.0000
40.6900 518.0000 1.0000
40.7000 500.0000 1.0000
40.7100 514.0000 1.0000
40.7200 489.0000 1.0000
40.7300 472.0000 1.0000
40.7400 535.0000 1.0000
40.7500 541.0000 1.0000
40.7600 541.0000 1.0000
40.7700 505.0000 1.0000
40.7800 536.0000 1.0000
40.7900 519.0000 1.0000
40.8000 524.0000 1.0000
40.8100 526.0000 1.0000
40.8200 534.0000 1.0000
40.8300 541.0000 1.0000
40.8400 479.0000 1.0000
40.8500 488.0000 1.0000
40.8600 484.0000 1.0000
40.8700 478.0000 1.0000
40.8800 493.0000 1.0000
40.8900 497.0000 1.0000
40.9000 509.0000 1.0000
40.9100 477.0000 1.0000
40.9200 482.0000 1.0000
40.9300 489.0000 1.0000
40.9400 507.0000 1.0000
40.9500 505.0000 1.0000
40.9600 482.0000 1.0000
40.9700 459.0000 1.0000
40.9800 504.0000 1.0000
40.9900 513.0000 1.0000
41.0000 511.0000 1.0000
41.0100 477.0000 1.0000
41.0200 518.0000 1.0000
41.0300 464.0000 1.0000
41.0400 506.0000 1.0000
41.0500 511.0000 1.0000
41.0600 474.0000 1.0000
41.0700 489.0000 1.0000
41.0800 474.0000 1.0000
41.0900 477.0000 1.0000
41.1000 490.0000 1.0000
41.1100 466.0000 1.0000
41.1200 489.0000 1.0000
41.1300 492.0000 1.0000
41.1400 486.0000 1.0000
41.1500 469.0000 1.0000
41.1600 512.0000 1.0000
41.1700 540.0000 1.0000
41.1800 471.0000 1.0000
41.1900 465.0000 1.0000
41.2000 457.0000 1.0000
41.2100 493.0000 1.0000
41.2200 488.0000 1.0000
41.2300 485.0000 1.0000
41.2400 462.0000 1.0000
41.2500 460.0000 1.0000
41.2600 467.0000 1.0000
41.2700 474.0000 1.0000
41.2800 484.0000 1.0000
41.2900 472.0000 1.0000
41.3000 485.0000 1.0000
41.3100 496.0000 1.0000
41.3200 490.0000 1.0000
41.3300 465.0000 1.0000
41.3400 451.0000 1.0000
41.3500 491.0000 1.0000
41.3600 485.0000 1.0000
41.3700 464.0000 1.0000
41.3800 493.0000 1.0000
41.3900 441.0000 1.0000
41.4000 467.0000 1.0000
41.4100 511.0000 1.0000
41.4200 473.0000 1.0000
41.4300 476.0000 1.0000
41.4400 463.0000 1.0000
41.4500 477.0000 1.0000
41.4600 483.0000 1.0000
41.4700 470.0000 1.0000
41.4800 460.0000 1.0000
41.4900 459.0000 1.0000
41.5000 463.0000 1.0000
41.5100 461.0000 1.0000
41.5200 488.0000 1.0000
41.5300 466.0000 1.0000
41.5400 473.0000 1.0000
41.5500 480.0000 1.0000
41.5600 473.0000 1.0000
41.5700 468.0000 1.0000
41.5800 446.0000 1.0000
41.5900 453.0000 1.0000
41.6000 470.0000 1.0000
41.6100 516.0000 1.0000
41.6200 491.0000 1.0000
41.6300 467.0000 1.0000
41.6400 481.0000 1.0000
41.6500 513.0000 1.0000
41.6600 489.0000 1.0000
41.6700 461.0000 1.0000
41.6800 460.0000 1.0000
41.6900 449.0000 1.0000
41.7000 445.0000 1.0000
41.7100 494.0000 1.0000
41.7200 484.0000 1.0000
41.7300 485.0000 1.0000
41.7400 464.0000 1.0000
41.7500 470.0000 1.0000
41.7600 478.0000 1.0000
41.7700 451.0000 1.0000
41.7800 452.0000 1.0000
41.7900 455.0000 1.0000
41.8000 479.0000 1.0000
41.8100 489.0000 1.0000
41.8200 479.0000 1.0000
41.8300 487.0000 1.0000
41.8400 505.0000 1.0000
41.8500 487.0000 1.0000
41.8600 437.0000 1.0000
41.8700 449.0000 1.0000
41.8800 489.0000 1.0000
41.8900 488.0000 1.0000
41.9000 483.0000 1.0000
41.9100 486.0000 1.0000
41.9200 464.0000 1.0000
41.9300 474.0000 1.0000
41.9400 488.0000 1.0000
41.9500 488.0000 1.0000
41.9600 493.0000 1.0000
41.9700 430.0000 1.0000
41.9800 439.0000 1.0000
41.9900 478.0000 1.0000
42.0000 476.0000 1.0000
42.0100 466.0000 1.0000
42.0200 499.0000 1.0000
42.0300 498.0000 1.0000
42.0400 481.0000 1.0000
42.0500 496.0000 1.0000
42.0600 466.0000 1.0000
42.0700 488.0000 1.0000
42.0800 487.0000 1.0000
42.0900 497.0000 1.0000
42.1000 503.0000 1.0000
42.1100 466.0000 1.0000
42.1200 471.0000 1.0000
42.1300 504.0000 1.0000
42.1400 492.0000 1.0000
42.1500 481.0000 1.0000
42.1600 476.0000 1.0000
42.1700 497.0000 1.0000
42.1800 487.0000 1.0000
42.1900 473.0000 1.0000
42.2000 457.0000 1.0000
42.2100 484.0000 1.0000
42.2200 488.0000 1.0000
42.2300 482.0000 1.0000
42.2400 498.0000 1.0000
42.2500 448.0000 1.0000
42.2600 461.0000 1.0000
42.2700 485.0000 1.0000
42.2800 502.0000 1.0000
42.2900 508.0000 1.0000
42.3000 506.0000 1.0000
42.3100 474.0000 1.0000
42.3200 516.0000 1.0000
42.3300 495.0000 1.0000
42.3400 480.0000 1.0000
42.3500 480.0000 1.0000
42.3600 486.0000 1.0000
42.3700 490.0000 1.0000
42.3800 514.0000 1.0000
42.3900 524.0000 1.0000
42.4000 511.0000 1.0000
42.4100 506.0000 1.0000
42.4200 517.0000 1.0000
42.4300 539.0000 1.0000
42.4400 514.0000 1.0000
42.4500 534.0000 1.0000
42.4600 473.0000 1.0000
42.4700 499.0000 1.0000
42.4800 506.0000 1.0000
42.4900 510.0000 1.0000
42.5000 489.0000 1.0000
42.5100 492.0000 1.0000
42.5200 503.0000 1.0000
42.5300 504.0000 1.0000
42.5400 494.0000 1.0000
42.5500 491.0000 1.0000
42.5600 495.0000 1.0000
42.5700 482.0000 1.0000
42.5800 463.0000 1.0000
42.5900 516.0000 1.0000
42.6000 448.0000 1.0000
42.6100 446.0000 1.0000
42.6200 457.0000 1.0000
42.6300 467.0000 1.0000
42.6400 438.0000 1.0000
42.6500 448.0000 1.0000
42.6600 488.0000 1.0000
42.6700 479.0000 1.0000
42.6800 468.0000 1.0000
42.6900 490.0000 1.0000
42.7000 535.0000 1.0000
42.7100 462.0000 1.0000
42.7200 447.0000 1.0000
42.7300 450.0000 1.0000
42.7400 476.0000 1.0000
42.7500 498.0000 1.0000
42.7600 456.0000 1.0000
42.7700 440.0000 1.0000
42.7800 478.0000 1.0000
42.7900 463.0000 1.0000
42.8000 440.0000 1.0000
42.8100 459.0000 1.0000
42.8200 477.0000 1.0000
42.8300 470.0000 1.0000
42.8400 459.0000 1.0000
42.8500 408.0000 1.0000
42.8600 416.0000 1.0000
42.8700 465.0000 1.0000
42.8800 442.0000 1.0000
42.8900 446.0000 1.0000
42.9000 443.0000 1.0000
42.9100 454.0000 1.0000
42.9200 435.0000 1.0000
42.9300 463.0000 1.0000
42.9400 441.0000 1.0000
42.9500 432.0000 1.0000
42.9600 461.0000 1.0000
42.9700 446.0000 1.0000
42.9800 467.0000 1.0000
42.9900 478.0000 1.0000
43.0000 440.0000 1.0000
43.0100 482.0000 1.0000
43.0200 465.0000 1.0000
43.0300 459.0000 1.0000
43.0400 466.0000 1.0000
43.0500 462.0000 1.0000
43.0600 456.0000 1.0000
43.0700 426.0000 1.0000
43.0800 464.0000 1.0000
43.0900 421.0000 1.0000
43.1000 448.0000 1.0000
43.1100 472.0000 1.0000
43.1200 462.0000 1.0000
43.1300 484.0000 1.0000
43.1400 463.0000 1.0000
43.1500 449.0000 1.0000
43.1600 445.0000 1.0000
43.1700 464.0000 1.0000
43.1800 472.0000 1.0000
43.1900 469.0000 1.0000
43.2000 434.0000 1.0000
43.2100 426.0000 1.0000
43.2200 439.0000 1.0000
43.2300 463.0000 1.0000
43.2400 463.0000 1.0000
43.2500 454.0000 1.0000
43.2600 472.0000 1.0000
43.2700 479.0000 1.0000
43.2800 462.0000 1.0000
43.2900 447.0000 1.0000
43.3000 423.0000 1.0000
43.3100 416.0000 1.0000
43.3200 433.0000 1.0000
43.3300 472.0000 1.0000
43.3400 447.0000 1.0000
43.3500 460.0000 1.0000
43.3600 441.0000 1.0000
43.3700 469.0000 1.0000
43.3800 447.0000 1.0000
43.3900 487.0000 1.0000
43.4000 464.0000 1.0000
43.4100 455.0000 1.0000
43.4200 466.0000 1.0000
43.4300 471.0000 1.0000
43.4400 479.0000 1.0000
43.4500 499.0000 1.0000
43.4600 472.0000 1.0000
43.4700 466.0000 1.0000
43.4800 443.0000 1.0000
43.4900 460.0000 1.0000
43.5000 450.0000 1.0000
43.5100 466.0000 1.0000
43.5200 472.0000 1.0000
43.5300 481.0000 1.0000
43.5400 469.0000 1.0000
43.5500 465.0000 1.0000
43.5600 440.0000 1.0000
43.5700 444.0000 1.0000
43.5800 472.0000 1.0000
43.5900 478.0000 1.0000
43.6000 478.0000 1.0000
43.6100 444.0000 1.0000
43.6200 458.0000 1.0000
43.6300 449.0000 1.0000
43.6400 457.0000 1.0000
43.6500 435.0000 1.0000
43.6600 416.0000 1.0000
43.6700 465.0000 1.0000
43.6800 477.0000 1.0000
43.6900 451.0000 1.0000
43.7000 465.0000 1.0000
43.7100 461.0000 1.0000
43.7200 443.0000 1.0000
43.7300 464.0000 1.0000
43.7400 460.0000 1.0000
43.7500 455.0000 1.0000
43.7600 469.0000 1.0000
43.7700 466.0000 1.0000
43.7800 463.0000 1.0000
43.7900 462.0000 1.0000
43.8000 460.0000 1.0000
43.8100 466.0000 1.0000
43.8200 454.0000 1.0000
43.8300 491.0000 1.0000
43.8400 465.0000 1.0000
43.8500 438.0000 1.0000
43.8600 478.0000 1.0000
43.8700 450.0000 1.0000
43.8800 486.0000 1.0000
43.8900 433.0000 1.0000
43.9000 446.0000 1.0000
43.9100 448.0000 1.0000
43.9200 450.0000 1.0000
43.9300 475.0000 1.0000
43.9400 434.0000 1.0000
43.9500 421.0000 1.0000
43.9600 458.0000 1.0000
43.9700 425.0000 1.0000
43.9800 459.0000 1.0000
43.9900 439.0000 1.0000
44.0000 464.0000 1.0000
44.0100 441.0000 1.0000
44.0200 455.0000 1.0000
44.0300 446.0000 1.0000
44.0400 435.0000 1.0000
44.0500 424.0000 1.0000
44.0600 442.0000 1.0000
44.0700 430.0000 1.0000
44.0800 475.0000 1.0000
44.0900 433.0000 1.0000
44.1000 456.0000 1.0000
44.1100 471.0000 1.0000
44.1200 464.0000 1.0000
44.1300 431.0000 1.0000
44.1400 465.0000 1.0000
44.1500 471.0000 1.0000
44.1600 439.0000 1.0000
44.1700 428.0000 1.0000
44.1800 435.0000 1.0000
44.1900 432.0000 1.0000
44.2000 434.0000 1.0000
44.2100 408.0000 1.0000
44.2200 427.0000 1.0000
44.2300 434.0000 1.0000
44.2400 411.0000 1.0000
44.2500 452.0000 1.0000
44.2600 436.0000 1.0000
44.2700 503.0000 1.0000
44.2800 462.0000 1.0000
44.2900 482.0000 1.0000
44.3000 477.0000 1.0000
44.3100 417.0000 1.0000
44.3200 452.0000 1.0000
44.3300 481.0000 1.0000
44.3400 452.0000 1.0000
44.3500 444.0000 1.0000
44.3600 458.0000 1.0000
44.3700 473.0000 1.0000
44.3800 459.0000 1.0000
44.3900 438.0000 1.0000
44.4000 426.0000 1.0000
44.4100 450.0000 1.0000
44.4200 426.0000 1.0000
44.4300 445.0000 1.0000
44.4400 428.0000 1.0000
44.4500 443.0000 1.0000
44.4600 470.0000 1.0000
44.4700 424.0000 1.0000
44.4800 435.0000 1.0000
44.4900 432.0000 1.0000
44.5000 442.0000 1.0000
44.5100 430.0000 1.0000
44.5200 450.0000 1.0000
44.5300 442.0000 1.0000
44.5400 428.0000 1.0000
44.5500 455.0000 1.0000
44.5600 413.0000 1.0000
44.5700 406.0000 1.0000
44.5800 428.0000 1.0000
44.5900 424.0000 1.0000
44.6000 418.0000 1.0000
44.6100 445.0000 1.0000
44.6200 458.0000 1.0000
44.6300 427.0000 1.0000
44.6400 449.0000 1.0000
44.6500 440.0000 1.0000
44.6600 439.0000 1.0000
44.6700 468.0000 1.0000
44.6800 421.0000 1.0000
44.6900 408.0000 1.0000
44.7000 462.0000 1.0000
44.7100 452.0000 1.0000
44.7200 458.0000 1.0000
44.7300 468.0000 1.0000
44.7400 409.0000 1.0000
44.7500 447.0000 1.0000
44.7600 430.0000 1.0000
44.7700 433.0000 1.0000
44.7800 412.0000 1.0000
44.7900 432.0000 1.0000
44.8000 445.0000 1.0000
44.8100 406.0000 1.0000
44.8200 438.0000 1.0000
44.8300 412.0000 1.0000
44.8400 420.0000 1.0000
44.8500 419.0000 1.0000
44.8600 438.0000 1.0000
44.8700 414.0000 1.0000
44.8800 427.0000 1.0000
44.8900 428.0000 1.0000
44.9000 429.0000 1.0000
44.9100 429.0000 1.0000
44.9200 486.0000 1.0000
44.9300 438.0000 1.0000
44.9400 456.0000 1.0000
44.9500 445.0000 1.0000
44.9600 410.0000 1.0000
44.9700 443.0000 1.0000
44.9800 450.0000 1.0000
44.9900 448.0000 1.0000
45.0000 415.0000 1.0000
45.0100 441.0000 1.0000
45.0200 441.0000 1.0000
45.0300 450.0000 1.0000
45.0400 409.0000 1.0000
45.0500 426.0000 1.0000
45.0600 413.0000 1.0000
45.0700 440.0000 1.0000
45.0800 446.0000 1.0000
45.0900 455.0000 1.0000
45.1000 432.0000 1.0000
45.1100 438.0000 1.0000
45.1200 419.0000 1.0000
45.1300 435.0000 1.0000
45.1400 428.0000 1.0000
45.1500 449.0000 1.0000
45.1600 442.0000 1.0000
45.1700 434.0000 1.0000
45.1800 412.0000 1.0000
45.1900 410.0000 1.0000
45.2000 442.0000 1.0000
45.2100 424.0000 1.0000
45.2200 423.0000 1.0000
45.2300 398.0000 1.0000
45.2400 438.0000 1.0000
45.2500 448.0000 1.0000
45.2600 435.0000 1.0000
45.2700 449.0000 1.0000
45.2800 441.0000 1.0000
45.2900 399.0000 1.0000
45.3000 445.0000 1.0000
45.3100 458.0000 1.0000
45.3200 441.0000 1.0000
45.3300 396.0000 1.0000
45.3400 428.0000 1.0000
45.3500 439.0000 1.0000
45.3600 427.0000 1.0000
45.3700 407.0000 1.0000
45.3800 431.0000 1.0000
45.3900 433.0000 1.0000
45.4000 431.0000 1.0000
45.4100 429.0000 1.0000
45.4200 427.0000 1.0000
45.4300 450.0000 1.0000
45.4400 450.0000 1.0000
45.4500 443.0000 1.0000
45.4600 440.0000 1.0000
45.4700 418.0000 1.0000
45.4800 432.0000 1.0000
45.4900 453.0000 1.0000
45.5000 421.0000 1.0000
45.5100 460.0000 1.0000
45.5200 382.0000 1.0000
45.5300 449.0000 1.0000
45.5400 449.0000 1.0000
45.5500 433.0000 1.0000
45.5600 407.0000 1.0000
45.5700 413.0000 1.0000
45.5800 446.0000 1.0000
45.5900 402.0000 1.0000
45.6000 421.0000 1.0000
45.6100 442.0000 1.0000
45.6200 434.0000 1.0000
45.6300 436.0000 1.0000
45.6400 443.0000 1.0000
45.6500 464.0000 1.0000
45.6600 468.0000 1.0000
45.6700 422.0000 1.0000
45.6800 425.0000 1.0000
45.6900 405.0000 1.0000
45.7000 428.0000 1.0000
45.7100 420.0000 1.0000
45.7200 394.0000 1.0000
45.7300 424.0000 1.0000
45.7400 421.0000 1.0000
45.7500 432.0000 1.0000
45.7600 412.0000 1.0000
45.7700 428.0000 1.0000
45.7800 425.0000 1.0000
45.7900 420.0000 1.0000
45.8000 454.0000 1.0000
45.8100 458.0000 1.0000
45.8200 452.0000 1.0000
45.8300 415.0000 1.0000
45.8400 409.0000 1.0000
45.8500 438.0000 1.0000
45.8600 421.0000 1.0000
45.8700 402.0000 1.0000
45.8800 412.0000 1.0000
45.8900 437.0000 1.0000
45.9000 431.0000 1.0000
45.9100 434.0000 1.0000
45.9200 428.0000 1.0000
45.9300 425.0000 1.0000
45.9400 466.0000 1.0000
45.9500 454.0000 1.0000
45.9600 428.0000 1.0000
45.9700 418.0000 1.0000
45.9800 419.0000 1.0000
45.9900 436.0000 1.0000
46.0000 433.0000 1.0000
46.0100 423.0000 1.0000
46.0200 450.0000 1.0000
46.0300 438.0000 1.0000
46.0400 433.0000 1.0000
46.0500 405.0000 1.0000
46.0600 452.0000 1.0000
46.0700 426.0000 1.0000
46.0800 438.0000 1.0000
46.0900 453.0000 1.0000
46.1000 428.0000 1.0000
46.1100 417.0000 1.0000
46.1200 438.0000 1.0000
46.1300 402.0000 1.0000
46.1400 407.0000 1.0000
46.1500 444.0000 1.0000
46.1600 457.0000 1.0000
46.1700 452.0000 1.0000
46.1800 468.0000 1.0000
46.1900 424.0000 1.0000
46.2000 442.0000 1.0000
46.2100 438.0000 1.0000
46.2200 443.0000 1.0000
46.2300 402.0000 1.0000
46.2400 450.0000 1.0000
46.2500 443.0000 1.0000
46.2600 452.0000 1.0000
46.2700 413.0000 1.0000
46.2800 415.0000 1.0000
46.2900 387.0000 1.0000
46.3000 437.0000 1.0000
46.3100 410.0000 1.0000
46.3200 416.0000 1.0000
46.3300 404.0000 1.0000
46.3400 398.0000 1.0000
46.3500 430.0000 1.0000
46.3600 422.0000 1.0000
46.3700 408.0000 1.0000
46.3800 426.0000 1.0000
46.3900 447.0000 1.0000
46.4000 458.0000 1.0000
46.4100 431.0000 1.0000
46.4200 491.0000 1.0000
46.4300 402.0000 1.0000
46.4400 443.0000 1.0000
46.4500 422.0000 1.0000
46.4600 430.0000 1.0000
46.4700 433.0000 1.0000
46.4800 416.0000 1.0000
46.4900 404.0000 1.0000
46.5000 431.0000 1.0000
46.5100 397.0000 1.0000
46.5200 430.0000 1.0000
46.5300 437.0000 1.0000
46.5400 414.0000 1.0000
46.5500 436.0000 1.0000
46.5600 424.0000 1.0000
46.5700 396.0000 1.0000
46.5800 420.0000 1.0000
46.5900 418.0000 1.0000
46.6000 404.0000 1.0000
46.6100 438.0000 1.0000
46.6200 402.0000 1.0000
46.6300 417.0000 1.0000
46.6400 426.0000 1.0000
46.6500 441.0000 1.0000
46.6600 414.0000 1.0000
46.6700 414.0000 1.0000
46.6800 438.0000 1.0000
46.6900 433.0000 1.0000
46.7000 407.0000 1.0000
46.7100 406.0000 1.0000
46.7200 423.0000 1.0000
46.7300 445.0000 1.0000
46.7400 395.0000 1.0000
46.7500 403.0000 1.0000
46.7600 400.0000 1.0000
46.7700 449.0000 1.0000
46.7800 413.0000 1.0000
46.7900 370.0000 1.0000
46.8000 390.0000 1.0000
46.8100 428.0000 1.0000
46.8200 409.0000 1.0000
46.8300 403.0000 1.0000
46.8400 417.0000 1.0000
46.8500 437.0000 1.0000
46.8600 410.0000 1.0000
46.8700 426.0000 1.0000
46.8800 433.0000 1.0000
46.8900 402.0000 1.0000
46.9000 431.0000 1.0000
46.9100 447.0000 1.0000
46.9200 403.0000 1.0000
46.9300 416.0000 1.0000
46.9400 405.0000 1.0000
46.9500 393.0000 1.0000
46.9600 437.0000 1.0000
46.9700 425.0000 1.0000
46.9800 405.0000 1.0000
46.9900 406.0000 1.0000
47.0000 405.0000 1.0000
47.0100 428.0000 1.0000
47.0200 453.0000 1.0000
47.0300 415.0000 1.0000
47.0400 435.0000 1.0000
47.0500 395.0000 1.0000
47.0600 380.0000 1.0000
47.0700 438.0000 1.0000
47.0800 423.0000 1.0000
47.0900 406.0000 1.0000
47.1000 422.0000 1.0000
47.1100 427.0000 1.0000
47.1200 448.0000 1.0000
47.1300 449.0000 1.0000
47.1400 405.0000 1.0000
47.1500 438.0000 1.0000
47.1600 406.0000 1.0000
47.1700 411.0000 1.0000
47.1800 405.0000 1.0000
47.1900 399.0000 1.0000
47.2000 421.0000 1.0000
47.2100 367.0000 1.0000
47.2200 424.0000 1.0000
47.2300 416.0000 1.0000
47.2400 414.0000 1.0000
47.2500 415.0000 1.0000
47.2600 398.0000 1.0000
47.2700 404.0000 1.0000
47.2800 411.0000 1.0000
47.2900 426.0000 1.0000
47.3000 423.0000 1.0000
47.3100 408.0000 1.0000
47.3200 408.0000 1.0000
47.3300 399.0000 1.0000
47.3400 427.0000 1.0000
47.3500 391.0000 1.0000
47.3600 388.0000 1.0000
47.3700 383.0000 1.0000
47.3800 426.0000 1.0000
47.3900 407.0000 1.0000
47.4000 399.0000 1.0000
47.4100 407.0000 1.0000
47.4200 427.0000 1.0000
47.4300 390.0000 1.0000
47.4400 423.0000 1.0000
47.4500 419.0000 1.0000
47.4600 415.0000 1.0000
47.4700 412.0000 1.0000
47.4800 431.0000 1.0000
47.4900 394.0000 1.0000
47.5000 410.0000 1.0000
47.5100 370.0000 1.0000
47.5200 427.0000 1.0000
47.5300 440.0000 1.0000
47.5400 399.0000 1.0000
47.5500 415.0000 1.0000
47.5600 395.0000 1.0000
47.5700 362.0000 1.0000
47.5800 435.0000 1.0000
47.5900 449.0000 1.0000
47.6000 412.0000 1.0000
47.6100 426.0000 1.0000
47.6200 389.0000 1.0000
47.6300 389.0000 1.0000
47.6400 415.0000 1.0000
47.6500 378.0000 1.0000
47.6600 372.0000 1.0000
47.6700 397.0000 1.0000
47.6800 445.0000 1.0000
47.6900 417.0000 1.0000
47.7000 406.0000 1.0000
47.7100 414.0000 1.0000
47.7200 408.0000 1.0000
47.7300 411.0000 1.0000
47.7400 447.0000 1.0000
47.7500 427.0000 1.0000
47.7600 429.0000 1.0000
47.7700 436.0000 1.0000
47.7800 416.0000 1.0000
47.7900 431.0000 1.0000
47.8000 364.0000 1.0000
47.8100 400.0000 1.0000
47.8200 399.0000 1.0000
47.8300 416.0000 1.0000
47.8400 429.0000 1.0000
47.8500 399.0000 1.0000
47.8600 395.0000 1.0000
47.8700 410.0000 1.0000
47.8800 423.0000 1.0000
47.8900 403.0000 1.0000
47.9000 376.0000 1.0000
47.9100 409.0000 1.0000
47.9200 401.0000 1.0000
47.9300 434.0000 1.0000
47.9400 408.0000 1.0000
47.9500 427.0000 1.0000
47.9600 420.0000 1.0000
47.9700 411.0000 1.0000
47.9800 414.0000 1.0000
47.9900 433.0000 1.0000
48.0000 416.0000 1.0000
48.0100 369.0000 1.0000
48.0200 373.0000 1.0000
48.0300 421.0000 1.0000
48.0400 424.0000 1.0000
48.0500 392.0000 1.0000
48.0600 362.0000 1.0000
48.0700 381.0000 1.0000
48.0800 390.0000 1.0000
48.0900 411.0000 1.0000
48.1000 414.0000 1.0000
48.1100 397.0000 1.0000
48.1200 378.0000 1.0000
48.1300 387.0000 1.0000
48.1400 386.0000 1.0000
48.1500 400.0000 1.0000
48.1600 393.0000 1.0000
48.1700 411.0000 1.0000
48.1800 395.0000 1.0000
48.1900 402.0000 1.0000
48.2000 424.0000 1.0000
48.2100 411.0000 1.0000
48.2200 387.0000 1.0000
48.2300 383.0000 1.0000
48.2400 385.0000 1.0000
48.2500 382.0000 1.0000
48.2600 393.0000 1.0000
48.2700 418.0000 1.0000
48.2800 424.0000 1.0000
48.2900 389.0000 1.0000
48.3000 384.0000 1.0000
48.3100 418.0000 1.0000
48.3200 401.0000 1.0000
48.3300 384.0000 1.0000
48.3400 402.0000 1.0000
48.3500 376.0000 1.0000
48.3600 396.0000 1.0000
48.3700 377.0000 1.0000
48.3800 428.0000 1.0000
48.3900 446.0000 1.0000
48.4000 436.0000 1.0000
48.4100 408.0000 1.0000
48.4200 402.0000 1.0000
48.4300 417.0000 1.0000
48.4400 386.0000 1.0000
48.4500 391.0000 1.0000
48.4600 419.0000 1.0000
48.4700 433.0000 1.0000
48.4800 415.0000 1.0000
48.4900 418.0000 1.0000
48.5000 398.0000 1.0000
48.5100 379.0000 1.0000
48.5200 412.0000 1.0000
48.5300 399.0000 1.0000
48.5400 368.0000 1.0000
48.5500 392.0000 1.0000
48.5600 388.0000 1.0000
48.5700 412.0000 1.0000
48.5800 369.0000 1.0000
48.5900 406.0000 1.0000
48.6000 374.0000 1.0000
48.6100 424.0000 1.0000
48.6200 414.0000 1.0000
48.6300 374.0000 1.0000
48.6400 392.0000 1.0000
48.6500 398.0000 1.0000
48.6600 411.0000 1.0000
48.6700 389.0000 1.0000
48.6800 389.0000 1.0000
48.6900 368.0000 1.0000
48.7000 415.0000 1.0000
48.7100 432.0000 1.0000
48.7200 401.0000 1.0000
48.7300 437.0000 1.0000
48.7400 367.0000 1.0000
48.7500 399.0000 1.0000
48.7600 402.0000 1.0000
48.7700 407.0000 1.0000
48.7800 409.0000 1.0000
48.7900 412.0000 1.0000
48.8000 374.0000 1.0000
48.8100 422.0000 1.0000
48.8200 370.0000 1.0000
48.8300 369.0000 1.0000
48.8400 400.0000 1.0000
48.8500 376.0000 1.0000
48.8600 384.0000 1.0000
48.8700 376.0000 1.0000
48.8800 380.0000 1.0000
48.8900 402.0000 1.0000
48.9000 399.0000 1.0000
48.9100 424.0000 1.0000
48.9200 367.0000 1.0000
48.9300 430.0000 1.0000
48.9400 403.0000 1.0000
48.9500 415.0000 1.0000
48.9600 382.0000 1.0000
48.9700 382.0000 1.0000
48.9800 369.0000 1.0000
48.9900 380.0000 1.0000
49.0000 422.0000 1.0000
49.0100 382.0000 1.0000
49.0200 392.0000 1.0000
49.0300 412.0000 1.0000
49.0400 383.0000 1.0000
49.0500 369.0000 1.0000
49.0600 386.0000 1.0000
49.0700 425.0000 1.0000
49.0800 431.0000 1.0000
49.0900 394.0000 1.0000
49.1000 417.0000 1.0000
49.1100 387.0000 1.0000
49.1200 386.0000 1.0000
49.1300 395.0000 1.0000
49.1400 408.0000 1.0000
49.1500 402.0000 1.0000
49.1600 426.0000 1.0000
49.1700 427.0000 1.0000
49.1800 439.0000 1.0000
49.1900 413.0000 1.0000
49.2000 411.0000 1.0000
49.2100 416.0000 1.0000
49.2200 431.0000 1.0000
49.2300 404.0000 1.0000
49.2400 410.0000 1.0000
49.2500 396.0000 1.0000
49.2600 390.0000 1.0000
49.2700 457.0000 1.0000
49.2800 431.0000 1.0000
49.2900 433.0000 1.0000
49.3000 426.0000 1.0000
49.3100 406.0000 1.0000
49.3200 421.0000 1.0000
49.3300 412.0000 1.0000
49.3400 435.0000 1.0000
49.3500 423.0000 1.0000
49.3600 449.0000 1.0000
49.3700 436.0000 1.0000
49.3800 430.0000 1.0000
49.3900 435.0000 1.0000
49.4000 448.0000 1.0000
49.4100 456.0000 1.0000
49.4200 444.0000 1.0000
49.4300 465.0000 1.0000
49.4400 412.0000 1.0000
49.4500 403.0000 1.0000
49.4600 389.0000 1.0000
49.4700 414.0000 1.0000
49.4800 410.0000 1.0000
49.4900 443.0000 1.0000
49.5000 435.0000 1.0000
49.5100 439.0000 1.0000
49.5200 458.0000 1.0000
49.5300 423.0000 1.0000
49.5400 413.0000 1.0000
49.5500 407.0000 1.0000
49.5600 387.0000 1.0000
49.5700 390.0000 1.0000
49.5800 428.0000 1.0000
49.5900 416.0000 1.0000
49.6000 416.0000 1.0000
49.6100 399.0000 1.0000
49.6200 412.0000 1.0000
49.6300 390.0000 1.0000
49.6400 420.0000 1.0000
49.6500 412.0000 1.0000
49.6600 407.0000 1.0000
49.6700 419.0000 1.0000
49.6800 413.0000 1.0000
49.6900 372.0000 1.0000
49.7000 437.0000 1.0000
49.7100 447.0000 1.0000
49.7200 398.0000 1.0000
49.7300 411.0000 1.0000
49.7400 398.0000 1.0000
49.7500 407.0000 1.0000
49.7600 434.0000 1.0000
49.7700 399.0000 1.0000
49.7800 409.0000 1.0000
49.7900 409.0000 1.0000
49.8000 400.0000 1.0000
49.8100 391.0000 1.0000
49.8200 391.0000 1.0000
49.8300 381.0000 1.0000
49.8400 400.0000 1.0000
49.8500 418.0000 1.0000
49.8600 404.0000 1.0000
49.8700 425.0000 1.0000
49.8800 406.0000 1.0000
49.8900 415.0000 1.0000
49.9000 441.0000 1.0000
49.9100 397.0000 1.0000
49.9200 398.0000 1.0000
49.9300 408.0000 1.0000
49.9400 419.0000 1.0000
49.9500 388.0000 1.0000
49.9600 414.0000 1.0000
49.9700 413.0000 1.0000
49.9800 401.0000 1.0000
49.9900 395.0000 1.0000
50.0000 401.0000 1.0000
50.0100 380.0000 1.0000
50.0200 405.0000 1.0000
50.0300 422.0000 1.0000
50.0400 411.0000 1.0000
50.0500 411.0000 1.0000
50.0600 409.0000 1.0000
50.0700 404.0000 1.0000
50.0800 411.0000 1.0000
50.0900 436.0000 1.0000
50.1000 381.0000 1.0000
50.1100 394.0000 1.0000
50.1200 361.0000 1.0000
50.1300 419.0000 1.0000
50.1400 421.0000 1.0000
50.1500 386.0000 1.0000
50.1600 382.0000 1.0000
50.1700 401.0000 1.0000
50.1800 409.0000 1.0000
50.1900 377.0000 1.0000
50.2000 404.0000 1.0000
50.2100 420.0000 1.0000
50.2200 379.0000 1.0000
50.2300 439.0000 1.0000
50.2400 429.0000 1.0000
50.2500 377.0000 1.0000
50.2600 403.0000 1.0000
50.2700 382.0000 1.0000
50.2800 429.0000 1.0000
50.2900 386.0000 1.0000
50.3000 376.0000 1.0000
50.3100 413.0000 1.0000
50.3200 430.0000 1.0000
50.3300 397.0000 1.0000
50.3400 411.0000 1.0000
50.3500 384.0000 1.0000
50.3600 414.0000 1.0000
50.3700 415.0000 1.0000
50.3800 403.0000 1.0000
50.3900 401.0000 1.0000
50.4000 408.0000 1.0000
50.4100 404.0000 1.0000
50.4200 413.0000 1.0000
50.4300 401.0000 1.0000
50.4400 403.0000 1.0000
50.4500 407.0000 1.0000
50.4600 428.0000 1.0000
50.4700 408.0000 1.0000
50.4800 403.0000 1.0000
50.4900 412.0000 1.0000
50.5000 407.0000 1.0000
50.5100 416.0000 1.0000
50.5200 416.0000 1.0000
50.5300 387.0000 1.0000
50.5400 393.0000 1.0000
50.5500 462.0000 1.0000
50.5600 436.0000 1.0000
50.5700 405.0000 1.0000
50.5800 393.0000 1.0000
50.5900 370.0000 1.0000
50.6000 393.0000 1.0000
50.6100 385.0000 1.0000
50.6200 420.0000 1.0000
50.6300 432.0000 1.0000
50.6400 419.0000 1.0000
50.6500 404.0000 1.0000
50.6600 414.0000 1.0000
50.6700 418.0000 1.0000
50.6800 434.0000 1.0000
50.6900 440.0000 1.0000
50.7000 426.0000 1.0000
50.7100 411.0000 1.0000
50.7200 427.0000 1.0000
50.7300 392.0000 1.0000
50.7400 390.0000 1.0000
50.7500 421.0000 1.0000
50.7600 422.0000 1.0000
50.7700 443.0000 1.0000
50.7800 413.0000 1.0000
50.7900 417.0000 1.0000
50.8000 448.0000 1.0000
50.8100 407.0000 1.0000
50.8200 415.0000 1.0000
50.8300 442.0000 1.0000
50.8400 386.0000 1.0000
50.8500 418.0000 1.0000
50.8600 423.0000 1.0000
50.8700 424.0000 1.0000
50.8800 430.0000 1.0000
50.8900 368.0000 1.0000
50.9000 385.0000 1.0000
50.9100 442.0000 1.0000
50.9200 429.0000 1.0000
50.9300 426.0000 1.0000
50.9400 445.0000 1.0000
50.9500 455.0000 1.0000
50.9600 459.0000 1.0000
50.9700 452.0000 1.0000
50.9800 417.0000 1.0000
50.9900 447.0000 1.0000
51.0000 427.0000 1.0000
51.0100 435.0000 1.0000
51.0200 447.0000 1.0000
51.0300 440.0000 1.0000
51.0400 496.0000 1.0000
51.0500 462.0000 1.0000
51.0600 499.0000 1.0000
51.0700 510.0000 1.0000
51.0800 479.0000 1.0000
51.0900 525.0000 1.0000
51.1000 541.0000 1.0000
51.1100 550.0000 1.0000
51.1200 575.0000 1.0000
51.1300 539.0000 1.0000
51.1400 532.0000 1.0000
51.1500 589.0000 1.0000
51.1600 575.0000 1.0000
51.1700 577.0000 1.0000
51.1800 624.0000 1.0000
51.1900 622.0000 1.0000
51.2000 677.0000 1.0000
51.2100 701.0000 1.0000
51.2200 750.0000 1.0000
51.2300 751.0000 1.0000
51.2400 785.0000 1.0000
51.2500 792.0000 1.0000
51.2600 821.0000 1.0000
51.2700 859.0000 1.0000
51.2800 925.0000 1.0000
51.2900 1013.0000 1.0000
51.3000 1071.0000 1.0000
51.3100 1183.0000 1.0000
51.3200 1252.0000 1.0000
51.3300 1341.0000 1.0000
51.3400 1430.0000 1.0000
51.3500 1586.0000 1.0000
51.3600 1687.0000 1.0000
51.3700 1841.0000 1.0000
51.3800 1995.0000 1.0000
51.3900 2089.0000 1.0000
51.4000 2435.0000 1.0000
51.4100 2422.0000 1.0000
51.4200 2484.0000 1.0000
51.4300 2693.0000 1.0000
51.4400 2776.0000 1.0000
51.4500 2793.0000 1.0000
51.4600 2856.0000 1.0000
51.4700 2711.0000 1.0000
51.4800 2747.0000 1.0000
51.4900 2681.0000 1.0000
51.5000 2643.0000 1.0000
51.5100 2512.0000 1.0000
51.5200 2405.0000 1.0000
51.5300 2325.0000 1.0000
51.5400 2235.0000 1.0000
51.5500 2232.0000 1.0000
51.5600 2122.0000 1.0000
51.5700 2054.0000 1.0000
51.5800 2022.0000 1.0000
51.5900 1962.0000 1.0000
51.6000 1883.0000 1.0000
51.6100 1796.0000 1.0000
51.6200 1689.0000 1.0000
51.6300 1626.0000 1.0000
51.6400 1535.0000 1.0000
51.6500 1400.0000 1.0000
51.6600 1279.0000 1.0000
51.6700 1186.0000 1.0000
51.6800 1167.0000 1.0000
51.6900 1050.0000 1.0000
51.7000 1055.0000 1.0000
51.7100 964.0000 1.0000
51.7200 911.0000 1.0000
51.7300 808.0000 1.0000
51.7400 767.0000 1.0000
51.7500 766.0000 1.0000
51.7600 706.0000 1.0000
51.7700 712.0000 1.0000
51.7800 663.0000 1.0000
51.7900 670.0000 1.0000
51.8000 651.0000 1.0000
51.8100 585.0000 1.0000
51.8200 567.0000 1.0000
51.8300 588.0000 1.0000
51.8400 541.0000 1.0000
51.8500 573.0000 1.0000
51.8600 543.0000 1.0000
51.8700 549.0000 1.0000
51.8800 558.0000 1.0000
51.8900 499.0000 1.0000
51.9000 498.0000 1.0000
51.9100 493.0000 1.0000
51.9200 488.0000 1.0000
51.9300 521.0000 1.0000
51.9400 507.0000 1.0000
51.9500 454.0000 1.0000
51.9600 486.0000 1.0000
51.9700 461.0000 1.0000
51.9800 491.0000 1.0000
51.9900 474.0000 1.0000
52.0000 461.0000 1.0000
52.0100 424.0000 1.0000
52.0200 429.0000 1.0000
52.0300 401.0000 1.0000
52.0400 451.0000 1.0000
52.0500 445.0000 1.0000
52.0600 471.0000 1.0000
52.0700 424.0000 1.0000
52.0800 454.0000 1.0000
52.0900 415.0000 1.0000
52.1000 420.0000 1.0000
52.1100 411.0000 1.0000
52.1200 429.0000 1.0000
52.1300 451.0000 1.0000
52.1400 427.0000 1.0000
52.1500 428.0000 1.0000
52.1600 469.0000 1.0000
52.1700 434.0000 1.0000
52.1800 394.0000 1.0000
52.1900 404.0000 1.0000
52.2000 454.0000 1.0000
52.2100 415.0000 1.0000
52.2200 420.0000 1.0000
52.2300 422.0000 1.0000
52.2400 443.0000 1.0000
52.2500 429.0000 1.0000
52.2600 424.0000 1.0000
52.2700 406.0000 1.0000
52.2800 414.0000 1.0000
52.2900 448.0000 1.0000
52.3000 389.0000 1.0000
52.3100 395.0000 1.0000
52.3200 424.0000 1.0000
52.3300 435.0000 1.0000
52.3400 428.0000 1.0000
52.3500 428.0000 1.0000
52.3600 396.0000 1.0000
52.3700 377.0000 1.0000
52.3800 371.0000 1.0000
52.3900 397.0000 1.0000
52.4000 417.0000 1.0000
52.4100 377.0000 1.0000
52.4200 392.0000 1.0000
52.4300 386.0000 1.0000
52.4400 411.0000 1.0000
52.4500 412.0000 1.0000
52.4600 395.0000 1.0000
52.4700 415.0000 1.0000
52.4800 388.0000 1.0000
52.4900 379.0000 1.0000
52.5000 400.0000 1.0000
52.5100 400.0000 1.0000
52.5200 403.0000 1.0000
52.5300 402.0000 1.0000
52.5400 390.0000 1.0000
52.5500 398.0000 1.0000
52.5600 369.0000 1.0000
52.5700 397.0000 1.0000
52.5800 388.0000 1.0000
52.5900 413.0000 1.0000
52.6000 418.0000 1.0000
52.6100 386.0000 1.0000
52.6200 397.0000 1.0000
52.6300 381.0000 1.0000
52.6400 377.0000 1.0000
52.6500 402.0000 1.0000
52.6600 398.0000 1.0000
52.6700 387.0000 1.0000
52.6800 370.0000 1.0000
52.6900 378.0000 1.0000
52.7000 402.0000 1.0000
52.7100 377.0000 1.0000
52.7200 398.0000 1.0000
52.7300 405.0000 1.0000
52.7400 429.0000 1.0000
52.7500 391.0000 1.0000
52.7600 404.0000 1.0000
52.7700 390.0000 1.0000
52.7800 386.0000 1.0000
52.7900 386.0000 1.0000
52.8000 418.0000 1.0000
52.8100 415.0000 1.0000
52.8200 401.0000 1.0000
52.8300 407.0000 1.0000
52.8400 381.0000 1.0000
52.8500 396.0000 1.0000
52.8600 385.0000 1.0000
52.8700 399.0000 1.0000
52.8800 388.0000 1.0000
52.8900 373.0000 1.0000
52.9000 378.0000 1.0000
52.9100 372.0000 1.0000
52.9200 424.0000 1.0000
52.9300 379.0000 1.0000
52.9400 392.0000 1.0000
52.9500 370.0000 1.0000
52.9600 425.0000 1.0000
52.9700 402.0000 1.0000
52.9800 391.0000 1.0000
52.9900 439.0000 1.0000
53.0000 412.0000 1.0000
53.0100 390.0000 1.0000
53.0200 365.0000 1.0000
53.0300 389.0000 1.0000
53.0400 378.0000 1.0000
53.0500 357.0000 1.0000
53.0600 410.0000 1.0000
53.0700 414.0000 1.0000
53.0800 376.0000 1.0000
53.0900 352.0000 1.0000
53.1000 359.0000 1.0000
53.1100 381.0000 1.0000
53.1200 376.0000 1.0000
53.1300 391.0000 1.0000
53.1400 404.0000 1.0000
53.1500 402.0000 1.0000
53.1600 405.0000 1.0000
53.1700 386.0000 1.0000
53.1800 377.0000 1.0000
53.1900 388.0000 1.0000
53.2000 382.0000 1.0000
53.2100 387.0000 1.0000
53.2200 406.0000 1.0000
53.2300 371.0000 1.0000
53.2400 405.0000 1.0000
53.2500 399.0000 1.0000
53.2600 384.0000 1.0000
53.2700 408.0000 1.0000
53.2800 402.0000 1.0000
53.2900 385.0000 1.0000
53.3000 403.0000 1.0000
53.3100 370.0000 1.0000
53.3200 419.0000 1.0000
53.3300 415.0000 1.0000
53.3400 374.0000 1.0000
53.3500 398.0000 1.0000
53.3600 374.0000 1.0000
53.3700 400.0000 1.0000
53.3800 420.0000 1.0000
53.3900 379.0000 1.0000
53.4000 351.0000 1.0000
53.4100 379.0000 1.0000
53.4200 411.0000 1.0000
53.4300 410.0000 1.0000
53.4400 390.0000 1.0000
53.4500 407.0000 1.0000
53.4600 377.0000 1.0000
53.4700 370.0000 1.0000
53.4800 406.0000 1.0000
53.4900 383.0000 1.0000
53.5000 365.0000 1.0000
53.5100 388.0000 1.0000
53.5200 382.0000 1.0000
53.5300 366.0000 1.0000
53.5400 351.0000 1.0000
53.5500 384.0000 1.0000
53.5600 371.0000 1.0000
53.5700 361.0000 1.0000
53.5800 371.0000 1.0000
53.5900 391.0000 1.0000
53.6000 370.0000 1.0000
53.6100 393.0000 1.0000
53.6200 388.0000 1.0000
53.6300 417.0000 1.0000
53.6400 400.0000 1.0000
53.6500 389.0000 1.0000
53.6600 367.0000 1.0000
53.6700 397.0000 1.0000
53.6800 386.0000 1.0000
53.6900 348.0000 1.0000
53.7000 376.0000 1.0000
53.7100 387.0000 1.0000
53.7200 382.0000 1.0000
53.7300 400.0000 1.0000
53.7400 398.0000 1.0000
53.7500 399.0000 1.0000
53.7600 407.0000 1.0000
53.7700 403.0000 1.0000
53.7800 407.0000 1.0000
53.7900 376.0000 1.0000
53.8000 419.0000 1.0000
53.8100 405.0000 1.0000
53.8200 432.0000 1.0000
53.8300 391.0000 1.0000
53.8400 423.0000 1.0000
53.8500 417.0000 1.0000
53.8600 398.0000 1.0000
53.8700 440.0000 1.0000
53.8800 372.0000 1.0000
53.8900 412.0000 1.0000
53.9000 412.0000 1.0000
53.9100 400.0000 1.0000
53.9200 435.0000 1.0000
53.9300 425.0000 1.0000
53.9400 425.0000 1.0000
53.9500 426.0000 1.0000
53.9600 431.0000 1.0000
53.9700 427.0000 1.0000
53.9800 453.0000 1.0000
53.9900 445.0000 1.0000
54.0000 464.0000 1.0000
54.0100 427.0000 1.0000
54.0200 449.0000 1.0000
54.0300 416.0000 1.0000
54.0400 419.0000 1.0000
54.0500 412.0000 1.0000
54.0600 385.0000 1.0000
54.0700 436.0000 1.0000
54.0800 438.0000 1.0000
54.0900 450.0000 1.0000
54.1000 416.0000 1.0000
54.1100 393.0000 1.0000
54.1200 439.0000 1.0000
54.1300 441.0000 1.0000
54.1400 434.0000 1.0000
54.1500 445.0000 1.0000
54.1600 442.0000 1.0000
54.1700 415.0000 1.0000
54.1800 418.0000 1.0000
54.1900 400.0000 1.0000
54.2000 435.0000 1.0000
54.2100 436.0000 1.0000
54.2200 424.0000 1.0000
54.2300 447.0000 1.0000
54.2400 422.0000 1.0000
54.2500 413.0000 1.0000
54.2600 414.0000 1.0000
54.2700 415.0000 1.0000
54.2800 465.0000 1.0000
54.2900 438.0000 1.0000
54.3000 446.0000 1.0000
54.3100 436.0000 1.0000
54.3200 427.0000 1.0000
54.3300 469.0000 1.0000
54.3400 472.0000 1.0000
54.3500 493.0000 1.0000
54.3600 477.0000 1.0000
54.3700 468.0000 1.0000
54.3800 489.0000 1.0000
54.3900 496.0000 1.0000
54.4000 528.0000 1.0000
54.4100 543.0000 1.0000
54.4200 555.0000 1.0000
54.4300 567.0000 1.0000
54.4400 524.0000 1.0000
54.4500 572.0000 1.0000
54.4600 583.0000 1.0000
54.4700 551.0000 1.0000
54.4800 563.0000 1.0000
54.4900 569.0000 1.0000
54.5000 598.0000 1.0000
54.5100 596.0000 1.0000
54.5200 563.0000 1.0000
54.5300 580.0000 1.0000
54.5400 572.0000 1.0000
54.5500 575.0000 1.0000
54.5600 561.0000 1.0000
54.5700 561.0000 1.0000
54.5800 553.0000 1.0000
54.5900 543.0000 1.0000
54.6000 571.0000 1.0000
54.6100 528.0000 1.0000
54.6200 512.0000 1.0000
54.6300 534.0000 1.0000
54.6400 498.0000 1.0000
54.6500 527.0000 1.0000
54.6600 484.0000 1.0000
54.6700 494.0000 1.0000
54.6800 515.0000 1.0000
54.6900 525.0000 1.0000
54.7000 471.0000 1.0000
54.7100 487.0000 1.0000
54.7200 472.0000 1.0000
54.7300 473.0000 1.0000
54.7400 487.0000 1.0000
54.7500 462.0000 1.0000
54.7600 462.0000 1.0000
54.7700 433.0000 1.0000
54.7800 413.0000 1.0000
54.7900 420.0000 1.0000
54.8000 446.0000 1.0000
54.8100 436.0000 1.0000
54.8200 383.0000 1.0000
54.8300 403.0000 1.0000
54.8400 422.0000 1.0000
54.8500 403.0000 1.0000
54.8600 425.0000 1.0000
54.8700 434.0000 1.0000
54.8800 397.0000 1.0000
54.8900 435.0000 1.0000
54.9000 378.0000 1.0000
54.9100 392.0000 1.0000
54.9200 410.0000 1.0000
54.9300 391.0000 1.0000
54.9400 375.0000 1.0000
54.9500 391.0000 1.0000
54.9600 415.0000 1.0000
54.9700 340.0000 1.0000
54.9800 367.0000 1.0000
54.9900 413.0000 1.0000
55.0000 380.0000 1.0000
55.0100 383.0000 1.0000
55.0200 405.0000 1.0000
55.0300 367.0000 1.0000
55.0400 369.0000 1.0000
55.0500 390.0000 1.0000
55.0600 403.0000 1.0000
55.0700 380.0000 1.0000
55.0800 362.0000 1.0000
55.0900 384.0000 1.0000
55.1000 413.0000 1.0000
55.1100 389.0000 1.0000
55.1200 394.0000 1.0000
55.1300 381.0000 1.0000
55.1400 402.0000 1.0000
55.1500 392.0000 1.0000
55.1600 375.0000 1.0000
55.1700 369.0000 1.0000
55.1800 376.0000 1.0000
55.1900 382.0000 1.0000
55.2000 400.0000 1.0000
55.2100 369.0000 1.0000
55.2200 378.0000 1.0000
55.2300 407.0000 1.0000
55.2400 368.0000 1.0000
55.2500 357.0000 1.0000
55.2600 363.0000 1.0000
55.2700 392.0000 1.0000
55.2800 386.0000 1.0000
55.2900 366.0000 1.0000
55.3000 359.0000 1.0000
55.3100 398.0000 1.0000
55.3200 381.0000 1.0000
55.3300 403.0000 1.0000
55.3400 380.0000 1.0000
55.3500 327.0000 1.0000
55.3600 384.0000 1.0000
55.3700 387.0000 1.0000
55.3800 408.0000 1.0000
55.3900 402.0000 1.0000
55.4000 376.0000 1.0000
55.4100 381.0000 1.0000
55.4200 401.0000 1.0000
55.4300 414.0000 1.0000
55.4400 366.0000 1.0000
55.4500 386.0000 1.0000
55.4600 391.0000 1.0000
55.4700 351.0000 1.0000
55.4800 365.0000 1.0000
55.4900 369.0000 1.0000
55.5000 358.0000 1.0000
55.5100 381.0000 1.0000
55.5200 384.0000 1.0000
55.5300 370.0000 1.0000
55.5400 377.0000 1.0000
55.5500 382.0000 1.0000
55.5600 387.0000 1.0000
55.5700 349.0000 1.0000
55.5800 393.0000 1.0000
55.5900 389.0000 1.0000
55.6000 387.0000 1.0000
55.6100 391.0000 1.0000
55.6200 394.0000 1.0000
55.6300 360.0000 1.0000
55.6400 333.0000 1.0000
55.6500 388.0000 1.0000
55.6600 384.0000 1.0000
55.6700 395.0000 1.0000
55.6800 373.0000 1.0000
55.6900 364.0000 1.0000
55.7000 370.0000 1.0000
55.7100 357.0000 1.0000
55.7200 353.0000 1.0000
55.7300 347.0000 1.0000
55.7400 354.0000 1.0000
55.7500 396.0000 1.0000
55.7600 386.0000 1.0000
55.7700 366.0000 1.0000
55.7800 380.0000 1.0000
55.7900 398.0000 1.0000
55.8000 359.0000 1.0000
55.8100 357.0000 1.0000
55.8200 364.0000 1.0000
55.8300 390.0000 1.0000
55.8400 374.0000 1.0000
55.8500 348.0000 1.0000
55.8600 352.0000 1.0000
55.8700 367.0000 1.0000
55.8800 364.0000 1.0000
55.8900 378.0000 1.0000
55.9000 400.0000 1.0000
55.9100 402.0000 1.0000
55.9200 380.0000 1.0000
55.9300 374.0000 1.0000
55.9400 342.0000 1.0000
55.9500 374.0000 1.0000
55.9600 365.0000 1.0000
55.9700 350.0000 1.0000
55.9800 387.0000 1.0000
55.9900 365.0000 1.0000
56.0000 389.0000 1.0000
56.0100 352.0000 1.0000
56.0200 350.0000 1.0000
56.0300 358.0000 1.0000
56.0400 376.0000 1.0000
56.0500 357.0000 1.0000
56.0600 370.0000 1.0000
56.0700 360.0000 1.0000
56.0800 360.0000 1.0000
56.0900 377.0000 1.0000
56.1000 371.0000 1.0000
56.1100 375.0000 1.0000
56.1200 349.0000 1.0000
56.1300 380.0000 1.0000
56.1400 386.0000 1.0000
56.1500 387.0000 1.0000
56.1600 416.0000 1.0000
56.1700 369.0000 1.0000
56.1800 396.0000 1.0000
56.1900 400.0000 1.0000
56.2000 372.0000 1.0000
56.2100 385.0000 1.0000
56.2200 359.0000 1.0000
56.2300 377.0000 1.0000
56.2400 367.0000 1.0000
56.2500 400.0000 1.0000
56.2600 382.0000 1.0000
56.2700 360.0000 1.0000
56.2800 358.0000 1.0000
56.2900 366.0000 1.0000
56.3000 355.0000 1.0000
56.3100 385.0000 1.0000
56.3200 388.0000 1.0000
56.3300 384.0000 1.0000
56.3400 361.0000 1.0000
56.3500 333.0000 1.0000
56.3600 378.0000 1.0000
56.3700 383.0000 1.0000
56.3800 390.0000 1.0000
56.3900 360.0000 1.0000
56.4000 394.0000 1.0000
56.4100 357.0000 1.0000
56.4200 384.0000 1.0000
56.4300 348.0000 1.0000
56.4400 372.0000 1.0000
56.4500 367.0000 1.0000
56.4600 382.0000 1.0000
56.4700 347.0000 1.0000
56.4800 378.0000 1.0000
56.4900 398.0000 1.0000
56.5000 358.0000 1.0000
56.5100 361.0000 1.0000
56.5200 396.0000 1.0000
56.5300 370.0000 1.0000
56.5400 371.0000 1.0000
56.5500 366.0000 1.0000
56.5600 341.0000 1.0000
56.5700 356.0000 1.0000
56.5800 360.0000 1.0000
56.5900 354.0000 1.0000
56.6000 367.0000 1.0000
56.6100 343.0000 1.0000
56.6200 367.0000 1.0000
56.6300 373.0000 1.0000
56.6400 373.0000 1.0000
56.6500 390.0000 1.0000
56.6600 365.0000 1.0000
56.6700 373.0000 1.0000
56.6800 365.0000 1.0000
56.6900 369.0000 1.0000
56.7000 365.0000 1.0000
56.7100 336.0000 1.0000
56.7200 366.0000 1.0000
56.7300 350.0000 1.0000
56.7400 378.0000 1.0000
56.7500 359.0000 1.0000
56.7600 380.0000 1.0000
56.7700 372.0000 1.0000
56.7800 347.0000 1.0000
56.7900 385.0000 1.0000
56.8000 386.0000 1.0000
56.8100 369.0000 1.0000
56.8200 358.0000 1.0000
56.8300 356.0000 1.0000
56.8400 369.0000 1.0000
56.8500 375.0000 1.0000
56.8600 354.0000 1.0000
56.8700 410.0000 1.0000
56.8800 336.0000 1.0000
56.8900 375.0000 1.0000
56.9000 383.0000 1.0000
56.9100 392.0000 1.0000
56.9200 373.0000 1.0000
56.9300 392.0000 1.0000
56.9400 368.0000 1.0000
56.9500 375.0000 1.0000
56.9600 358.0000 1.0000
56.9700 322.0000 1.0000
56.9800 344.0000 1.0000
56.9900 370.0000 1.0000
57.0000 369.0000 1.0000
57.0100 349.0000 1.0000
57.0200 377.0000 1.0000
57.0300 364.0000 1.0000
57.0400 370.0000 1.0000
57.0500 365.0000 1.0000
57.0600 365.0000 1.0000
57.0700 397.0000 1.0000
57.0800 372.0000 1.0000
57.0900 382.0000 1.0000
57.1000 361.0000 1.0000
57.1100 358.0000 1.0000
57.1200 361.0000 1.0000
57.1300 377.0000 1.0000
57.1400 352.0000 1.0000
57.1500 386.0000 1.0000
57.1600 372.0000 1.0000
57.1700 397.0000 1.0000
57.1800 373.0000 1.0000
57.1900 379.0000 1.0000
57.2000 390.0000 1.0000
57.2100 359.0000 1.0000
57.2200 361.0000 1.0000
57.2300 323.0000 1.0000
57.2400 380.0000 1.0000
57.2500 423.0000 1.0000
57.2600 361.0000 1.0000
57.2700 357.0000 1.0000
57.2800 391.0000 1.0000
57.2900 360.0000 1.0000
57.3000 363.0000 1.0000
57.3100 383.0000 1.0000
57.3200 359.0000 1.0000
57.3300 392.0000 1.0000
57.3400 389.0000 1.0000
57.3500 366.0000 1.0000
57.3600 373.0000 1.0000
57.3700 382.0000 1.0000
57.3800 388.0000 1.0000
57.3900 379.0000 1.0000
57.4000 383.0000 1.0000
57.4100 368.0000 1.0000
57.4200 365.0000 1.0000
57.4300 378.0000 1.0000
57.4400 399.0000 1.0000
57.4500 405.0000 1.0000
57.4600 394.0000 1.0000
57.4700 387.0000 1.0000
57.4800 390.0000 1.0000
57.4900 374.0000 1.0000
57.5000 390.0000 1.0000
57.5100 410.0000 1.0000
57.5200 403.0000 1.0000
57.5300 398.0000 1.0000
57.5400 370.0000 1.0000
57.5500 370.0000 1.0000
57.5600 364.0000 1.0000
57.5700 383.0000 1.0000
57.5800 366.0000 1.0000
57.5900 364.0000 1.0000
57.6000 390.0000 1.0000
57.6100 384.0000 1.0000
57.6200 350.0000 1.0000
57.6300 384.0000 1.0000
57.6400 389.0000 1.0000
57.6500 392.0000 1.0000
57.6600 375.0000 1.0000
57.6700 379.0000 1.0000
57.6800 340.0000 1.0000
57.6900 344.0000 1.0000
57.7000 352.0000 1.0000
57.7100 329.0000 1.0000
57.7200 348.0000 1.0000
57.7300 377.0000 1.0000
57.7400 338.0000 1.0000
57.7500 361.0000 1.0000
57.7600 358.0000 1.0000
57.7700 381.0000 1.0000
57.7800 376.0000 1.0000
57.7900 359.0000 1.0000
57.8000 393.0000 1.0000
57.8100 388.0000 1.0000
57.8200 396.0000 1.0000
57.8300 368.0000 1.0000
57.8400 384.0000 1.0000
57.8500 384.0000 1.0000
57.8600 382.0000 1.0000
57.8700 370.0000 1.0000
57.8800 387.0000 1.0000
57.8900 369.0000 1.0000
57.9000 401.0000 1.0000
57.9100 367.0000 1.0000
57.9200 362.0000 1.0000
57.9300 378.0000 1.0000
57.9400 374.0000 1.0000
57.9500 368.0000 1.0000
57.9600 360.0000 1.0000
57.9700 341.0000 1.0000
57.9800 359.0000 1.0000
57.9900 365.0000 1.0000
58.0000 370.0000 1.0000
58.0100 388.0000 1.0000
58.0200 379.0000 1.0000
58.0300 376.0000 1.0000
58.0400 347.0000 1.0000
58.0500 375.0000 1.0000
58.0600 381.0000 1.0000
58.0700 376.0000 1.0000
58.0800 386.0000 1.0000
58.0900 343.0000 1.0000
58.1000 332.0000 1.0000
58.1100 364.0000 1.0000
58.1200 366.0000 1.0000
58.1300 353.0000 1.0000
58.1400 360.0000 1.0000
58.1500 395.0000 1.0000
58.1600 354.0000 1.0000
58.1700 362.0000 1.0000
58.1800 356.0000 1.0000
58.1900 365.0000 1.0000
58.2000 348.0000 1.0000
58.2100 350.0000 1.0000
58.2200 374.0000 1.0000
58.2300 347.0000 1.0000
58.2400 329.0000 1.0000
58.2500 373.0000 1.0000
58.2600 383.0000 1.0000
58.2700 368.0000 1.0000
58.2800 347.0000 1.0000
58.2900 351.0000 1.0000
58.3000 372.0000 1.0000
58.3100 360.0000 1.0000
58.3200 358.0000 1.0000
58.3300 359.0000 1.0000
58.3400 331.0000 1.0000
58.3500 372.0000 1.0000
58.3600 337.0000 1.0000
58.3700 361.0000 1.0000
58.3800 347.0000 1.0000
58.3900 387.0000 1.0000
58.4000 374.0000 1.0000
58.4100 394.0000 1.0000
58.4200 395.0000 1.0000
58.4300 357.0000 1.0000
58.4400 388.0000 1.0000
58.4500 392.0000 1.0000
58.4600 361.0000 1.0000
58.4700 376.0000 1.0000
58.4800 359.0000 1.0000
58.4900 381.0000 1.0000
58.5000 372.0000 1.0000
58.5100 371.0000 1.0000
58.5200 387.0000 1.0000
58.5300 375.0000 1.0000
58.5400 357.0000 1.0000
58.5500 358.0000 1.0000
58.5600 354.0000 1.0000
58.5700 362.0000 1.0000
58.5800 363.0000 1.0000
58.5900 369.0000 1.0000
58.6000 378.0000 1.0000
58.6100 355.0000 1.0000
58.6200 368.0000 1.0000
58.6300 355.0000 1.0000
58.6400 341.0000 1.0000
58.6500 375.0000 1.0000
58.6600 351.0000 1.0000
58.6700 364.0000 1.0000
58.6800 380.0000 1.0000
58.6900 363.0000 1.0000
58.7000 385.0000 1.0000
58.7100 372.0000 1.0000
58.7200 371.0000 1.0000
58.7300 357.0000 1.0000
58.7400 376.0000 1.0000
58.7500 353.0000 1.0000
58.7600 372.0000 1.0000
58.7700 344.0000 1.0000
58.7800 382.0000 1.0000
58.7900 358.0000 1.0000
58.8000 349.0000 1.0000
58.8100 333.0000 1.0000
58.8200 388.0000 1.0000
58.8300 396.0000 1.0000
58.8400 374.0000 1.0000
58.8500 356.0000 1.0000
58.8600 327.0000 1.0000
58.8700 330.0000 1.0000
58.8800 349.0000 1.0000
58.8900 362.0000 1.0000
58.9000 367.0000 1.0000
58.9100 386.0000 1.0000
58.9200 358.0000 1.0000
58.9300 357.0000 1.0000
58.9400 377.0000 1.0000
58.9500 346.0000 1.0000
58.9600 377.0000 1.0000
58.9700 399.0000 1.0000
58.9800 385.0000 1.0000
58.9900 388.0000 1.0000
59.0000 367.0000 1.0000
59.0100 359.0000 1.0000
59.0200 356.0000 1.0000
59.0300 353.0000 1.0000
59.0400 360.0000 1.0000
59.0500 367.0000 1.0000
59.0600 375.0000 1.0000
59.0700 359.0000 1.0000
59.0800 371.0000 1.0000
59.0900 388.0000 1.0000
59.1000 364.0000 1.0000
59.1100 381.0000 1.0000
59.1200 384.0000 1.0000
59.1300 370.0000 1.0000
59.1400 366.0000 1.0000
59.1500 375.0000 1.0000
59.1600 368.0000 1.0000
59.1700 379.0000 1.0000
59.1800 378.0000 1.0000
59.1900 374.0000 1.0000
59.2000 365.0000 1.0000
59.2100 370.0000 1.0000
59.2200 354.0000 1.0000
59.2300 332.0000 1.0000
59.2400 353.0000 1.0000
59.2500 337.0000 1.0000
59.2600 378.0000 1.0000
59.2700 365.0000 1.0000
59.2800 355.0000 1.0000
59.2900 327.0000 1.0000
59.3000 383.0000 1.0000
59.3100 356.0000 1.0000
59.3200 396.0000 1.0000
59.3300 365.0000 1.0000
59.3400 376.0000 1.0000
59.3500 353.0000 1.0000
59.3600 359.0000 1.0000
59.3700 341.0000 1.0000
59.3800 375.0000 1.0000
59.3900 338.0000 1.0000
59.4000 372.0000 1.0000
59.4100 364.0000 1.0000
59.4200 363.0000 1.0000
59.4300 370.0000 1.0000
59.4400 379.0000 1.0000
59.4500 388.0000 1.0000
59.4600 369.0000 1.0000
59.4700 371.0000 1.0000
59.4800 363.0000 1.0000
59.4900 339.0000 1.0000
59.5000 377.0000 1.0000
59.5100 346.0000 1.0000
59.5200 330.0000 1.0000
59.5300 380.0000 1.0000
59.5400 387.0000 1.0000
59.5500 387.0000 1.0000
59.5600 364.0000 1.0000
59.5700 364.0000 1.0000
59.5800 360.0000 1.0000
59.5900 365.0000 1.0000
59.6000 373.0000 1.0000
59.6100 351.0000 1.0000
59.6200 379.0000 1.0000
59.6300 379.0000 1.0000
59.6400 398.0000 1.0000
59.6500 376.0000 1.0000
59.6600 378.0000 1.0000
59.6700 353.0000 1.0000
59.6800 362.0000 1.0000
59.6900 361.0000 1.0000
59.7000 356.0000 1.0000
59.7100 368.0000 1.0000
59.7200 365.0000 1.0000
59.7300 333.0000 1.0000
59.7400 372.0000 1.0000
59.7500 358.0000 1.0000
59.7600 346.0000 1.0000
59.7700 378.0000 1.0000
59.7800 387.0000 1.0000
59.7900 379.0000 1.0000
59.8000 384.0000 1.0000
59.8100 358.0000 1.0000
59.8200 351.0000 1.0000
59.8300 347.0000 1.0000
59.8400 357.0000 1.0000
59.8500 340.0000 1.0000
59.8600 385.0000 1.0000
59.8700 376.0000 1.0000
59.8800 379.0000 1.0000
59.8900 335.0000 1.0000
59.9000 349.0000 1.0000
59.9100 341.0000 1.0000
59.9200 376.0000 1.0000
59.9300 350.0000 1.0000
59.9400 361.0000 1.0000
59.9500 353.0000 1.0000
59.9600 345.0000 1.0000
59.9700 341.0000 1.0000
59.9800 343.0000 1.0000
59.9900 366.0000 1.0000
60.0000 397.0000 1.0000
60.0100 344.0000 1.0000
60.0200 344.0000 1.0000
60.0300 351.0000 1.0000
60.0400 373.0000 1.0000
60.0500 367.0000 1.0000
60.0600 363.0000 1.0000
60.0700 385.0000 1.0000
60.0800 395.0000 1.0000
60.0900 363.0000 1.0000
60.1000 383.0000 1.0000
60.1100 394.0000 1.0000
60.1200 381.0000 1.0000
60.1300 345.0000 1.0000
60.1400 372.0000 1.0000
60.1500 391.0000 1.0000
60.1600 378.0000 1.0000
60.1700 368.0000 1.0000
60.1800 347.0000 1.0000
60.1900 370.0000 1.0000
60.2000 376.0000 1.0000
60.2100 387.0000 1.0000
60.2200 353.0000 1.0000
60.2300 347.0000 1.0000
60.2400 335.0000 1.0000
60.2500 375.0000 1.0000
60.2600 330.0000 1.0000
60.2700 406.0000 1.0000
60.2800 344.0000 1.0000
60.2900 340.0000 1.0000
60.3000 372.0000 1.0000
60.3100 329.0000 1.0000
60.3200 356.0000 1.0000
60.3300 395.0000 1.0000
60.3400 344.0000 1.0000
60.3500 355.0000 1.0000
60.3600 411.0000 1.0000
60.3700 321.0000 1.0000
60.3800 366.0000 1.0000
60.3900 370.0000 1.0000
60.4000 380.0000 1.0000
60.4100 381.0000 1.0000
60.4200 368.0000 1.0000
60.4300 357.0000 1.0000
60.4400 345.0000 1.0000
60.4500 353.0000 1.0000
60.4600 362.0000 1.0000
60.4700 378.0000 1.0000
60.4800 378.0000 1.0000
60.4900 369.0000 1.0000
60.5000 340.0000 1.0000
60.5100 346.0000 1.0000
60.5200 374.0000 1.0000
60.5300 368.0000 1.0000
60.5400 377.0000 1.0000
60.5500 383.0000 1.0000
60.5600 365.0000 1.0000
60.5700 361.0000 1.0000
60.5800 385.0000 1.0000
60.5900 357.0000 1.0000
60.6000 351.0000 1.0000
60.6100 349.0000 1.0000
60.6200 378.0000 1.0000
60.6300 371.0000 1.0000
60.6400 362.0000 1.0000
60.6500 356.0000 1.0000
60.6600 392.0000 1.0000
60.6700 392.0000 1.0000
60.6800 365.0000 1.0000
60.6900 353.0000 1.0000
60.7000 353.0000 1.0000
60.7100 398.0000 1.0000
60.7200 364.0000 1.0000
60.7300 358.0000 1.0000
60.7400 370.0000 1.0000
60.7500 375.0000 1.0000
60.7600 371.0000 1.0000
60.7700 370.0000 1.0000
60.7800 356.0000 1.0000
60.7900 361.0000 1.0000
60.8000 361.0000 1.0000
60.8100 361.0000 1.0000
60.8200 384.0000 1.0000
60.8300 376.0000 1.0000
60.8400 370.0000 1.0000
60.8500 383.0000 1.0000
60.8600 379.0000 1.0000
60.8700 366.0000 1.0000
60.8800 356.0000 1.0000
60.8900 343.0000 1.0000
60.9000 368.0000 1.0000
60.9100 396.0000 1.0000
60.9200 376.0000 1.0000
60.9300 379.0000 1.0000
60.9400 369.0000 1.0000
60.9500 396.0000 1.0000
60.9600 378.0000 1.0000
60.9700 390.0000 1.0000
60.9800 397.0000 1.0000
60.9900 393.0000 1.0000
61.0000 390.0000 1.0000
61.0100 401.0000 1.0000
61.0200 379.0000 1.0000
61.0300 376.0000 1.0000
61.0400 368.0000 1.0000
61.0500 376.0000 1.0000
61.0600 392.0000 1.0000
61.0700 374.0000 1.0000
61.0800 384.0000 1.0000
61.0900 387.0000 1.0000
61.1000 374.0000 1.0000
61.1100 390.0000 1.0000
61.1200 389.0000 1.0000
61.1300 401.0000 1.0000
61.1400 393.0000 1.0000
61.1500 389.0000 1.0000
61.1600 410.0000 1.0000
61.1700 416.0000 1.0000
61.1800 402.0000 1.0000
61.1900 418.0000 1.0000
61.2000 406.0000 1.0000
61.2100 418.0000 1.0000
61.2200 442.0000 1.0000
61.2300 425.0000 1.0000
61.2400 476.0000 1.0000
61.2500 464.0000 1.0000
61.2600 449.0000 1.0000
61.2700 501.0000 1.0000
61.2800 498.0000 1.0000
61.2900 520.0000 1.0000
61.3000 518.0000 1.0000
61.3100 496.0000 1.0000
61.3200 492.0000 1.0000
61.3300 535.0000 1.0000
61.3400 567.0000 1.0000
61.3500 564.0000 1.0000
61.3600 616.0000 1.0000
61.3700 584.0000 1.0000
61.3800 605.0000 1.0000
61.3900 608.0000 1.0000
61.4000 648.0000 1.0000
61.4100 658.0000 1.0000
61.4200 704.0000 1.0000
61.4300 710.0000 1.0000
61.4400 712.0000 1.0000
61.4500 725.0000 1.0000
61.4600 747.0000 1.0000
61.4700 712.0000 1.0000
61.4800 719.0000 1.0000
61.4900 717.0000 1.0000
61.5000 745.0000 1.0000
61.5100 772.0000 1.0000
61.5200 740.0000 1.0000
61.5300 741.0000 1.0000
61.5400 725.0000 1.0000
61.5500 684.0000 1.0000
61.5600 737.0000 1.0000
61.5700 713.0000 1.0000
61.5800 749.0000 1.0000
61.5900 702.0000 1.0000
61.6000 699.0000 1.0000
61.6100 734.0000 1.0000
61.6200 710.0000 1.0000
61.6300 647.0000 1.0000
61.6400 666.0000 1.0000
61.6500 642.0000 1.0000
61.6600 635.0000 1.0000
61.6700 663.0000 1.0000
61.6800 686.0000 1.0000
61.6900 649.0000 1.0000
61.7000 643.0000 1.0000
61.7100 618.0000 1.0000
61.7200 573.0000 1.0000
61.7300 590.0000 1.0000
61.7400 583.0000 1.0000
61.7500 581.0000 1.0000
61.7600 524.0000 1.0000
61.7700 577.0000 1.0000
61.7800 559.0000 1.0000
61.7900 550.0000 1.0000
61.8000 488.0000 1.0000
61.8100 509.0000 1.0000
61.8200 489.0000 1.0000
61.8300 472.0000 1.0000
61.8400 477.0000 1.0000
61.8500 478.0000 1.0000
61.8600 473.0000 1.0000
61.8700 511.0000 1.0000
61.8800 446.0000 1.0000
61.8900 422.0000 1.0000
61.9000 426.0000 1.0000
61.9100 432.0000 1.0000
61.9200 418.0000 1.0000
61.9300 425.0000 1.0000
61.9400 439.0000 1.0000
61.9500 415.0000 1.0000
61.9600 420.0000 1.0000
61.9700 453.0000 1.0000
61.9800 440.0000 1.0000
61.9900 465.0000 1.0000
62.0000 427.0000 1.0000
62.0100 411.0000 1.0000
62.0200 425.0000 1.0000
62.0300 441.0000 1.0000
62.0400 391.0000 1.0000
62.0500 371.0000 1.0000
62.0600 407.0000 1.0000
62.0700 410.0000 1.0000
62.0800 407.0000 1.0000
62.0900 443.0000 1.0000
62.1000 384.0000 1.0000
62.1100 380.0000 1.0000
62.1200 386.0000 1.0000
62.1300 412.0000 1.0000
62.1400 380.0000 1.0000
62.1500 399.0000 1.0000
62.1600 373.0000 1.0000
62.1700 386.0000 1.0000
62.1800 406.0000 1.0000
62.1900 396.0000 1.0000
62.2000 415.0000 1.0000
62.2100 407.0000 1.0000
62.2200 378.0000 1.0000
62.2300 422.0000 1.0000
62.2400 390.0000 1.0000
62.2500 419.0000 1.0000
62.2600 442.0000 1.0000
62.2700 439.0000 1.0000
62.2800 421.0000 1.0000
62.2900 403.0000 1.0000
62.3000 424.0000 1.0000
62.3100 403.0000 1.0000
62.3200 394.0000 1.0000
62.3300 402.0000 1.0000
62.3400 421.0000 1.0000
62.3500 413.0000 1.0000
62.3600 418.0000 1.0000
62.3700 428.0000 1.0000
62.3800 392.0000 1.0000
62.3900 418.0000 1.0000
62.4000 398.0000 1.0000
62.4100 413.0000 1.0000
62.4200 400.0000 1.0000
62.4300 399.0000 1.0000
62.4400 426.0000 1.0000
62.4500 395.0000 1.0000
62.4600 414.0000 1.0000
62.4700 411.0000 1.0000
62.4800 390.0000 1.0000
62.4900 362.0000 1.0000
62.5000 392.0000 1.0000
62.5100 393.0000 1.0000
62.5200 409.0000 1.0000
62.5300 392.0000 1.0000
62.5400 403.0000 1.0000
62.5500 400.0000 1.0000
62.5600 367.0000 1.0000
62.5700 403.0000 1.0000
62.5800 382.0000 1.0000
62.5900 380.0000 1.0000
62.6000 417.0000 1.0000
62.6100 387.0000 1.0000
62.6200 398.0000 1.0000
62.6300 362.0000 1.0000
62.6400 367.0000 1.0000
62.6500 374.0000 1.0000
62.6600 356.0000 1.0000
62.6700 360.0000 1.0000
62.6800 379.0000 1.0000
62.6900 363.0000 1.0000
62.7000 385.0000 1.0000
62.7100 334.0000 1.0000
62.7200 397.0000 1.0000
62.7300 340.0000 1.0000
62.7400 348.0000 1.0000
62.7500 359.0000 1.0000
62.7600 361.0000 1.0000
62.7700 384.0000 1.0000
62.7800 368.0000 1.0000
62.7900 353.0000 1.0000
62.8000 362.0000 1.0000
62.8100 368.0000 1.0000
62.8200 362.0000 1.0000
62.8300 369.0000 1.0000
62.8400 372.0000 1.0000
62.8500 363.0000 1.0000
62.8600 354.0000 1.0000
62.8700 379.0000 1.0000
62.8800 387.0000 1.0000
62.8900 376.0000 1.0000
62.9000 368.0000 1.0000
62.9100 361.0000 1.0000
62.9200 386.0000 1.0000
62.9300 388.0000 1.0000
62.9400 350.0000 1.0000
62.9500 368.0000 1.0000
62.9600 355.0000 1.0000
62.9700 389.0000 1.0000
62.9800 381.0000 1.0000
62.9900 359.0000 1.0000
63.0000 339.0000 1.0000
63.0100 366.0000 1.0000
63.0200 356.0000 1.0000
63.0300 347.0000 1.0000
63.0400 364.0000 1.0000
63.0500 380.0000 1.0000
63.0600 363.0000 1.0000
63.0700 386.0000 1.0000
63.0800 356.0000 1.0000
63.0900 345.0000 1.0000
63.1000 379.0000 1.0000
63.1100 341.0000 1.0000
63.1200 385.0000 1.0000
63.1300 353.0000 1.0000
63.1400 365.0000 1.0000
63.1500 367.0000 1.0000
63.1600 397.0000 1.0000
63.1700 364.0000 1.0000
63.1800 355.0000 1.0000
63.1900 358.0000 1.0000
63.2000 368.0000 1.0000
63.2100 336.0000 1.0000
63.2200 369.0000 1.0000
63.2300 397.0000 1.0000
63.2400 385.0000 1.0000
63.2500 370.0000 1.0000
63.2600 353.0000 1.0000
63.2700 373.0000 1.0000
63.2800 373.0000 1.0000
63.2900 340.0000 1.0000
63.3000 374.0000 1.0000
63.3100 331.0000 1.0000
63.3200 355.0000 1.0000
63.3300 364.0000 1.0000
63.3400 378.0000 1.0000
63.3500 330.0000 1.0000
63.3600 367.0000 1.0000
63.3700 378.0000 1.0000
63.3800 383.0000 1.0000
63.3900 409.0000 1.0000
63.4000 376.0000 1.0000
63.4100 376.0000 1.0000
63.4200 374.0000 1.0000
63.4300 377.0000 1.0000
63.4400 379.0000 1.0000
63.4500 364.0000 1.0000
63.4600 389.0000 1.0000
63.4700 380.0000 1.0000
63.4800 398.0000 1.0000
63.4900 368.0000 1.0000
63.5000 369.0000 1.0000
63.5100 415.0000 1.0000
63.5200 402.0000 1.0000
63.5300 375.0000 1.0000
63.5400 369.0000 1.0000
63.5500 387.0000 1.0000
63.5600 372.0000 1.0000
63.5700 356.0000 1.0000
63.5800 383.0000 1.0000
63.5900 384.0000 1.0000
63.6000 365.0000 1.0000
63.6100 382.0000 1.0000
63.6200 383.0000 1.0000
63.6300 407.0000 1.0000
63.6400 347.0000 1.0000
63.6500 393.0000 1.0000
63.6600 401.0000 1.0000
63.6700 370.0000 1.0000
63.6800 395.0000 1.0000
63.6900 368.0000 1.0000
63.7000 382.0000 1.0000
63.7100 373.0000 1.0000
63.7200 388.0000 1.0000
63.7300 367.0000 1.0000
63.7400 406.0000 1.0000
63.7500 424.0000 1.0000
63.7600 416.0000 1.0000
63.7700 454.0000 1.0000
63.7800 439.0000 1.0000
63.7900 450.0000 1.0000
63.8000 462.0000 1.0000
63.8100 483.0000 1.0000
63.8200 509.0000 1.0000
63.8300 510.0000 1.0000
63.8400 527.0000 1.0000
63.8500 550.0000 1.0000
63.8600 580.0000 1.0000
63.8700 576.0000 1.0000
63.8800 606.0000 1.0000
63.8900 638.0000 1.0000
63.9000 631.0000 1.0000
63.9100 665.0000 1.0000
63.9200 623.0000 1.0000
63.9300 600.0000 1.0000
63.9400 608.0000 1.0000
63.9500 607.0000 1.0000
63.9600 578.0000 1.0000
63.9700 518.0000 1.0000
63.9800 527.0000 1.0000
63.9900 534.0000 1.0000
64.0000 485.0000 1.0000
64.0100 527.0000 1.0000
64.0200 477.0000 1.0000
64.0300 502.0000 1.0000
64.0400 508.0000 1.0000
64.0500 502.0000 1.0000
64.0600 567.0000 1.0000
64.0700 547.0000 1.0000
64.0800 546.0000 1.0000
64.0900 539.0000 1.0000
64.1000 526.0000 1.0000
64.1100 522.0000 1.0000
64.1200 495.0000 1.0000
64.1300 472.0000 1.0000
64.1400 512.0000 1.0000
64.1500 455.0000 1.0000
64.1600 453.0000 1.0000
64.1700 438.0000 1.0000
64.1800 468.0000 1.0000
64.1900 460.0000 1.0000
64.2000 439.0000 1.0000
64.2100 412.0000 1.0000
64.2200 426.0000 1.0000
64.2300 431.0000 1.0000
64.2400 411.0000 1.0000
64.2500 424.0000 1.0000
64.2600 416.0000 1.0000
64.2700 432.0000 1.0000
64.2800 386.0000 1.0000
64.2900 420.0000 1.0000
64.3000 422.0000 1.0000
64.3100 388.0000 1.0000
64.3200 372.0000 1.0000
64.3300 360.0000 1.0000
64.3400 389.0000 1.0000
64.3500 388.0000 1.0000
64.3600 340.0000 1.0000
64.3700 373.0000 1.0000
64.3800 396.0000 1.0000
64.3900 381.0000 1.0000
64.4000 346.0000 1.0000
64.4100 392.0000 1.0000
64.4200 399.0000 1.0000
64.4300 387.0000 1.0000
64.4400 377.0000 1.0000
64.4500 388.0000 1.0000
64.4600 402.0000 1.0000
64.4700 366.0000 1.0000
64.4800 398.0000 1.0000
64.4900 397.0000 1.0000
64.5000 409.0000 1.0000
64.5100 372.0000 1.0000
64.5200 380.0000 1.0000
64.5300 367.0000 1.0000
64.5400 380.0000 1.0000
64.5500 380.0000 1.0000
64.5600 354.0000 1.0000
64.5700 363.0000 1.0000
64.5800 405.0000 1.0000
64.5900 382.0000 1.0000
64.6000 368.0000 1.0000
64.6100 388.0000 1.0000
64.6200 369.0000 1.0000
64.6300 378.0000 1.0000
64.6400 367.0000 1.0000
64.6500 367.0000 1.0000
64.6600 380.0000 1.0000
64.6700 383.0000 1.0000
64.6800 359.0000 1.0000
64.6900 371.0000 1.0000
64.7000 370.0000 1.0000
64.7100 372.0000 1.0000
64.7200 371.0000 1.0000
64.7300 393.0000 1.0000
64.7400 392.0000 1.0000
64.7500 392.0000 1.0000
64.7600 373.0000 1.0000
64.7700 366.0000 1.0000
64.7800 375.0000 1.0000
64.7900 389.0000 1.0000
64.8000 400.0000 1.0000
64.8100 356.0000 1.0000
64.8200 395.0000 1.0000
64.8300 384.0000 1.0000
64.8400 399.0000 1.0000
64.8500 390.0000 1.0000
64.8600 420.0000 1.0000
64.8700 416.0000 1.0000
64.8800 375.0000 1.0000
64.8900 366.0000 1.0000
64.9000 385.0000 1.0000
64.9100 383.0000 1.0000
64.9200 382.0000 1.0000
64.9300 356.0000 1.0000
64.9400 398.0000 1.0000
64.9500 389.0000 1.0000
64.9600 397.0000 1.0000
64.9700 386.0000 1.0000
64.9800 393.0000 1.0000
64.9900 384.0000 1.0000
65.0000 386.0000 1.0000
65.0100 429.0000 1.0000
65.0200 417.0000 1.0000
65.0300 389.0000 1.0000
65.0400 409.0000 1.0000
65.0500 434.0000 1.0000
65.0600 415.0000 1.0000
65.0700 410.0000 1.0000
65.0800 401.0000 1.0000
65.0900 425.0000 1.0000
65.1000 422.0000 1.0000
65.1100 425.0000 1.0000
65.1200 418.0000 1.0000
65.1300 413.0000 1.0000
65.1400 430.0000 1.0000
65.1500 450.0000 1.0000
65.1600 510.0000 1.0000
65.1700 484.0000 1.0000
65.1800 482.0000 1.0000
65.1900 478.0000 1.0000
65.2000 512.0000 1.0000
65.2100 479.0000 1.0000
65.2200 516.0000 1.0000
65.2300 507.0000 1.0000
65.2400 552.0000 1.0000
65.2500 546.0000 1.0000
65.2600 593.0000 1.0000
65.2700 566.0000 1.0000
65.2800 568.0000 1.0000
65.2900 637.0000 1.0000
65.3000 615.0000 1.0000
65.3100 681.0000 1.0000
65.3200 700.0000 1.0000
65.3300 712.0000 1.0000
65.3400 762.0000 1.0000
65.3500 788.0000 1.0000
65.3600 816.0000 1.0000
65.3700 829.0000 1.0000
65.3800 858.0000 1.0000
65.3900 891.0000 1.0000
65.4000 976.0000 1.0000
65.4100 1046.0000 1.0000
65.4200 1076.0000 1.0000
65.4300 1165.0000 1.0000
65.4400 1167.0000 1.0000
65.4500 1255.0000 1.0000
65.4600 1263.0000 1.0000
65.4700 1272.0000 1.0000
65.4800 1298.0000 1.0000
65.4900 1354.0000 1.0000
65.5000 1329.0000 1.0000
65.5100 1383.0000 1.0000
65.5200 1364.0000 1.0000
65.5300 1378.0000 1.0000
65.5400 1328.0000 1.0000
65.5500 1324.0000 1.0000
65.5600 1329.0000 1.0000
65.5700 1291.0000 1.0000
65.5800 1223.0000 1.0000
65.5900 1227.0000 1.0000
65.6000 1150.0000 1.0000
65.6100 1222.0000 1.0000
65.6200 1175.0000 1.0000
65.6300 1119.0000 1.0000
65.6400 1077.0000 1.0000
65.6500 1068.0000 1.0000
65.6600 1104.0000 1.0000
65.6700 1074.0000 1.0000
65.6800 1084.0000 1.0000
65.6900 1044.0000 1.0000
65.7000 1009.0000 1.0000
65.7100 974.0000 1.0000
65.7200 897.0000 1.0000
65.7300 954.0000 1.0000
65.7400 885.0000 1.0000
65.7500 801.0000 1.0000
65.7600 804.0000 1.0000
65.7700 812.0000 1.0000
65.7800 709.0000 1.0000
65.7900 720.0000 1.0000
65.8000 655.0000 1.0000
65.8100 646.0000 1.0000
65.8200 644.0000 1.0000
65.8300 665.0000 1.0000
65.8400 621.0000 1.0000
65.8500 604.0000 1.0000
65.8600 555.0000 1.0000
65.8700 570.0000 1.0000
65.8800 510.0000 1.0000
65.8900 566.0000 1.0000
65.9000 544.0000 1.0000
65.9100 524.0000 1.0000
65.9200 476.0000 1.0000
65.9300 464.0000 1.0000
65.9400 473.0000 1.0000
65.9500 465.0000 1.0000
65.9600 425.0000 1.0000
65.9700 443.0000 1.0000
65.9800 490.0000 1.0000
65.9900 463.0000 1.0000
66.0000 453.0000 1.0000
66.0100 421.0000 1.0000
66.0200 444.0000 1.0000
66.0300 438.0000 1.0000
66.0400 446.0000 1.0000
66.0500 425.0000 1.0000
66.0600 397.0000 1.0000
66.0700 395.0000 1.0000
66.0800 416.0000 1.0000
66.0900 418.0000 1.0000
66.1000 410.0000 1.0000
66.1100 423.0000 1.0000
66.1200 398.0000 1.0000
66.1300 412.0000 1.0000
66.1400 420.0000 1.0000
66.1500 380.0000 1.0000
66.1600 352.0000 1.0000
66.1700 415.0000 1.0000
66.1800 404.0000 1.0000
66.1900 390.0000 1.0000
66.2000 387.0000 1.0000
66.2100 376.0000 1.0000
66.2200 380.0000 1.0000
66.2300 372.0000 1.0000
66.2400 395.0000 1.0000
66.2500 373.0000 1.0000
66.2600 377.0000 1.0000
66.2700 358.0000 1.0000
66.2800 358.0000 1.0000
66.2900 381.0000 1.0000
66.3000 378.0000 1.0000
66.3100 383.0000 1.0000
66.3200 339.0000 1.0000
66.3300 351.0000 1.0000
66.3400 370.0000 1.0000
66.3500 365.0000 1.0000
66.3600 385.0000 1.0000
66.3700 362.0000 1.0000
66.3800 321.0000 1.0000
66.3900 347.0000 1.0000
66.4000 356.0000 1.0000
66.4100 332.0000 1.0000
66.4200 337.0000 1.0000
66.4300 348.0000 1.0000
66.4400 323.0000 1.0000
66.4500 365.0000 1.0000
66.4600 337.0000 1.0000
66.4700 349.0000 1.0000
66.4800 353.0000 1.0000
66.4900 349.0000 1.0000
66.5000 354.0000 1.0000
66.5100 359.0000 1.0000
66.5200 346.0000 1.0000
66.5300 345.0000 1.0000
66.5400 336.0000 1.0000
66.5500 336.0000 1.0000
66.5600 330.0000 1.0000
66.5700 345.0000 1.0000
66.5800 333.0000 1.0000
66.5900 320.0000 1.0000
66.6000 320.0000 1.0000
66.6100 367.0000 1.0000
66.6200 358.0000 1.0000
66.6300 314.0000 1.0000
66.6400 321.0000 1.0000
66.6500 338.0000 1.0000
66.6600 332.0000 1.0000
66.6700 347.0000 1.0000
66.6800 331.0000 1.0000
66.6900 331.0000 1.0000
66.7000 334.0000 1.0000
66.7100 346.0000 1.0000
66.7200 335.0000 1.0000
66.7300 386.0000 1.0000
66.7400 370.0000 1.0000
66.7500 358.0000 1.0000
66.7600 357.0000 1.0000
66.7700 363.0000 1.0000
66.7800 343.0000 1.0000
66.7900 348.0000 1.0000
66.8000 342.0000 1.0000
66.8100 318.0000 1.0000
66.8200 365.0000 1.0000
66.8300 331.0000 1.0000
66.8400 352.0000 1.0000
66.8500 324.0000 1.0000
66.8600 322.0000 1.0000
66.8700 324.0000 1.0000
66.8800 313.0000 1.0000
66.8900 341.0000 1.0000
66.9000 336.0000 1.0000
66.9100 313.0000 1.0000
66.9200 345.0000 1.0000
66.9300 345.0000 1.0000
66.9400 325.0000 1.0000
66.9500 343.0000 1.0000
66.9600 357.0000 1.0000
66.9700 363.0000 1.0000
66.9800 348.0000 1.0000
66.9900 321.0000 1.0000
67.0000 329.0000 1.0000
67.0100 368.0000 1.0000
67.0200 350.0000 1.0000
67.0300 335.0000 1.0000
67.0400 348.0000 1.0000
67.0500 322.0000 1.0000
67.0600 344.0000 1.0000
67.0700 317.0000 1.0000
67.0800 358.0000 1.0000
67.0900 346.0000 1.0000
67.1000 342.0000 1.0000
67.1100 332.0000 1.0000
67.1200 385.0000 1.0000
67.1300 334.0000 1.0000
67.1400 332.0000 1.0000
67.1500 344.0000 1.0000
67.1600 349.0000 1.0000
67.1700 320.0000 1.0000
67.1800 356.0000 1.0000
67.1900 333.0000 1.0000
67.2000 337.0000 1.0000
67.2100 331.0000 1.0000
67.2200 339.0000 1.0000
67.2300 374.0000 1.0000
67.2400 339.0000 1.0000
67.2500 358.0000 1.0000
67.2600 354.0000 1.0000
67.2700 329.0000 1.0000
67.2800 333.0000 1.0000
67.2900 339.0000 1.0000
67.3000 330.0000 1.0000
67.3100 339.0000 1.0000
67.3200 340.0000 1.0000
67.3300 315.0000 1.0000
67.3400 327.0000 1.0000
67.3500 342.0000 1.0000
67.3600 337.0000 1.0000
67.3700 321.0000 1.0000
67.3800 364.0000 1.0000
67.3900 317.0000 1.0000
67.4000 328.0000 1.0000
67.4100 358.0000 1.0000
67.4200 363.0000 1.0000
67.4300 321.0000 1.0000
67.4400 304.0000 1.0000
67.4500 341.0000 1.0000
67.4600 364.0000 1.0000
67.4700 368.0000 1.0000
67.4800 310.0000 1.0000
67.4900 333.0000 1.0000
67.5000 339.0000 1.0000
67.5100 342.0000 1.0000
67.5200 337.0000 1.0000
67.5300 365.0000 1.0000
67.5400 347.0000 1.0000
67.5500 339.0000 1.0000
67.5600 324.0000 1.0000
67.5700 350.0000 1.0000
67.5800 326.0000 1.0000
67.5900 336.0000 1.0000
67.6000 343.0000 1.0000
67.6100 332.0000 1.0000
67.6200 354.0000 1.0000
67.6300 332.0000 1.0000
67.6400 331.0000 1.0000
67.6500 294.0000 1.0000
67.6600 337.0000 1.0000
67.6700 307.0000 1.0000
67.6800 339.0000 1.0000
67.6900 352.0000 1.0000
67.7000 346.0000 1.0000
67.7100 314.0000 1.0000
67.7200 350.0000 1.0000
67.7300 337.0000 1.0000
67.7400 329.0000 1.0000
67.7500 336.0000 1.0000
67.7600 307.0000 1.0000
67.7700 336.0000 1.0000
67.7800 334.0000 1.0000
67.7900 315.0000 1.0000
67.8000 299.0000 1.0000
67.8100 327.0000 1.0000
67.8200 337.0000 1.0000
67.8300 335.0000 1.0000
67.8400 320.0000 1.0000
67.8500 323.0000 1.0000
67.8600 337.0000 1.0000
67.8700 331.0000 1.0000
67.8800 379.0000 1.0000
67.8900 326.0000 1.0000
67.9000 313.0000 1.0000
67.9100 344.0000 1.0000
67.9200 349.0000 1.0000
67.9300 321.0000 1.0000
67.9400 313.0000 1.0000
67.9500 331.0000 1.0000
67.9600 347.0000 1.0000
67.9700 347.0000 1.0000
67.9800 375.0000 1.0000
67.9900 335.0000 1.0000
68.0000 330.0000 1.0000
68.0100 348.0000 1.0000
68.0200 335.0000 1.0000
68.0300 326.0000 1.0000
68.0400 329.0000 1.0000
68.0500 315.0000 1.0000
68.0600 330.0000 1.0000
68.0700 316.0000 1.0000
68.0800 341.0000 1.0000
68.0900 330.0000 1.0000
68.1000 300.0000 1.0000
68.1100 317.0000 1.0000
68.1200 339.0000 1.0000
68.1300 349.0000 1.0000
68.1400 344.0000 1.0000
68.1500 334.0000 1.0000
68.1600 314.0000 1.0000
68.1700 351.0000 1.0000
68.1800 356.0000 1.0000
68.1900 323.0000 1.0000
68.2000 313.0000 1.0000
68.2100 324.0000 1.0000
68.2200 302.0000 1.0000
68.2300 319.0000 1.0000
68.2400 340.0000 1.0000
68.2500 327.0000 1.0000
68.2600 336.0000 1.0000
68.2700 309.0000 1.0000
68.2800 311.0000 1.0000
68.2900 343.0000 1.0000
68.3000 317.0000 1.0000
68.3100 323.0000 1.0000
68.3200 321.0000 1.0000
68.3300 322.0000 1.0000
68.3400 317.0000 1.0000
68.3500 320.0000 1.0000
68.3600 298.0000 1.0000
68.3700 329.0000 1.0000
68.3800 338.0000 1.0000
68.3900 330.0000 1.0000
68.4000 335.0000 1.0000
68.4100 335.0000 1.0000
68.4200 334.0000 1.0000
68.4300 324.0000 1.0000
68.4400 326.0000 1.0000
68.4500 319.0000 1.0000
68.4600 341.0000 1.0000
68.4700 340.0000 1.0000
68.4800 336.0000 1.0000
68.4900 351.0000 1.0000
68.5000 332.0000 1.0000
68.5100 320.0000 1.0000
68.5200 308.0000 1.0000
68.5300 328.0000 1.0000
68.5400 312.0000 1.0000
68.5500 333.0000 1.0000
68.5600 335.0000 1.0000
68.5700 318.0000 1.0000
68.5800 359.0000 1.0000
68.5900 327.0000 1.0000
68.6000 301.0000 1.0000
68.6100 296.0000 1.0000
68.6200 327.0000 1.0000
68.6300 328.0000 1.0000
68.6400 328.0000 1.0000
68.6500 339.0000 1.0000
68.6600 320.0000 1.0000
68.6700 343.0000 1.0000
68.6800 299.0000 1.0000
68.6900 327.0000 1.0000
68.7000 315.0000 1.0000
68.7100 301.0000 1.0000
68.7200 325.0000 1.0000
68.7300 331.0000 1.0000
68.7400 308.0000 1.0000
68.7500 324.0000 1.0000
68.7600 327.0000 1.0000
68.7700 355.0000 1.0000
68.7800 321.0000 1.0000
68.7900 318.0000 1.0000
68.8000 331.0000 1.0000
68.8100 332.0000 1.0000
68.8200 313.0000 1.0000
68.8300 337.0000 1.0000
68.8400 323.0000 1.0000
68.8500 349.0000 1.0000
68.8600 330.0000 1.0000
68.8700 328.0000 1.0000
68.8800 334.0000 1.0000
68.8900 332.0000 1.0000
68.9000 339.0000 1.0000
68.9100 320.0000 1.0000
68.9200 340.0000 1.0000
68.9300 317.0000 1.0000
68.9400 306.0000 1.0000
68.9500 315.0000 1.0000
68.9600 323.0000 1.0000
68.9700 311.0000 1.0000
68.9800 302.0000 1.0000
68.9900 322.0000 1.0000
69.0000 339.0000 1.0000
69.0100 347.0000 1.0000
69.0200 341.0000 1.0000
69.0300 339.0000 1.0000
69.0400 322.0000 1.0000
69.0500 310.0000 1.0000
69.0600 321.0000 1.0000
69.0700 330.0000 1.0000
69.0800 293.0000 1.0000
69.0900 310.0000 1.0000
69.1000 309.0000 1.0000
69.1100 310.0000 1.0000
69.1200 305.0000 1.0000
69.1300 313.0000 1.0000
69.1400 333.0000 1.0000
69.1500 319.0000 1.0000
69.1600 314.0000 1.0000
69.1700 329.0000 1.0000
69.1800 301.0000 1.0000
69.1900 330.0000 1.0000
69.2000 333.0000 1.0000
69.2100 317.0000 1.0000
69.2200 316.0000 1.0000
69.2300 320.0000 1.0000
69.2400 334.0000 1.0000
69.2500 312.0000 1.0000
69.2600 307.0000 1.0000
69.2700 325.0000 1.0000
69.2800 310.0000 1.0000
69.2900 307.0000 1.0000
69.3000 319.0000 1.0000
69.3100 306.0000 1.0000
69.3200 327.0000 1.0000
69.3300 329.0000 1.0000
69.3400 319.0000 1.0000
69.3500 285.0000 1.0000
69.3600 335.0000 1.0000
69.3700 336.0000 1.0000
69.3800 350.0000 1.0000
69.3900 338.0000 1.0000
69.4000 298.0000 1.0000
69.4100 312.0000 1.0000
69.4200 305.0000 1.0000
69.4300 306.0000 1.0000
69.4400 307.0000 1.0000
69.4500 324.0000 1.0000
69.4600 303.0000 1.0000
69.4700 302.0000 1.0000
69.4800 330.0000 1.0000
69.4900 319.0000 1.0000
69.5000 331.0000 1.0000
69.5100 326.0000 1.0000
69.5200 325.0000 1.0000
69.5300 342.0000 1.0000
69.5400 330.0000 1.0000
69.5500 322.0000 1.0000
69.5600 304.0000 1.0000
69.5700 332.0000 1.0000
69.5800 282.0000 1.0000
69.5900 306.0000 1.0000
69.6000 318.0000 1.0000
69.6100 291.0000 1.0000
69.6200 310.0000 1.0000
69.6300 314.0000 1.0000
69.6400 352.0000 1.0000
69.6500 321.0000 1.0000
69.6600 321.0000 1.0000
69.6700 363.0000 1.0000
69.6800 318.0000 1.0000
69.6900 315.0000 1.0000
69.7000 290.0000 1.0000
69.7100 311.0000 1.0000
69.7200 316.0000 1.0000
69.7300 322.0000 1.0000
69.7400 335.0000 1.0000
69.7500 329.0000 1.0000
69.7600 292.0000 1.0000
69.7700 313.0000 1.0000
69.7800 319.0000 1.0000
69.7900 309.0000 1.0000
69.8000 328.0000 1.0000
69.8100 321.0000 1.0000
69.8200 318.0000 1.0000
69.8300 333.0000 1.0000
69.8400 304.0000 1.0000
69.8500 318.0000 1.0000
69.8600 300.0000 1.0000
69.8700 314.0000 1.0000
69.8800 272.0000 1.0000
69.8900 305.0000 1.0000
69.9000 297.0000 1.0000
69.9100 317.0000 1.0000
69.9200 308.0000 1.0000
69.9300 323.0000 1.0000
69.9400 335.0000 1.0000
69.9500 318.0000 1.0000
69.9600 295.0000 1.0000
69.9700 325.0000 1.0000
69.9800 319.0000 1.0000
69.9900 303.0000 1.0000
70.0000 302.0000 1.0000
*RAS_INT_END
*RAS_TEMPERATURE_START
*RAS_TEMPERATURE_END
*RAS_DATA_END
