*RAS_DATA_START
*RAS_HEADER_START
*DISP_FMT_X "%.2f"
*DISP_FMT_Y "%.0f"
*DISP_FULLSCALE "14105.0000000000"
*DISP_LINE_COLOR "255.0000000000"
*DISP_LINE_STYLE "0.0000000000"
*DISP_LINE_WIDTH "0.2500000000"
*DISP_NOTE "測定データ-2"
*DISP_OFFSET_Y "0.0000000000"
*DISP_PEAKSEARCH_UNIT_Y "cps"
*DISP_RANGE_BOTTOM "0.0000000000"
*DISP_RANGE_LEFT "20.0000000000"
*DISP_RANGE_LOGCUTOFF "0.0100000000"
*DISP_RANGE_RIGHT "70.0000000000"
*DISP_RANGE_TOP "14105.0000000000"
*DISP_SCALE_MODE_Y "0.0000000000"
*DISP_TAB_NAME "2θ/θ"
*DISP_TITLE_Y "強度"
*DISP_UNIT_Y "cps"
*DISP_WINDOW_NAME "MSG_MACROENGINE"
*FILE_COMMENT " "
*FILE_MD5 ""
*FILE_MEMO " "
*FILE_OPERATOR "Administrator"
*FILE_SAMPLE " "
*FILE_TYPE "RAS_RAW"
*FILE_USERGROUP "システムマネージャ"
*FILE_VERSION "1.0000000000"
*HW_ATTACHMENT_ID "ATT0025"
*HW_ATTACHMENT_NAME "標準|Standard"
*HW_COUNTER_ID-0 "CUT0025"
*HW_COUNTER_ID-1 "CUT0020"
*HW_COUNTER_ID-2 "CUT0020"
*HW_COUNTER_ID-3 "CSL0021"
*HW_COUNTER_ID-4 "CMC0021"
*HW_COUNTER_NAME-0 "D/teX Ultra|D/teX Ultra"
*HW_COUNTER_NAME-1 "None|None"
*HW_COUNTER_NAME-2 "None|None"
*HW_COUNTER_NAME-3 "BBM|BBM"
*HW_COUNTER_NAME-4 "検出器モノクロメータ|Detector monochromator"
*HW_COUNTER_SELECT_NAME "D/teX Ultra|D/teX Ultra"
*HW_GONIOMETER_ID "GON0023"
*HW_GONIOMETER_NAME "SmartLab|SmartLab"
*HW_GONIOMETER_RADIUS-0 "90.0"
*HW_GONIOMETER_RADIUS-1 "114.0"
*HW_GONIOMETER_RADIUS-2 "190.0"
*HW_GONIOMETER_RADIUS-3 "300.0"
*HW_GONIOMETER_RADIUS-4 "187.0"
*HW_GONIOMETER_RADIUS-5 "300.0"
*HW_GONIOMETER_RADIUS-6 "113.0"
*HW_GONIOMETER_RADIUS-7 "331.0"
*HW_I_OPT_ID-0 "CBO0021"
*HW_I_OPT_ID-1 "ICR0023"
*HW_I_OPT_ID-2 "ISL0021"
*HW_I_OPT_ID-3 "ISO0021"
*HW_I_OPT_ID-4 "IAD0021"
*HW_I_OPT_ID-5 "IPR0001"
*HW_I_OPT_NAME-0 "CBOユニット|CBO unit"
*HW_I_OPT_NAME-1 "標準入射光学ユニット|Standard incident optical unit"
*HW_I_OPT_NAME-2 "標準入射スリットボックス|Standard incident slit box"
*HW_I_OPT_NAME-3 "入射平行スリット|Incident parallel slit"
*HW_I_OPT_NAME-4 "長手制限スリット|Length limiting slit"
*HW_I_OPT_NAME-5 "None|None"
*HW_R_ATTENUATER_AUTOMODE "0"
*HW_R_OPT_ID-0 "RSS0021"
*HW_R_OPT_ID-1 "RCR0023"
*HW_R_OPT_ID-2 "RSO0021"
*HW_R_OPT_ID-3 "RRS0021"
*HW_R_OPT_ID-4 "ATN0021"
*HW_R_OPT_ID-5 "RFL0021"
*HW_R_OPT_ID-6 "RAD0021"
*HW_R_OPT_NAME-0 "標準受光スリットボックス1|Standard receiving slit box # 1"
*HW_R_OPT_NAME-1 "標準受光光学ユニット1|Standard receiving unit # 1"
*HW_R_OPT_NAME-2 "標準受光光学ユニット2|Standard receiving optical unit # 2"
*HW_R_OPT_NAME-3 "標準受光スリットボックス2|Standard receiving slit box # 2"
*HW_R_OPT_NAME-4 "標準アッテネータ|Standard Attenuator"
*HW_R_OPT_NAME-5 "Cu Kβ|Cu K-beta"
*HW_R_OPT_NAME-6 "調整用受光スリット|Alignment receiving slit"
*HW_SAMPLE_HOLDER_ID "SMP0023"
*HW_SAMPLE_HOLDER_NAME "標準Zステージ|Standard Z stage"
*HW_XG_CURRENT_MAX "50"
*HW_XG_CURRENT_MIN "2"
*HW_XG_CURRENT_RESOLUTION "1"
*HW_XG_CURRENT_UNIT "mA"
*HW_XG_FOCUS "1mm x 10mm"
*HW_XG_FOCUS_TYPE "Normal"
*HW_XG_ID ""
*HW_XG_NAME "3kW 封入管(ID:1200)|3kW Sealed tube(ID:1200)"
*HW_XG_TARGET_ATOMIC_NUMBER "29.0000000000"
*HW_XG_TARGET_NAME "Cu"
*HW_XG_TYPE "Hermetic"
*HW_XG_VOLTAGE_MAX "60"
*HW_XG_VOLTAGE_MIN "20"
*HW_XG_VOLTAGE_RESOLUTION "1"
*HW_XG_VOLTAGE_UNIT "kV"
*HW_XG_WATT_MAX "1.500"
*HW_XG_WATT_UNIT "kW"
*HW_XG_WAVE_LENGTH_ALPHA1 "1.540593"
*HW_XG_WAVE_LENGTH_ALPHA2 "1.544414"
*HW_XG_WAVE_LENGTH_BETA "1.392250"
*MEAS_COND_AXIS_NAME-0 "2θ/θ"
*MEAS_COND_AXIS_NAME-1 "2θ"
*MEAS_COND_AXIS_NAME-2 "ω"
*MEAS_COND_AXIS_NAME-3 "Z"
*MEAS_COND_AXIS_NAME-4 "2θ/ω"
*MEAS_COND_AXIS_NAME-5 "θs"
*MEAS_COND_AXIS_NAME-6 "θd"
*MEAS_COND_AXIS_NAME-7 "Ts"
*MEAS_COND_AXIS_NAME-8 "CBO選択スリット"
*MEAS_COND_AXIS_NAME-9 "M"
*MEAS_COND_AXIS_NAME-10 "入射平行スリット"
*MEAS_COND_AXIS_NAME-11 "入射スリット"
*MEAS_COND_AXIS_NAME-12 ""
*MEAS_COND_AXIS_NAME-13 "Zs"
*MEAS_COND_AXIS_NAME-14 "入射光学素子"
*MEAS_COND_AXIS_NAME-15 "長手制限スリット"
*MEAS_COND_AXIS_NAME-16 "センタースリット"
*MEAS_COND_AXIS_NAME-17 "フィルター"
*MEAS_COND_AXIS_NAME-18 "受光スリット1"
*MEAS_COND_AXIS_NAME-19 "受光スリット2"
*MEAS_COND_AXIS_NAME-20 "受光光学素子"
*MEAS_COND_AXIS_NAME-21 "受光平行スリット"
*MEAS_COND_AXIS_NAME-22 "調整用受光スリット"
*MEAS_COND_AXIS_NAME-23 ""
*MEAS_COND_AXIS_NAME-24 ""
*MEAS_COND_AXIS_NAME-25 "Zd"
*MEAS_COND_AXIS_NAME-26 "アッテネータ"
*MEAS_COND_AXIS_NAME-27 "検出器モノクロメータ"
*MEAS_COND_AXIS_NAME-28 "モノクロメータスリット"
*MEAS_COND_AXIS_NAME-29 "プライマリビーム"
*MEAS_COND_AXIS_NAME-30 "PHA"
*MEAS_COND_AXIS_NAME_INTERNAL-0 "TwoThetaTheta"
*MEAS_COND_AXIS_NAME_INTERNAL-1 "TwoTheta"
*MEAS_COND_AXIS_NAME_INTERNAL-2 "Omega"
*MEAS_COND_AXIS_NAME_INTERNAL-3 "Z"
*MEAS_COND_AXIS_NAME_INTERNAL-4 "TwoThetaOmega"
*MEAS_COND_AXIS_NAME_INTERNAL-5 "ThetaS"
*MEAS_COND_AXIS_NAME_INTERNAL-6 "ThetaD"
*MEAS_COND_AXIS_NAME_INTERNAL-7 "Ts"
*MEAS_COND_AXIS_NAME_INTERNAL-8 "CBO"
*MEAS_COND_AXIS_NAME_INTERNAL-9 "CBO-M"
*MEAS_COND_AXIS_NAME_INTERNAL-10 "IncidentSollerSlit"
*MEAS_COND_AXIS_NAME_INTERNAL-11 "IncidentSlitBox"
*MEAS_COND_AXIS_NAME_INTERNAL-12 "IncidentSlitBox-_Axis"
*MEAS_COND_AXIS_NAME_INTERNAL-13 "Zs"
*MEAS_COND_AXIS_NAME_INTERNAL-14 "IncidentMonochromator"
*MEAS_COND_AXIS_NAME_INTERNAL-15 "IncidentAxdSlit"
*MEAS_COND_AXIS_NAME_INTERNAL-16 "CenterSlit"
*MEAS_COND_AXIS_NAME_INTERNAL-17 "Filter"
*MEAS_COND_AXIS_NAME_INTERNAL-18 "ReceivingSlitBox1"
*MEAS_COND_AXIS_NAME_INTERNAL-19 "ReceivingSlitBox2"
*MEAS_COND_AXIS_NAME_INTERNAL-20 "ReceivingOptics"
*MEAS_COND_AXIS_NAME_INTERNAL-21 "ReceivingSollerSlit"
*MEAS_COND_AXIS_NAME_INTERNAL-22 "ReceivingAxdSlit"
*MEAS_COND_AXIS_NAME_INTERNAL-23 "ReceivingSlitBox1-_Axis"
*MEAS_COND_AXIS_NAME_INTERNAL-24 "ReceivingSlitBox2-_Axis"
*MEAS_COND_AXIS_NAME_INTERNAL-25 "ReceivingSlitBox2-Zd"
*MEAS_COND_AXIS_NAME_INTERNAL-26 "Attenuator"
*MEAS_COND_AXIS_NAME_INTERNAL-27 "CounterMonochromator"
*MEAS_COND_AXIS_NAME_INTERNAL-28 "CounterSlit"
*MEAS_COND_AXIS_NAME_INTERNAL-29 "IncidentPrimary"
*MEAS_COND_AXIS_NAME_INTERNAL-30 "PHA"
*MEAS_COND_AXIS_NAME_MAGICNO-0 "83951616.0000000000"
*MEAS_COND_AXIS_NAME_MAGICNO-1 "268632064.0000000000"
*MEAS_COND_AXIS_NAME_MAGICNO-2 "268500992.0000000000"
*MEAS_COND_AXIS_NAME_MAGICNO-3 "285278208.0000000000"
*MEAS_COND_AXIS_NAME_MAGICNO-4 "83951616.0000000000"
*MEAS_COND_AXIS_NAME_MAGICNO-5 "131072.0000000000"
*MEAS_COND_AXIS_NAME_MAGICNO-6 "131072.0000000000"
*MEAS_COND_AXIS_NAME_MAGICNO-7 "318898176.0000000000"
*MEAS_COND_AXIS_NAME_MAGICNO-8 "20971521.0000000000"
*MEAS_COND_AXIS_NAME_MAGICNO-9 "285343744.0000000000"
*MEAS_COND_AXIS_NAME_MAGICNO-10 "20971521.0000000000"
*MEAS_COND_AXIS_NAME_MAGICNO-11 "22020097.0000000000"
*MEAS_COND_AXIS_NAME_MAGICNO-12 "25165824.0000000000"
*MEAS_COND_AXIS_NAME_MAGICNO-13 "318898176.0000000000"
*MEAS_COND_AXIS_NAME_MAGICNO-14 "1.0000000000"
*MEAS_COND_AXIS_NAME_MAGICNO-15 "20971521.0000000000"
*MEAS_COND_AXIS_NAME_MAGICNO-16 "20971521.0000000000"
*MEAS_COND_AXIS_NAME_MAGICNO-17 "20971521.0000000000"
*MEAS_COND_AXIS_NAME_MAGICNO-18 "23068673.0000000000"
*MEAS_COND_AXIS_NAME_MAGICNO-19 "23068673.0000000000"
*MEAS_COND_AXIS_NAME_MAGICNO-20 "20971521.0000000000"
*MEAS_COND_AXIS_NAME_MAGICNO-21 "20971521.0000000000"
*MEAS_COND_AXIS_NAME_MAGICNO-22 "20971521.0000000000"
*MEAS_COND_AXIS_NAME_MAGICNO-23 "25165824.0000000000"
*MEAS_COND_AXIS_NAME_MAGICNO-24 "25165824.0000000000"
*MEAS_COND_AXIS_NAME_MAGICNO-25 "285343744.0000000000"
*MEAS_COND_AXIS_NAME_MAGICNO-26 "17301505.0000000000"
*MEAS_COND_AXIS_NAME_MAGICNO-27 "20971521.0000000000"
*MEAS_COND_AXIS_NAME_MAGICNO-28 "20971521.0000000000"
*MEAS_COND_AXIS_NAME_MAGICNO-29 "20971521.0000000000"
*MEAS_COND_AXIS_NAME_MAGICNO-30 "0.0000000000"
*MEAS_COND_AXIS_OFFSET-0 "-"
*MEAS_COND_AXIS_OFFSET-1 "-0.0801000000"
*MEAS_COND_AXIS_OFFSET-2 "-0.2746000000"
*MEAS_COND_AXIS_OFFSET-3 "-"
*MEAS_COND_AXIS_OFFSET-4 "-"
*MEAS_COND_AXIS_OFFSET-5 "-0.2746000000"
*MEAS_COND_AXIS_OFFSET-6 "0.1945000000"
*MEAS_COND_AXIS_OFFSET-7 "-"
*MEAS_COND_AXIS_OFFSET-8 "-"
*MEAS_COND_AXIS_OFFSET-9 "-"
*MEAS_COND_AXIS_OFFSET-10 "-"
*MEAS_COND_AXIS_OFFSET-11 "-"
*MEAS_COND_AXIS_OFFSET-12 "-"
*MEAS_COND_AXIS_OFFSET-13 "-"
*MEAS_COND_AXIS_OFFSET-14 "-"
*MEAS_COND_AXIS_OFFSET-15 "-"
*MEAS_COND_AXIS_OFFSET-16 "-"
*MEAS_COND_AXIS_OFFSET-17 "-"
*MEAS_COND_AXIS_OFFSET-18 "-"
*MEAS_COND_AXIS_OFFSET-19 "-"
*MEAS_COND_AXIS_OFFSET-20 "-"
*MEAS_COND_AXIS_OFFSET-21 "-"
*MEAS_COND_AXIS_OFFSET-22 "-"
*MEAS_COND_AXIS_OFFSET-23 "-"
*MEAS_COND_AXIS_OFFSET-24 "-"
*MEAS_COND_AXIS_OFFSET-25 "-"
*MEAS_COND_AXIS_OFFSET-26 "-"
*MEAS_COND_AXIS_OFFSET-27 "-"
*MEAS_COND_AXIS_OFFSET-28 "-"
*MEAS_COND_AXIS_OFFSET-29 "-"
*MEAS_COND_AXIS_OFFSET-30 "-"
*MEAS_COND_AXIS_POSITION-0 "0.0000000000"
*MEAS_COND_AXIS_POSITION-1 "0.0000000000"
*MEAS_COND_AXIS_POSITION-2 "0.0000000000"
*MEAS_COND_AXIS_POSITION-3 "-2.9426000000"
*MEAS_COND_AXIS_POSITION-4 "0.0000000000"
*MEAS_COND_AXIS_POSITION-5 "0.0000000000"
*MEAS_COND_AXIS_POSITION-6 "0.0000000000"
*MEAS_COND_AXIS_POSITION-7 "-0.4278800000"
*MEAS_COND_AXIS_POSITION-8 "BB"
*MEAS_COND_AXIS_POSITION-9 "0.0000000000"
*MEAS_COND_AXIS_POSITION-10 "Soller_slit_5.0deg"
*MEAS_COND_AXIS_POSITION-11 "2/3deg"
*MEAS_COND_AXIS_POSITION-12 "2.2088000000"
*MEAS_COND_AXIS_POSITION-13 "-1.0609400000"
*MEAS_COND_AXIS_POSITION-14 "0.0000000000"
*MEAS_COND_AXIS_POSITION-15 "10.0mm"
*MEAS_COND_AXIS_POSITION-16 "None"
*MEAS_COND_AXIS_POSITION-17 "Cu_K-beta"
*MEAS_COND_AXIS_POSITION-18 "13.000mm"
*MEAS_COND_AXIS_POSITION-19 "13.000mm"
*MEAS_COND_AXIS_POSITION-20 "No_unit"
*MEAS_COND_AXIS_POSITION-21 "Soller_slit_5.0deg"
*MEAS_COND_AXIS_POSITION-22 "None"
*MEAS_COND_AXIS_POSITION-23 "13.0000000000"
*MEAS_COND_AXIS_POSITION-24 "13.0000000000"
*MEAS_COND_AXIS_POSITION-25 "0.0081300000"
*MEAS_COND_AXIS_POSITION-26 "Open"
*MEAS_COND_AXIS_POSITION-27 "None"
*MEAS_COND_AXIS_POSITION-28 "None"
*MEAS_COND_AXIS_POSITION-29 "None"
*MEAS_COND_AXIS_POSITION-30 "38.0000000000"
*MEAS_COND_AXIS_UNIT-0 "deg"
*MEAS_COND_AXIS_UNIT-1 "deg"
*MEAS_COND_AXIS_UNIT-2 "deg"
*MEAS_COND_AXIS_UNIT-3 "mm"
*MEAS_COND_AXIS_UNIT-4 "deg"
*MEAS_COND_AXIS_UNIT-5 "deg"
*MEAS_COND_AXIS_UNIT-6 "deg"
*MEAS_COND_AXIS_UNIT-7 "mm"
*MEAS_COND_AXIS_UNIT-8 ""
*MEAS_COND_AXIS_UNIT-9 "pulse"
*MEAS_COND_AXIS_UNIT-10 ""
*MEAS_COND_AXIS_UNIT-11 ""
*MEAS_COND_AXIS_UNIT-12 "mm"
*MEAS_COND_AXIS_UNIT-13 "mm"
*MEAS_COND_AXIS_UNIT-14 ""
*MEAS_COND_AXIS_UNIT-15 ""
*MEAS_COND_AXIS_UNIT-16 ""
*MEAS_COND_AXIS_UNIT-17 ""
*MEAS_COND_AXIS_UNIT-18 ""
*MEAS_COND_AXIS_UNIT-19 ""
*MEAS_COND_AXIS_UNIT-20 ""
*MEAS_COND_AXIS_UNIT-21 ""
*MEAS_COND_AXIS_UNIT-22 ""
*MEAS_COND_AXIS_UNIT-23 "mm"
*MEAS_COND_AXIS_UNIT-24 "mm"
*MEAS_COND_AXIS_UNIT-25 "mm"
*MEAS_COND_AXIS_UNIT-26 ""
*MEAS_COND_AXIS_UNIT-27 ""
*MEAS_COND_AXIS_UNIT-28 ""
*MEAS_COND_AXIS_UNIT-29 ""
*MEAS_COND_AXIS_UNIT-30 "div"
*MEAS_COND_COUNTER_CNTLOSS_CORR "0.0000000000"
*MEAS_COND_COUNTER_PHABASE "38.0000000000"
*MEAS_COND_COUNTER_PHAWINDOW "16.0000000000"
*MEAS_COND_COUNTER_PHA_UNIT "div"
*MEAS_COND_COUNTER_TAUDIFF "30.0000000000"
*MEAS_COND_COUNTER_TAUINT "0.0000000000"
*MEAS_COND_IRRADIATION_MODE "OFF"
*MEAS_COND_IRRADIATION_WIDTH ""
*MEAS_COND_OPT_ATTR "集中法"
*MEAS_COND_OPT_NAME "@集中法"
*MEAS_COND_UNSYMMETRIC_MODE "OFF"
*MEAS_COND_XG_CURRENT "30.0000000000"
*MEAS_COND_XG_VOLTAGE "40.0000000000"
*MEAS_COND_XG_WAVE_TYPE "Ka"
*MEAS_DATA_COUNT "5001.0000000000"
*MEAS_SCAN_AXIS_X "2θ/θ"
*MEAS_SCAN_AXIS_X_INTERNAL "TwoThetaTheta"
*MEAS_SCAN_END_TIME "08/05/22 17:35:53"
*MEAS_SCAN_MODE "CONTINUOUS"
*MEAS_SCAN_MONITOR "0"
*MEAS_SCAN_RESOLUTION_X "0.0002"
*MEAS_SCAN_SPEED "2.5"
*MEAS_SCAN_SPEED_UNIT "deg/min"
*MEAS_SCAN_START "20.0000000000"
*MEAS_SCAN_START_TIME "08/05/22 17:14:29"
*MEAS_SCAN_STEP "0.0100000000"
*MEAS_SCAN_STOP "70.0000000000"
*MEAS_SCAN_UNIT_X "deg"
*MEAS_SCAN_UNIT_Y "counts"
*RAS_HEADER_END
*RAS_INT_START
20.0000 884.0000 1.0000
20.0100 827.0000 1.0000
20.0200 826.0000 1.0000
20.0300 822.0000 1.0000
20.0400 829.0000 1.0000
20.0500 797.0000 1.0000
20.0600 779.0000 1.0000
20.0700 826.0000 1.0000
20.0800 779.0000 1.0000
20.0900 788.0000 1.0000
20.1000 786.0000 1.0000
20.1100 797.0000 1.0000
20.1200 850.0000 1.0000
20.1300 815.0000 1.0000
20.1400 785.0000 1.0000
20.1500 834.0000 1.0000
20.1600 792.0000 1.0000
20.1700 864.0000 1.0000
20.1800 805.0000 1.0000
20.1900 829.0000 1.0000
20.2000 810.0000 1.0000
20.2100 812.0000 1.0000
20.2200 802.0000 1.0000
20.2300 823.0000 1.0000
20.2400 826.0000 1.0000
20.2500 829.0000 1.0000
20.2600 834.0000 1.0000
20.2700 830.0000 1.0000
20.2800 805.0000 1.0000
20.2900 816.0000 1.0000
20.3000 843.0000 1.0000
20.3100 851.0000 1.0000
20.3200 822.0000 1.0000
20.3300 823.0000 1.0000
20.3400 829.0000 1.0000
20.3500 791.0000 1.0000
20.3600 850.0000 1.0000
20.3700 855.0000 1.0000
20.3800 826.0000 1.0000
20.3900 788.0000 1.0000
20.4000 833.0000 1.0000
20.4100 808.0000 1.0000
20.4200 814.0000 1.0000
20.4300 761.0000 1.0000
20.4400 817.0000 1.0000
20.4500 779.0000 1.0000
20.4600 855.0000 1.0000
20.4700 844.0000 1.0000
20.4800 817.0000 1.0000
20.4900 806.0000 1.0000
20.5000 826.0000 1.0000
20.5100 829.0000 1.0000
20.5200 758.0000 1.0000
20.5300 805.0000 1.0000
20.5400 831.0000 1.0000
20.5500 795.0000 1.0000
20.5600 837.0000 1.0000
20.5700 830.0000 1.0000
20.5800 850.0000 1.0000
20.5900 801.0000 1.0000
20.6000 816.0000 1.0000
20.6100 838.0000 1.0000
20.6200 806.0000 1.0000
20.6300 805.0000 1.0000
20.6400 803.0000 1.0000
20.6500 860.0000 1.0000
20.6600 839.0000 1.0000
20.6700 848.0000 1.0000
20.6800 791.0000 1.0000
20.6900 782.0000 1.0000
20.7000 802.0000 1.0000
20.7100 782.0000 1.0000
20.7200 786.0000 1.0000
20.7300 778.0000 1.0000
20.7400 798.0000 1.0000
20.7500 859.0000 1.0000
20.7600 823.0000 1.0000
20.7700 810.0000 1.0000
20.7800 812.0000 1.0000
20.7900 842.0000 1.0000
20.8000 812.0000 1.0000
20.8100 839.0000 1.0000
20.8200 836.0000 1.0000
20.8300 820.0000 1.0000
20.8400 815.0000 1.0000
20.8500 856.0000 1.0000
20.8600 817.0000 1.0000
20.8700 842.0000 1.0000
20.8800 857.0000 1.0000
20.8900 783.0000 1.0000
20.9000 786.0000 1.0000
20.9100 792.0000 1.0000
20.9200 896.0000 1.0000
20.9300 822.0000 1.0000
20.9400 809.0000 1.0000
20.9500 817.0000 1.0000
20.9600 784.0000 1.0000
20.9700 819.0000 1.0000
20.9800 794.0000 1.0000
20.9900 807.0000 1.0000
21.0000 818.0000 1.0000
21.0100 845.0000 1.0000
21.0200 824.0000 1.0000
21.0300 777.0000 1.0000
21.0400 828.0000 1.0000
21.0500 833.0000 1.0000
21.0600 806.0000 1.0000
21.0700 895.0000 1.0000
21.0800 787.0000 1.0000
21.0900 836.0000 1.0000
21.1000 816.0000 1.0000
21.1100 773.0000 1.0000
21.1200 798.0000 1.0000
21.1300 861.0000 1.0000
21.1400 856.0000 1.0000
21.1500 794.0000 1.0000
21.1600 843.0000 1.0000
21.1700 836.0000 1.0000
21.1800 815.0000 1.0000
21.1900 785.0000 1.0000
21.2000 818.0000 1.0000
21.2100 843.0000 1.0000
21.2200 773.0000 1.0000
21.2300 804.0000 1.0000
21.2400 786.0000 1.0000
21.2500 823.0000 1.0000
21.2600 818.0000 1.0000
21.2700 762.0000 1.0000
21.2800 772.0000 1.0000
21.2900 834.0000 1.0000
21.3000 823.0000 1.0000
21.3100 836.0000 1.0000
21.3200 813.0000 1.0000
21.3300 809.0000 1.0000
21.3400 796.0000 1.0000
21.3500 845.0000 1.0000
21.3600 846.0000 1.0000
21.3700 805.0000 1.0000
21.3800 772.0000 1.0000
21.3900 849.0000 1.0000
21.4000 794.0000 1.0000
21.4100 799.0000 1.0000
21.4200 830.0000 1.0000
21.4300 814.0000 1.0000
21.4400 825.0000 1.0000
21.4500 808.0000 1.0000
21.4600 801.0000 1.0000
21.4700 839.0000 1.0000
21.4800 789.0000 1.0000
21.4900 810.0000 1.0000
21.5000 782.0000 1.0000
21.5100 806.0000 1.0000
21.5200 807.0000 1.0000
21.5300 801.0000 1.0000
21.5400 755.0000 1.0000
21.5500 806.0000 1.0000
21.5600 805.0000 1.0000
21.5700 811.0000 1.0000
21.5800 784.0000 1.0000
21.5900 810.0000 1.0000
21.6000 812.0000 1.0000
21.6100 828.0000 1.0000
21.6200 793.0000 1.0000
21.6300 820.0000 1.0000
21.6400 815.0000 1.0000
21.6500 820.0000 1.0000
21.6600 863.0000 1.0000
21.6700 855.0000 1.0000
21.6800 817.0000 1.0000
21.6900 836.0000 1.0000
21.7000 809.0000 1.0000
21.7100 792.0000 1.0000
21.7200 829.0000 1.0000
21.7300 764.0000 1.0000
21.7400 782.0000 1.0000
21.7500 826.0000 1.0000
21.7600 832.0000 1.0000
21.7700 815.0000 1.0000
21.7800 793.0000 1.0000
21.7900 788.0000 1.0000
21.8000 788.0000 1.0000
21.8100 827.0000 1.0000
21.8200 858.0000 1.0000
21.8300 781.0000 1.0000
21.8400 800.0000 1.0000
21.8500 776.0000 1.0000
21.8600 797.0000 1.0000
21.8700 801.0000 1.0000
21.8800 782.0000 1.0000
21.8900 798.0000 1.0000
21.9000 823.0000 1.0000
21.9100 798.0000 1.0000
21.9200 794.0000 1.0000
21.9300 847.0000 1.0000
21.9400 814.0000 1.0000
21.9500 820.0000 1.0000
21.9600 817.0000 1.0000
21.9700 825.0000 1.0000
21.9800 824.0000 1.0000
21.9900 775.0000 1.0000
22.0000 814.0000 1.0000
22.0100 826.0000 1.0000
22.0200 806.0000 1.0000
22.0300 798.0000 1.0000
22.0400 787.0000 1.0000
22.0500 793.0000 1.0000
22.0600 836.0000 1.0000
22.0700 821.0000 1.0000
22.0800 824.0000 1.0000
22.0900 801.0000 1.0000
22.1000 836.0000 1.0000
22.1100 825.0000 1.0000
22.1200 799.0000 1.0000
22.1300 796.0000 1.0000
22.1400 812.0000 1.0000
22.1500 824.0000 1.0000
22.1600 821.0000 1.0000
22.1700 789.0000 1.0000
22.1800 767.0000 1.0000
22.1900 815.0000 1.0000
22.2000 813.0000 1.0000
22.2100 838.0000 1.0000
22.2200 795.0000 1.0000
22.2300 788.0000 1.0000
22.2400 810.0000 1.0000
22.2500 781.0000 1.0000
22.2600 790.0000 1.0000
22.2700 792.0000 1.0000
22.2800 809.0000 1.0000
22.2900 813.0000 1.0000
22.3000 803.0000 1.0000
22.3100 807.0000 1.0000
22.3200 814.0000 1.0000
22.3300 826.0000 1.0000
22.3400 751.0000 1.0000
22.3500 848.0000 1.0000
22.3600 803.0000 1.0000
22.3700 847.0000 1.0000
22.3800 796.0000 1.0000
22.3900 821.0000 1.0000
22.4000 805.0000 1.0000
22.4100 801.0000 1.0000
22.4200 803.0000 1.0000
22.4300 804.0000 1.0000
22.4400 803.0000 1.0000
22.4500 861.0000 1.0000
22.4600 788.0000 1.0000
22.4700 825.0000 1.0000
22.4800 833.0000 1.0000
22.4900 790.0000 1.0000
22.5000 794.0000 1.0000
22.5100 817.0000 1.0000
22.5200 791.0000 1.0000
22.5300 763.0000 1.0000
22.5400 830.0000 1.0000
22.5500 836.0000 1.0000
22.5600 815.0000 1.0000
22.5700 781.0000 1.0000
22.5800 761.0000 1.0000
22.5900 731.0000 1.0000
22.6000 787.0000 1.0000
22.6100 787.0000 1.0000
22.6200 776.0000 1.0000
22.6300 775.0000 1.0000
22.6400 771.0000 1.0000
22.6500 773.0000 1.0000
22.6600 764.0000 1.0000
22.6700 779.0000 1.0000
22.6800 804.0000 1.0000
22.6900 825.0000 1.0000
22.7000 778.0000 1.0000
22.7100 817.0000 1.0000
22.7200 821.0000 1.0000
22.7300 821.0000 1.0000
22.7400 805.0000 1.0000
22.7500 796.0000 1.0000
22.7600 755.0000 1.0000
22.7700 789.0000 1.0000
22.7800 795.0000 1.0000
22.7900 810.0000 1.0000
22.8000 798.0000 1.0000
22.8100 776.0000 1.0000
22.8200 781.0000 1.0000
22.8300 798.0000 1.0000
22.8400 759.0000 1.0000
22.8500 785.0000 1.0000
22.8600 776.0000 1.0000
22.8700 820.0000 1.0000
22.8800 815.0000 1.0000
22.8900 824.0000 1.0000
22.9000 821.0000 1.0000
22.9100 793.0000 1.0000
22.9200 779.0000 1.0000
22.9300 839.0000 1.0000
22.9400 846.0000 1.0000
22.9500 792.0000 1.0000
22.9600 794.0000 1.0000
22.9700 790.0000 1.0000
22.9800 791.0000 1.0000
22.9900 811.0000 1.0000
23.0000 833.0000 1.0000
23.0100 743.0000 1.0000
23.0200 796.0000 1.0000
23.0300 784.0000 1.0000
23.0400 780.0000 1.0000
23.0500 798.0000 1.0000
23.0600 821.0000 1.0000
23.0700 850.0000 1.0000
23.0800 765.0000 1.0000
23.0900 805.0000 1.0000
23.1000 793.0000 1.0000
23.1100 821.0000 1.0000
23.1200 828.0000 1.0000
23.1300 815.0000 1.0000
23.1400 803.0000 1.0000
23.1500 756.0000 1.0000
23.1600 795.0000 1.0000
23.1700 733.0000 1.0000
23.1800 776.0000 1.0000
23.1900 837.0000 1.0000
23.2000 719.0000 1.0000
23.2100 795.0000 1.0000
23.2200 804.0000 1.0000
23.2300 843.0000 1.0000
23.2400 838.0000 1.0000
23.2500 784.0000 1.0000
23.2600 749.0000 1.0000
23.2700 783.0000 1.0000
23.2800 819.0000 1.0000
23.2900 741.0000 1.0000
23.3000 765.0000 1.0000
23.3100 725.0000 1.0000
23.3200 756.0000 1.0000
23.3300 777.0000 1.0000
23.3400 791.0000 1.0000
23.3500 765.0000 1.0000
23.3600 798.0000 1.0000
23.3700 781.0000 1.0000
23.3800 769.0000 1.0000
23.3900 753.0000 1.0000
23.4000 799.0000 1.0000
23.4100 835.0000 1.0000
23.4200 789.0000 1.0000
23.4300 773.0000 1.0000
23.4400 818.0000 1.0000
23.4500 795.0000 1.0000
23.4600 780.0000 1.0000
23.4700 818.0000 1.0000
23.4800 778.0000 1.0000
23.4900 775.0000 1.0000
23.5000 780.0000 1.0000
23.5100 763.0000 1.0000
23.5200 705.0000 1.0000
23.5300 763.0000 1.0000
23.5400 786.0000 1.0000
23.5500 733.0000 1.0000
23.5600 804.0000 1.0000
23.5700 773.0000 1.0000
23.5800 765.0000 1.0000
23.5900 749.0000 1.0000
23.6000 786.0000 1.0000
23.6100 798.0000 1.0000
23.6200 805.0000 1.0000
23.6300 787.0000 1.0000
23.6400 758.0000 1.0000
23.6500 782.0000 1.0000
23.6600 801.0000 1.0000
23.6700 830.0000 1.0000
23.6800 805.0000 1.0000
23.6900 800.0000 1.0000
23.7000 796.0000 1.0000
23.7100 793.0000 1.0000
23.7200 800.0000 1.0000
23.7300 766.0000 1.0000
23.7400 740.0000 1.0000
23.7500 803.0000 1.0000
23.7600 789.0000 1.0000
23.7700 794.0000 1.0000
23.7800 784.0000 1.0000
23.7900 797.0000 1.0000
23.8000 779.0000 1.0000
23.8100 806.0000 1.0000
23.8200 823.0000 1.0000
23.8300 766.0000 1.0000
23.8400 794.0000 1.0000
23.8500 781.0000 1.0000
23.8600 786.0000 1.0000
23.8700 828.0000 1.0000
23.8800 783.0000 1.0000
23.8900 778.0000 1.0000
23.9000 780.0000 1.0000
23.9100 801.0000 1.0000
23.9200 809.0000 1.0000
23.9300 822.0000 1.0000
23.9400 795.0000 1.0000
23.9500 776.0000 1.0000
23.9600 817.0000 1.0000
23.9700 811.0000 1.0000
23.9800 761.0000 1.0000
23.9900 788.0000 1.0000
24.0000 834.0000 1.0000
24.0100 847.0000 1.0000
24.0200 821.0000 1.0000
24.0300 849.0000 1.0000
24.0400 887.0000 1.0000
24.0500 797.0000 1.0000
24.0600 793.0000 1.0000
24.0700 794.0000 1.0000
24.0800 816.0000 1.0000
24.0900 815.0000 1.0000
24.1000 803.0000 1.0000
24.1100 832.0000 1.0000
24.1200 858.0000 1.0000
24.1300 848.0000 1.0000
24.1400 830.0000 1.0000
24.1500 848.0000 1.0000
24.1600 802.0000 1.0000
24.1700 824.0000 1.0000
24.1800 846.0000 1.0000
24.1900 880.0000 1.0000
24.2000 863.0000 1.0000
24.2100 840.0000 1.0000
24.2200 832.0000 1.0000
24.2300 844.0000 1.0000
24.2400 810.0000 1.0000
24.2500 816.0000 1.0000
24.2600 803.0000 1.0000
24.2700 826.0000 1.0000
24.2800 839.0000 1.0000
24.2900 805.0000 1.0000
24.3000 819.0000 1.0000
24.3100 770.0000 1.0000
24.3200 765.0000 1.0000
24.3300 812.0000 1.0000
24.3400 759.0000 1.0000
24.3500 827.0000 1.0000
24.3600 811.0000 1.0000
24.3700 802.0000 1.0000
24.3800 771.0000 1.0000
24.3900 732.0000 1.0000
24.4000 745.0000 1.0000
24.4100 823.0000 1.0000
24.4200 810.0000 1.0000
24.4300 810.0000 1.0000
24.4400 794.0000 1.0000
24.4500 801.0000 1.0000
24.4600 759.0000 1.0000
24.4700 753.0000 1.0000
24.4800 749.0000 1.0000
24.4900 757.0000 1.0000
24.5000 771.0000 1.0000
24.5100 769.0000 1.0000
24.5200 789.0000 1.0000
24.5300 783.0000 1.0000
24.5400 747.0000 1.0000
24.5500 747.0000 1.0000
24.5600 796.0000 1.0000
24.5700 764.0000 1.0000
24.5800 765.0000 1.0000
24.5900 782.0000 1.0000
24.6000 763.0000 1.0000
24.6100 767.0000 1.0000
24.6200 801.0000 1.0000
24.6300 808.0000 1.0000
24.6400 762.0000 1.0000
24.6500 755.0000 1.0000
24.6600 796.0000 1.0000
24.6700 774.0000 1.0000
24.6800 788.0000 1.0000
24.6900 798.0000 1.0000
24.7000 790.0000 1.0000
24.7100 778.0000 1.0000
24.7200 762.0000 1.0000
24.7300 796.0000 1.0000
24.7400 809.0000 1.0000
24.7500 789.0000 1.0000
24.7600 695.0000 1.0000
24.7700 727.0000 1.0000
24.7800 733.0000 1.0000
24.7900 780.0000 1.0000
24.8000 752.0000 1.0000
24.8100 786.0000 1.0000
24.8200 791.0000 1.0000
24.8300 749.0000 1.0000
24.8400 781.0000 1.0000
24.8500 762.0000 1.0000
24.8600 767.0000 1.0000
24.8700 740.0000 1.0000
24.8800 726.0000 1.0000
24.8900 757.0000 1.0000
24.9000 755.0000 1.0000
24.9100 715.0000 1.0000
24.9200 771.0000 1.0000
24.9300 773.0000 1.0000
24.9400 790.0000 1.0000
24.9500 740.0000 1.0000
24.9600 770.0000 1.0000
24.9700 802.0000 1.0000
24.9800 771.0000 1.0000
24.9900 795.0000 1.0000
25.0000 768.0000 1.0000
25.0100 788.0000 1.0000
25.0200 767.0000 1.0000
25.0300 762.0000 1.0000
25.0400 767.0000 1.0000
25.0500 752.0000 1.0000
25.0600 725.0000 1.0000
25.0700 774.0000 1.0000
25.0800 747.0000 1.0000
25.0900 731.0000 1.0000
25.1000 760.0000 1.0000
25.1100 800.0000 1.0000
25.1200 811.0000 1.0000
25.1300 764.0000 1.0000
25.1400 800.0000 1.0000
25.1500 745.0000 1.0000
25.1600 741.0000 1.0000
25.1700 769.0000 1.0000
25.1800 767.0000 1.0000
25.1900 715.0000 1.0000
25.2000 739.0000 1.0000
25.2100 759.0000 1.0000
25.2200 756.0000 1.0000
25.2300 762.0000 1.0000
25.2400 738.0000 1.0000
25.2500 750.0000 1.0000
25.2600 765.0000 1.0000
25.2700 749.0000 1.0000
25.2800 740.0000 1.0000
25.2900 750.0000 1.0000
25.3000 740.0000 1.0000
25.3100 780.0000 1.0000
25.3200 755.0000 1.0000
25.3300 763.0000 1.0000
25.3400 778.0000 1.0000
25.3500 740.0000 1.0000
25.3600 730.0000 1.0000
25.3700 717.0000 1.0000
25.3800 753.0000 1.0000
25.3900 740.0000 1.0000
25.4000 763.0000 1.0000
25.4100 760.0000 1.0000
25.4200 770.0000 1.0000
25.4300 769.0000 1.0000
25.4400 737.0000 1.0000
25.4500 717.0000 1.0000
25.4600 772.0000 1.0000
25.4700 740.0000 1.0000
25.4800 802.0000 1.0000
25.4900 822.0000 1.0000
25.5000 756.0000 1.0000
25.5100 792.0000 1.0000
25.5200 755.0000 1.0000
25.5300 725.0000 1.0000
25.5400 748.0000 1.0000
25.5500 736.0000 1.0000
25.5600 776.0000 1.0000
25.5700 793.0000 1.0000
25.5800 791.0000 1.0000
25.5900 757.0000 1.0000
25.6000 778.0000 1.0000
25.6100 779.0000 1.0000
25.6200 795.0000 1.0000
25.6300 782.0000 1.0000
25.6400 806.0000 1.0000
25.6500 778.0000 1.0000
25.6600 769.0000 1.0000
25.6700 762.0000 1.0000
25.6800 756.0000 1.0000
25.6900 764.0000 1.0000
25.7000 798.0000 1.0000
25.7100 807.0000 1.0000
25.7200 776.0000 1.0000
25.7300 787.0000 1.0000
25.7400 782.0000 1.0000
25.7500 769.0000 1.0000
25.7600 765.0000 1.0000
25.7700 765.0000 1.0000
25.7800 788.0000 1.0000
25.7900 738.0000 1.0000
25.8000 776.0000 1.0000
25.8100 782.0000 1.0000
25.8200 796.0000 1.0000
25.8300 811.0000 1.0000
25.8400 835.0000 1.0000
25.8500 745.0000 1.0000
25.8600 757.0000 1.0000
25.8700 809.0000 1.0000
25.8800 797.0000 1.0000
25.8900 764.0000 1.0000
25.9000 825.0000 1.0000
25.9100 787.0000 1.0000
25.9200 801.0000 1.0000
25.9300 793.0000 1.0000
25.9400 758.0000 1.0000
25.9500 789.0000 1.0000
25.9600 855.0000 1.0000
25.9700 840.0000 1.0000
25.9800 779.0000 1.0000
25.9900 798.0000 1.0000
26.0000 780.0000 1.0000
26.0100 794.0000 1.0000
26.0200 819.0000 1.0000
26.0300 820.0000 1.0000
26.0400 842.0000 1.0000
26.0500 844.0000 1.0000
26.0600 887.0000 1.0000
26.0700 817.0000 1.0000
26.0800 880.0000 1.0000
26.0900 878.0000 1.0000
26.1000 903.0000 1.0000
26.1100 914.0000 1.0000
26.1200 906.0000 1.0000
26.1300 945.0000 1.0000
26.1400 897.0000 1.0000
26.1500 959.0000 1.0000
26.1600 989.0000 1.0000
26.1700 1016.0000 1.0000
26.1800 981.0000 1.0000
26.1900 1016.0000 1.0000
26.2000 1083.0000 1.0000
26.2100 1087.0000 1.0000
26.2200 1106.0000 1.0000
26.2300 1114.0000 1.0000
26.2400 1144.0000 1.0000
26.2500 1170.0000 1.0000
26.2600 1200.0000 1.0000
26.2700 1230.0000 1.0000
26.2800 1256.0000 1.0000
26.2900 1315.0000 1.0000
26.3000 1306.0000 1.0000
26.3100 1418.0000 1.0000
26.3200 1462.0000 1.0000
26.3300 1566.0000 1.0000
26.3400 1677.0000 1.0000
26.3500 1788.0000 1.0000
26.3600 1845.0000 1.0000
26.3700 1910.0000 1.0000
26.3800 2037.0000 1.0000
26.3900 2054.0000 1.0000
26.4000 2229.0000 1.0000
26.4100 2338.0000 1.0000
26.4200 2447.0000 1.0000
26.4300 2559.0000 1.0000
26.4400 2709.0000 1.0000
26.4500 2812.0000 1.0000
26.4600 2701.0000 1.0000
26.4700 2821.0000 1.0000
26.4800 2722.0000 1.0000
26.4900 2711.0000 1.0000
26.5000 2699.0000 1.0000
26.5100 2543.0000 1.0000
26.5200 2400.0000 1.0000
26.5300 2333.0000 1.0000
26.5400 2224.0000 1.0000
26.5500 2086.0000 1.0000
26.5600 2029.0000 1.0000
26.5700 1862.0000 1.0000
26.5800 1800.0000 1.0000
26.5900 1641.0000 1.0000
26.6000 1603.0000 1.0000
26.6100 1490.0000 1.0000
26.6200 1408.0000 1.0000
26.6300 1337.0000 1.0000
26.6400 1351.0000 1.0000
26.6500 1316.0000 1.0000
26.6600 1240.0000 1.0000
26.6700 1216.0000 1.0000
26.6800 1131.0000 1.0000
26.6900 1135.0000 1.0000
26.7000 1104.0000 1.0000
26.7100 1084.0000 1.0000
26.7200 1085.0000 1.0000
26.7300 1022.0000 1.0000
26.7400 1018.0000 1.0000
26.7500 951.0000 1.0000
26.7600 988.0000 1.0000
26.7700 901.0000 1.0000
26.7800 910.0000 1.0000
26.7900 893.0000 1.0000
26.8000 902.0000 1.0000
26.8100 884.0000 1.0000
26.8200 869.0000 1.0000
26.8300 869.0000 1.0000
26.8400 829.0000 1.0000
26.8500 859.0000 1.0000
26.8600 804.0000 1.0000
26.8700 808.0000 1.0000
26.8800 826.0000 1.0000
26.8900 863.0000 1.0000
26.9000 795.0000 1.0000
26.9100 794.0000 1.0000
26.9200 799.0000 1.0000
26.9300 790.0000 1.0000
26.9400 783.0000 1.0000
26.9500 793.0000 1.0000
26.9600 757.0000 1.0000
26.9700 749.0000 1.0000
26.9800 762.0000 1.0000
26.9900 752.0000 1.0000
27.0000 784.0000 1.0000
27.0100 801.0000 1.0000
27.0200 777.0000 1.0000
27.0300 780.0000 1.0000
27.0400 775.0000 1.0000
27.0500 724.0000 1.0000
27.0600 756.0000 1.0000
27.0700 757.0000 1.0000
27.0800 735.0000 1.0000
27.0900 703.0000 1.0000
27.1000 710.0000 1.0000
27.1100 738.0000 1.0000
27.1200 769.0000 1.0000
27.1300 704.0000 1.0000
27.1400 684.0000 1.0000
27.1500 711.0000 1.0000
27.1600 728.0000 1.0000
27.1700 743.0000 1.0000
27.1800 710.0000 1.0000
27.1900 726.0000 1.0000
27.2000 758.0000 1.0000
27.2100 759.0000 1.0000
27.2200 709.0000 1.0000
27.2300 709.0000 1.0000
27.2400 672.0000 1.0000
27.2500 683.0000 1.0000
27.2600 716.0000 1.0000
27.2700 696.0000 1.0000
27.2800 716.0000 1.0000
27.2900 723.0000 1.0000
27.3000 693.0000 1.0000
27.3100 704.0000 1.0000
27.3200 721.0000 1.0000
27.3300 732.0000 1.0000
27.3400 709.0000 1.0000
27.3500 702.0000 1.0000
27.3600 690.0000 1.0000
27.3700 677.0000 1.0000
27.3800 751.0000 1.0000
27.3900 752.0000 1.0000
27.4000 717.0000 1.0000
27.4100 662.0000 1.0000
27.4200 701.0000 1.0000
27.4300 709.0000 1.0000
27.4400 714.0000 1.0000
27.4500 696.0000 1.0000
27.4600 740.0000 1.0000
27.4700 698.0000 1.0000
27.4800 702.0000 1.0000
27.4900 685.0000 1.0000
27.5000 678.0000 1.0000
27.5100 691.0000 1.0000
27.5200 673.0000 1.0000
27.5300 668.0000 1.0000
27.5400 703.0000 1.0000
27.5500 680.0000 1.0000
27.5600 715.0000 1.0000
27.5700 718.0000 1.0000
27.5800 731.0000 1.0000
27.5900 721.0000 1.0000
27.6000 695.0000 1.0000
27.6100 710.0000 1.0000
27.6200 707.0000 1.0000
27.6300 710.0000 1.0000
27.6400 692.0000 1.0000
27.6500 682.0000 1.0000
27.6600 719.0000 1.0000
27.6700 739.0000 1.0000
27.6800 720.0000 1.0000
27.6900 687.0000 1.0000
27.7000 663.0000 1.0000
27.7100 706.0000 1.0000
27.7200 723.0000 1.0000
27.7300 714.0000 1.0000
27.7400 680.0000 1.0000
27.7500 666.0000 1.0000
27.7600 712.0000 1.0000
27.7700 678.0000 1.0000
27.7800 633.0000 1.0000
27.7900 678.0000 1.0000
27.8000 667.0000 1.0000
27.8100 632.0000 1.0000
27.8200 693.0000 1.0000
27.8300 669.0000 1.0000
27.8400 651.0000 1.0000
27.8500 652.0000 1.0000
27.8600 716.0000 1.0000
27.8700 706.0000 1.0000
27.8800 650.0000 1.0000
27.8900 639.0000 1.0000
27.9000 673.0000 1.0000
27.9100 683.0000 1.0000
27.9200 669.0000 1.0000
27.9300 652.0000 1.0000
27.9400 657.0000 1.0000
27.9500 683.0000 1.0000
27.9600 692.0000 1.0000
27.9700 651.0000 1.0000
27.9800 688.0000 1.0000
27.9900 638.0000 1.0000
28.0000 645.0000 1.0000
28.0100 675.0000 1.0000
28.0200 691.0000 1.0000
28.0300 637.0000 1.0000
28.0400 641.0000 1.0000
28.0500 678.0000 1.0000
28.0600 687.0000 1.0000
28.0700 650.0000 1.0000
28.0800 615.0000 1.0000
28.0900 633.0000 1.0000
28.1000 687.0000 1.0000
28.1100 693.0000 1.0000
28.1200 695.0000 1.0000
28.1300 666.0000 1.0000
28.1400 680.0000 1.0000
28.1500 654.0000 1.0000
28.1600 652.0000 1.0000
28.1700 632.0000 1.0000
28.1800 656.0000 1.0000
28.1900 647.0000 1.0000
28.2000 661.0000 1.0000
28.2100 628.0000 1.0000
28.2200 630.0000 1.0000
28.2300 660.0000 1.0000
28.2400 675.0000 1.0000
28.2500 642.0000 1.0000
28.2600 634.0000 1.0000
28.2700 647.0000 1.0000
28.2800 635.0000 1.0000
28.2900 656.0000 1.0000
28.3000 657.0000 1.0000
28.3100 685.0000 1.0000
28.3200 697.0000 1.0000
28.3300 656.0000 1.0000
28.3400 646.0000 1.0000
28.3500 653.0000 1.0000
28.3600 654.0000 1.0000
28.3700 620.0000 1.0000
28.3800 627.0000 1.0000
28.3900 643.0000 1.0000
28.4000 649.0000 1.0000
28.4100 601.0000 1.0000
28.4200 624.0000 1.0000
28.4300 632.0000 1.0000
28.4400 654.0000 1.0000
28.4500 610.0000 1.0000
28.4600 646.0000 1.0000
28.4700 657.0000 1.0000
28.4800 654.0000 1.0000
28.4900 626.0000 1.0000
28.5000 635.0000 1.0000
28.5100 690.0000 1.0000
28.5200 657.0000 1.0000
28.5300 634.0000 1.0000
28.5400 652.0000 1.0000
28.5500 668.0000 1.0000
28.5600 660.0000 1.0000
28.5700 648.0000 1.0000
28.5800 671.0000 1.0000
28.5900 660.0000 1.0000
28.6000 597.0000 1.0000
28.6100 619.0000 1.0000
28.6200 593.0000 1.0000
28.6300 644.0000 1.0000
28.6400 678.0000 1.0000
28.6500 625.0000 1.0000
28.6600 652.0000 1.0000
28.6700 637.0000 1.0000
28.6800 663.0000 1.0000
28.6900 661.0000 1.0000
28.7000 603.0000 1.0000
28.7100 593.0000 1.0000
28.7200 608.0000 1.0000
28.7300 617.0000 1.0000
28.7400 656.0000 1.0000
28.7500 653.0000 1.0000
28.7600 633.0000 1.0000
28.7700 704.0000 1.0000
28.7800 651.0000 1.0000
28.7900 656.0000 1.0000
28.8000 678.0000 1.0000
28.8100 637.0000 1.0000
28.8200 636.0000 1.0000
28.8300 633.0000 1.0000
28.8400 660.0000 1.0000
28.8500 632.0000 1.0000
28.8600 632.0000 1.0000
28.8700 633.0000 1.0000
28.8800 663.0000 1.0000
28.8900 648.0000 1.0000
28.9000 608.0000 1.0000
28.9100 617.0000 1.0000
28.9200 645.0000 1.0000
28.9300 630.0000 1.0000
28.9400 681.0000 1.0000
28.9500 636.0000 1.0000
28.9600 650.0000 1.0000
28.9700 671.0000 1.0000
28.9800 623.0000 1.0000
28.9900 636.0000 1.0000
29.0000 629.0000 1.0000
29.0100 643.0000 1.0000
29.0200 643.0000 1.0000
29.0300 642.0000 1.0000
29.0400 641.0000 1.0000
29.0500 622.0000 1.0000
29.0600 626.0000 1.0000
29.0700 641.0000 1.0000
29.0800 652.0000 1.0000
29.0900 647.0000 1.0000
29.1000 634.0000 1.0000
29.1100 653.0000 1.0000
29.1200 612.0000 1.0000
29.1300 629.0000 1.0000
29.1400 632.0000 1.0000
29.1500 644.0000 1.0000
29.1600 649.0000 1.0000
29.1700 621.0000 1.0000
29.1800 587.0000 1.0000
29.1900 616.0000 1.0000
29.2000 595.0000 1.0000
29.2100 617.0000 1.0000
29.2200 622.0000 1.0000
29.2300 589.0000 1.0000
29.2400 632.0000 1.0000
29.2500 639.0000 1.0000
29.2600 620.0000 1.0000
29.2700 604.0000 1.0000
29.2800 596.0000 1.0000
29.2900 595.0000 1.0000
29.3000 646.0000 1.0000
29.3100 621.0000 1.0000
29.3200 660.0000 1.0000
29.3300 610.0000 1.0000
29.3400 645.0000 1.0000
29.3500 627.0000 1.0000
29.3600 660.0000 1.0000
29.3700 628.0000 1.0000
29.3800 650.0000 1.0000
29.3900 635.0000 1.0000
29.4000 651.0000 1.0000
29.4100 626.0000 1.0000
29.4200 641.0000 1.0000
29.4300 652.0000 1.0000
29.4400 615.0000 1.0000
29.4500 586.0000 1.0000
29.4600 584.0000 1.0000
29.4700 671.0000 1.0000
29.4800 651.0000 1.0000
29.4900 609.0000 1.0000
29.5000 620.0000 1.0000
29.5100 572.0000 1.0000
29.5200 622.0000 1.0000
29.5300 590.0000 1.0000
29.5400 619.0000 1.0000
29.5500 622.0000 1.0000
29.5600 611.0000 1.0000
29.5700 648.0000 1.0000
29.5800 609.0000 1.0000
29.5900 632.0000 1.0000
29.6000 590.0000 1.0000
29.6100 619.0000 1.0000
29.6200 591.0000 1.0000
29.6300 621.0000 1.0000
29.6400 611.0000 1.0000
29.6500 613.0000 1.0000
29.6600 621.0000 1.0000
29.6700 597.0000 1.0000
29.6800 639.0000 1.0000
29.6900 629.0000 1.0000
29.7000 600.0000 1.0000
29.7100 570.0000 1.0000
29.7200 631.0000 1.0000
29.7300 596.0000 1.0000
29.7400 616.0000 1.0000
29.7500 602.0000 1.0000
29.7600 637.0000 1.0000
29.7700 669.0000 1.0000
29.7800 641.0000 1.0000
29.7900 613.0000 1.0000
29.8000 640.0000 1.0000
29.8100 612.0000 1.0000
29.8200 596.0000 1.0000
29.8300 592.0000 1.0000
29.8400 617.0000 1.0000
29.8500 603.0000 1.0000
29.8600 635.0000 1.0000
29.8700 577.0000 1.0000
29.8800 622.0000 1.0000
29.8900 692.0000 1.0000
29.9000 602.0000 1.0000
29.9100 605.0000 1.0000
29.9200 586.0000 1.0000
29.9300 588.0000 1.0000
29.9400 608.0000 1.0000
29.9500 588.0000 1.0000
29.9600 601.0000 1.0000
29.9700 594.0000 1.0000
29.9800 618.0000 1.0000
29.9900 597.0000 1.0000
30.0000 617.0000 1.0000
30.0100 625.0000 1.0000
30.0200 589.0000 1.0000
30.0300 625.0000 1.0000
30.0400 625.0000 1.0000
30.0500 637.0000 1.0000
30.0600 576.0000 1.0000
30.0700 561.0000 1.0000
30.0800 578.0000 1.0000
30.0900 611.0000 1.0000
30.1000 636.0000 1.0000
30.1100 595.0000 1.0000
30.1200 627.0000 1.0000
30.1300 585.0000 1.0000
30.1400 624.0000 1.0000
30.1500 607.0000 1.0000
30.1600 590.0000 1.0000
30.1700 573.0000 1.0000
30.1800 589.0000 1.0000
30.1900 596.0000 1.0000
30.2000 618.0000 1.0000
30.2100 590.0000 1.0000
30.2200 643.0000 1.0000
30.2300 597.0000 1.0000
30.2400 594.0000 1.0000
30.2500 614.0000 1.0000
30.2600 605.0000 1.0000
30.2700 591.0000 1.0000
30.2800 591.0000 1.0000
30.2900 568.0000 1.0000
30.3000 615.0000 1.0000
30.3100 598.0000 1.0000
30.3200 611.0000 1.0000
30.3300 588.0000 1.0000
30.3400 615.0000 1.0000
30.3500 621.0000 1.0000
30.3600 579.0000 1.0000
30.3700 572.0000 1.0000
30.3800 583.0000 1.0000
30.3900 615.0000 1.0000
30.4000 611.0000 1.0000
30.4100 568.0000 1.0000
30.4200 581.0000 1.0000
30.4300 593.0000 1.0000
30.4400 615.0000 1.0000
30.4500 613.0000 1.0000
30.4600 621.0000 1.0000
30.4700 598.0000 1.0000
30.4800 604.0000 1.0000
30.4900 604.0000 1.0000
30.5000 638.0000 1.0000
30.5100 582.0000 1.0000
30.5200 589.0000 1.0000
30.5300 542.0000 1.0000
30.5400 543.0000 1.0000
30.5500 629.0000 1.0000
30.5600 594.0000 1.0000
30.5700 607.0000 1.0000
30.5800 604.0000 1.0000
30.5900 592.0000 1.0000
30.6000 582.0000 1.0000
30.6100 556.0000 1.0000
30.6200 615.0000 1.0000
30.6300 589.0000 1.0000
30.6400 583.0000 1.0000
30.6500 595.0000 1.0000
30.6600 574.0000 1.0000
30.6700 597.0000 1.0000
30.6800 608.0000 1.0000
30.6900 585.0000 1.0000
30.7000 580.0000 1.0000
30.7100 609.0000 1.0000
30.7200 530.0000 1.0000
30.7300 571.0000 1.0000
30.7400 595.0000 1.0000
30.7500 586.0000 1.0000
30.7600 603.0000 1.0000
30.7700 587.0000 1.0000
30.7800 604.0000 1.0000
30.7900 606.0000 1.0000
30.8000 596.0000 1.0000
30.8100 611.0000 1.0000
30.8200 599.0000 1.0000
30.8300 562.0000 1.0000
30.8400 561.0000 1.0000
30.8500 554.0000 1.0000
30.8600 561.0000 1.0000
30.8700 573.0000 1.0000
30.8800 556.0000 1.0000
30.8900 565.0000 1.0000
30.9000 620.0000 1.0000
30.9100 615.0000 1.0000
30.9200 570.0000 1.0000
30.9300 585.0000 1.0000
30.9400 595.0000 1.0000
30.9500 589.0000 1.0000
30.9600 600.0000 1.0000
30.9700 612.0000 1.0000
30.9800 597.0000 1.0000
30.9900 597.0000 1.0000
31.0000 590.0000 1.0000
31.0100 566.0000 1.0000
31.0200 592.0000 1.0000
31.0300 601.0000 1.0000
31.0400 594.0000 1.0000
31.0500 594.0000 1.0000
31.0600 624.0000 1.0000
31.0700 608.0000 1.0000
31.0800 601.0000 1.0000
31.0900 610.0000 1.0000
31.1000 572.0000 1.0000
31.1100 583.0000 1.0000
31.1200 584.0000 1.0000
31.1300 589.0000 1.0000
31.1400 585.0000 1.0000
31.1500 578.0000 1.0000
31.1600 613.0000 1.0000
31.1700 579.0000 1.0000
31.1800 627.0000 1.0000
31.1900 614.0000 1.0000
31.2000 616.0000 1.0000
31.2100 567.0000 1.0000
31.2200 578.0000 1.0000
31.2300 591.0000 1.0000
31.2400 577.0000 1.0000
31.2500 601.0000 1.0000
31.2600 601.0000 1.0000
31.2700 604.0000 1.0000
31.2800 559.0000 1.0000
31.2900 574.0000 1.0000
31.3000 593.0000 1.0000
31.3100 584.0000 1.0000
31.3200 568.0000 1.0000
31.3300 559.0000 1.0000
31.3400 585.0000 1.0000
31.3500 600.0000 1.0000
31.3600 592.0000 1.0000
31.3700 583.0000 1.0000
31.3800 554.0000 1.0000
31.3900 573.0000 1.0000
31.4000 574.0000 1.0000
31.4100 595.0000 1.0000
31.4200 582.0000 1.0000
31.4300 566.0000 1.0000
31.4400 582.0000 1.0000
31.4500 579.0000 1.0000
31.4600 580.0000 1.0000
31.4700 553.0000 1.0000
31.4800 540.0000 1.0000
31.4900 577.0000 1.0000
31.5000 569.0000 1.0000
31.5100 527.0000 1.0000
31.5200 563.0000 1.0000
31.5300 534.0000 1.0000
31.5400 582.0000 1.0000
31.5500 582.0000 1.0000
31.5600 538.0000 1.0000
31.5700 536.0000 1.0000
31.5800 547.0000 1.0000
31.5900 549.0000 1.0000
31.6000 609.0000 1.0000
31.6100 552.0000 1.0000
31.6200 545.0000 1.0000
31.6300 575.0000 1.0000
31.6400 585.0000 1.0000
31.6500 534.0000 1.0000
31.6600 561.0000 1.0000
31.6700 577.0000 1.0000
31.6800 572.0000 1.0000
31.6900 602.0000 1.0000
31.7000 563.0000 1.0000
31.7100 577.0000 1.0000
31.7200 552.0000 1.0000
31.7300 541.0000 1.0000
31.7400 578.0000 1.0000
31.7500 590.0000 1.0000
31.7600 541.0000 1.0000
31.7700 524.0000 1.0000
31.7800 527.0000 1.0000
31.7900 541.0000 1.0000
31.8000 550.0000 1.0000
31.8100 546.0000 1.0000
31.8200 555.0000 1.0000
31.8300 575.0000 1.0000
31.8400 558.0000 1.0000
31.8500 575.0000 1.0000
31.8600 580.0000 1.0000
31.8700 547.0000 1.0000
31.8800 556.0000 1.0000
31.8900 558.0000 1.0000
31.9000 603.0000 1.0000
31.9100 521.0000 1.0000
31.9200 551.0000 1.0000
31.9300 568.0000 1.0000
31.9400 563.0000 1.0000
31.9500 528.0000 1.0000
31.9600 558.0000 1.0000
31.9700 577.0000 1.0000
31.9800 551.0000 1.0000
31.9900 574.0000 1.0000
32.0000 568.0000 1.0000
32.0100 568.0000 1.0000
32.0200 557.0000 1.0000
32.0300 584.0000 1.0000
32.0400 612.0000 1.0000
32.0500 555.0000 1.0000
32.0600 553.0000 1.0000
32.0700 528.0000 1.0000
32.0800 593.0000 1.0000
32.0900 542.0000 1.0000
32.1000 543.0000 1.0000
32.1100 549.0000 1.0000
32.1200 589.0000 1.0000
32.1300 550.0000 1.0000
32.1400 523.0000 1.0000
32.1500 524.0000 1.0000
32.1600 590.0000 1.0000
32.1700 582.0000 1.0000
32.1800 555.0000 1.0000
32.1900 509.0000 1.0000
32.2000 572.0000 1.0000
32.2100 572.0000 1.0000
32.2200 568.0000 1.0000
32.2300 569.0000 1.0000
32.2400 555.0000 1.0000
32.2500 534.0000 1.0000
32.2600 549.0000 1.0000
32.2700 523.0000 1.0000
32.2800 557.0000 1.0000
32.2900 584.0000 1.0000
32.3000 553.0000 1.0000
32.3100 536.0000 1.0000
32.3200 542.0000 1.0000
32.3300 564.0000 1.0000
32.3400 582.0000 1.0000
32.3500 554.0000 1.0000
32.3600 542.0000 1.0000
32.3700 552.0000 1.0000
32.3800 540.0000 1.0000
32.3900 509.0000 1.0000
32.4000 562.0000 1.0000
32.4100 513.0000 1.0000
32.4200 589.0000 1.0000
32.4300 550.0000 1.0000
32.4400 527.0000 1.0000
32.4500 537.0000 1.0000
32.4600 564.0000 1.0000
32.4700 573.0000 1.0000
32.4800 528.0000 1.0000
32.4900 537.0000 1.0000
32.5000 558.0000 1.0000
32.5100 560.0000 1.0000
32.5200 558.0000 1.0000
32.5300 527.0000 1.0000
32.5400 538.0000 1.0000
32.5500 567.0000 1.0000
32.5600 535.0000 1.0000
32.5700 532.0000 1.0000
32.5800 537.0000 1.0000
32.5900 557.0000 1.0000
32.6000 586.0000 1.0000
32.6100 559.0000 1.0000
32.6200 534.0000 1.0000
32.6300 591.0000 1.0000
32.6400 555.0000 1.0000
32.6500 543.0000 1.0000
32.6600 530.0000 1.0000
32.6700 503.0000 1.0000
32.6800 545.0000 1.0000
32.6900 533.0000 1.0000
32.7000 557.0000 1.0000
32.7100 584.0000 1.0000
32.7200 561.0000 1.0000
32.7300 542.0000 1.0000
32.7400 567.0000 1.0000
32.7500 595.0000 1.0000
32.7600 570.0000 1.0000
32.7700 583.0000 1.0000
32.7800 574.0000 1.0000
32.7900 551.0000 1.0000
32.8000 577.0000 1.0000
32.8100 540.0000 1.0000
32.8200 525.0000 1.0000
32.8300 591.0000 1.0000
32.8400 562.0000 1.0000
32.8500 553.0000 1.0000
32.8600 573.0000 1.0000
32.8700 565.0000 1.0000
32.8800 560.0000 1.0000
32.8900 549.0000 1.0000
32.9000 585.0000 1.0000
32.9100 607.0000 1.0000
32.9200 608.0000 1.0000
32.9300 582.0000 1.0000
32.9400 589.0000 1.0000
32.9500 602.0000 1.0000
32.9600 595.0000 1.0000
32.9700 608.0000 1.0000
32.9800 627.0000 1.0000
32.9900 644.0000 1.0000
33.0000 615.0000 1.0000
33.0100 591.0000 1.0000
33.0200 662.0000 1.0000
33.0300 649.0000 1.0000
33.0400 665.0000 1.0000
33.0500 649.0000 1.0000
33.0600 704.0000 1.0000
33.0700 674.0000 1.0000
33.0800 661.0000 1.0000
33.0900 653.0000 1.0000
33.1000 708.0000 1.0000
33.1100 646.0000 1.0000
33.1200 693.0000 1.0000
33.1300 693.0000 1.0000
33.1400 709.0000 1.0000
33.1500 722.0000 1.0000
33.1600 717.0000 1.0000
33.1700 674.0000 1.0000
33.1800 652.0000 1.0000
33.1900 654.0000 1.0000
33.2000 688.0000 1.0000
33.2100 663.0000 1.0000
33.2200 706.0000 1.0000
33.2300 652.0000 1.0000
33.2400 636.0000 1.0000
33.2500 618.0000 1.0000
33.2600 629.0000 1.0000
33.2700 635.0000 1.0000
33.2800 610.0000 1.0000
33.2900 613.0000 1.0000
33.3000 630.0000 1.0000
33.3100 629.0000 1.0000
33.3200 623.0000 1.0000
33.3300 619.0000 1.0000
33.3400 628.0000 1.0000
33.3500 609.0000 1.0000
33.3600 618.0000 1.0000
33.3700 618.0000 1.0000
33.3800 644.0000 1.0000
33.3900 630.0000 1.0000
33.4000 687.0000 1.0000
33.4100 646.0000 1.0000
33.4200 689.0000 1.0000
33.4300 647.0000 1.0000
33.4400 735.0000 1.0000
33.4500 703.0000 1.0000
33.4600 712.0000 1.0000
33.4700 735.0000 1.0000
33.4800 720.0000 1.0000
33.4900 743.0000 1.0000
33.5000 775.0000 1.0000
33.5100 776.0000 1.0000
33.5200 800.0000 1.0000
33.5300 823.0000 1.0000
33.5400 880.0000 1.0000
33.5500 893.0000 1.0000
33.5600 940.0000 1.0000
33.5700 1013.0000 1.0000
33.5800 964.0000 1.0000
33.5900 953.0000 1.0000
33.6000 1045.0000 1.0000
33.6100 1109.0000 1.0000
33.6200 1155.0000 1.0000
33.6300 1178.0000 1.0000
33.6400 1234.0000 1.0000
33.6500 1253.0000 1.0000
33.6600 1261.0000 1.0000
33.6700 1336.0000 1.0000
33.6800 1346.0000 1.0000
33.6900 1339.0000 1.0000
33.7000 1374.0000 1.0000
33.7100 1299.0000 1.0000
33.7200 1262.0000 1.0000
33.7300 1210.0000 1.0000
33.7400 1146.0000 1.0000
33.7500 1103.0000 1.0000
33.7600 1142.0000 1.0000
33.7700 1097.0000 1.0000
33.7800 1014.0000 1.0000
33.7900 993.0000 1.0000
33.8000 961.0000 1.0000
33.8100 901.0000 1.0000
33.8200 809.0000 1.0000
33.8300 796.0000 1.0000
33.8400 783.0000 1.0000
33.8500 782.0000 1.0000
33.8600 764.0000 1.0000
33.8700 723.0000 1.0000
33.8800 705.0000 1.0000
33.8900 710.0000 1.0000
33.9000 688.0000 1.0000
33.9100 690.0000 1.0000
33.9200 707.0000 1.0000
33.9300 646.0000 1.0000
33.9400 666.0000 1.0000
33.9500 614.0000 1.0000
33.9600 670.0000 1.0000
33.9700 641.0000 1.0000
33.9800 637.0000 1.0000
33.9900 598.0000 1.0000
34.0000 608.0000 1.0000
34.0100 655.0000 1.0000
34.0200 601.0000 1.0000
34.0300 599.0000 1.0000
34.0400 588.0000 1.0000
34.0500 574.0000 1.0000
34.0600 555.0000 1.0000
34.0700 583.0000 1.0000
34.0800 573.0000 1.0000
34.0900 545.0000 1.0000
34.1000 524.0000 1.0000
34.1100 527.0000 1.0000
34.1200 582.0000 1.0000
34.1300 531.0000 1.0000
34.1400 523.0000 1.0000
34.1500 527.0000 1.0000
34.1600 534.0000 1.0000
34.1700 545.0000 1.0000
34.1800 493.0000 1.0000
34.1900 540.0000 1.0000
34.2000 542.0000 1.0000
34.2100 503.0000 1.0000
34.2200 506.0000 1.0000
34.2300 528.0000 1.0000
34.2400 523.0000 1.0000
34.2500 506.0000 1.0000
34.2600 534.0000 1.0000
34.2700 536.0000 1.0000
34.2800 517.0000 1.0000
34.2900 508.0000 1.0000
34.3000 527.0000 1.0000
34.3100 520.0000 1.0000
34.3200 527.0000 1.0000
34.3300 497.0000 1.0000
34.3400 508.0000 1.0000
34.3500 549.0000 1.0000
34.3600 502.0000 1.0000
34.3700 516.0000 1.0000
34.3800 485.0000 1.0000
34.3900 487.0000 1.0000
34.4000 495.0000 1.0000
34.4100 510.0000 1.0000
34.4200 475.0000 1.0000
34.4300 508.0000 1.0000
34.4400 487.0000 1.0000
34.4500 505.0000 1.0000
34.4600 506.0000 1.0000
34.4700 520.0000 1.0000
34.4800 518.0000 1.0000
34.4900 511.0000 1.0000
34.5000 471.0000 1.0000
34.5100 486.0000 1.0000
34.5200 464.0000 1.0000
34.5300 512.0000 1.0000
34.5400 470.0000 1.0000
34.5500 485.0000 1.0000
34.5600 506.0000 1.0000
34.5700 499.0000 1.0000
34.5800 504.0000 1.0000
34.5900 488.0000 1.0000
34.6000 484.0000 1.0000
34.6100 475.0000 1.0000
34.6200 474.0000 1.0000
34.6300 462.0000 1.0000
34.6400 501.0000 1.0000
34.6500 513.0000 1.0000
34.6600 476.0000 1.0000
34.6700 507.0000 1.0000
34.6800 491.0000 1.0000
34.6900 487.0000 1.0000
34.7000 479.0000 1.0000
34.7100 517.0000 1.0000
34.7200 517.0000 1.0000
34.7300 491.0000 1.0000
34.7400 480.0000 1.0000
34.7500 475.0000 1.0000
34.7600 497.0000 1.0000
34.7700 479.0000 1.0000
34.7800 503.0000 1.0000
34.7900 456.0000 1.0000
34.8000 498.0000 1.0000
34.8100 458.0000 1.0000
34.8200 453.0000 1.0000
34.8300 499.0000 1.0000
34.8400 466.0000 1.0000
34.8500 498.0000 1.0000
34.8600 470.0000 1.0000
34.8700 461.0000 1.0000
34.8800 480.0000 1.0000
34.8900 463.0000 1.0000
34.9000 473.0000 1.0000
34.9100 463.0000 1.0000
34.9200 477.0000 1.0000
34.9300 492.0000 1.0000
34.9400 477.0000 1.0000
34.9500 507.0000 1.0000
34.9600 465.0000 1.0000
34.9700 462.0000 1.0000
34.9800 494.0000 1.0000
34.9900 453.0000 1.0000
35.0000 466.0000 1.0000
35.0100 483.0000 1.0000
35.0200 460.0000 1.0000
35.0300 451.0000 1.0000
35.0400 470.0000 1.0000
35.0500 500.0000 1.0000
35.0600 505.0000 1.0000
35.0700 466.0000 1.0000
35.0800 457.0000 1.0000
35.0900 483.0000 1.0000
35.1000 468.0000 1.0000
35.1100 472.0000 1.0000
35.1200 475.0000 1.0000
35.1300 525.0000 1.0000
35.1400 511.0000 1.0000
35.1500 471.0000 1.0000
35.1600 447.0000 1.0000
35.1700 477.0000 1.0000
35.1800 468.0000 1.0000
35.1900 514.0000 1.0000
35.2000 473.0000 1.0000
35.2100 449.0000 1.0000
35.2200 491.0000 1.0000
35.2300 495.0000 1.0000
35.2400 512.0000 1.0000
35.2500 465.0000 1.0000
35.2600 478.0000 1.0000
35.2700 483.0000 1.0000
35.2800 485.0000 1.0000
35.2900 498.0000 1.0000
35.3000 519.0000 1.0000
35.3100 502.0000 1.0000
35.3200 479.0000 1.0000
35.3300 476.0000 1.0000
35.3400 537.0000 1.0000
35.3500 530.0000 1.0000
35.3600 542.0000 1.0000
35.3700 540.0000 1.0000
35.3800 552.0000 1.0000
35.3900 546.0000 1.0000
35.4000 573.0000 1.0000
35.4100 545.0000 1.0000
35.4200 592.0000 1.0000
35.4300 576.0000 1.0000
35.4400 575.0000 1.0000
35.4500 601.0000 1.0000
35.4600 644.0000 1.0000
35.4700 635.0000 1.0000
35.4800 641.0000 1.0000
35.4900 695.0000 1.0000
35.5000 730.0000 1.0000
35.5100 751.0000 1.0000
35.5200 707.0000 1.0000
35.5300 825.0000 1.0000
35.5400 832.0000 1.0000
35.5500 789.0000 1.0000
35.5600 816.0000 1.0000
35.5700 858.0000 1.0000
35.5800 865.0000 1.0000
35.5900 864.0000 1.0000
35.6000 869.0000 1.0000
35.6100 879.0000 1.0000
35.6200 849.0000 1.0000
35.6300 878.0000 1.0000
35.6400 876.0000 1.0000
35.6500 855.0000 1.0000
35.6600 810.0000 1.0000
35.6700 814.0000 1.0000
35.6800 798.0000 1.0000
35.6900 762.0000 1.0000
35.7000 725.0000 1.0000
35.7100 733.0000 1.0000
35.7200 694.0000 1.0000
35.7300 695.0000 1.0000
35.7400 661.0000 1.0000
35.7500 633.0000 1.0000
35.7600 615.0000 1.0000
35.7700 608.0000 1.0000
35.7800 582.0000 1.0000
35.7900 556.0000 1.0000
35.8000 586.0000 1.0000
35.8100 561.0000 1.0000
35.8200 552.0000 1.0000
35.8300 514.0000 1.0000
35.8400 501.0000 1.0000
35.8500 502.0000 1.0000
35.8600 481.0000 1.0000
35.8700 486.0000 1.0000
35.8800 509.0000 1.0000
35.8900 499.0000 1.0000
35.9000 452.0000 1.0000
35.9100 438.0000 1.0000
35.9200 477.0000 1.0000
35.9300 485.0000 1.0000
35.9400 448.0000 1.0000
35.9500 439.0000 1.0000
35.9600 469.0000 1.0000
35.9700 476.0000 1.0000
35.9800 440.0000 1.0000
35.9900 470.0000 1.0000
36.0000 450.0000 1.0000
36.0100 465.0000 1.0000
36.0200 449.0000 1.0000
36.0300 447.0000 1.0000
36.0400 428.0000 1.0000
36.0500 415.0000 1.0000
36.0600 443.0000 1.0000
36.0700 462.0000 1.0000
36.0800 440.0000 1.0000
36.0900 472.0000 1.0000
36.1000 462.0000 1.0000
36.1100 431.0000 1.0000
36.1200 417.0000 1.0000
36.1300 456.0000 1.0000
36.1400 449.0000 1.0000
36.1500 456.0000 1.0000
36.1600 435.0000 1.0000
36.1700 435.0000 1.0000
36.1800 446.0000 1.0000
36.1900 438.0000 1.0000
36.2000 453.0000 1.0000
36.2100 419.0000 1.0000
36.2200 437.0000 1.0000
36.2300 479.0000 1.0000
36.2400 457.0000 1.0000
36.2500 424.0000 1.0000
36.2600 423.0000 1.0000
36.2700 437.0000 1.0000
36.2800 468.0000 1.0000
36.2900 462.0000 1.0000
36.3000 447.0000 1.0000
36.3100 446.0000 1.0000
36.3200 447.0000 1.0000
36.3300 458.0000 1.0000
36.3400 426.0000 1.0000
36.3500 447.0000 1.0000
36.3600 450.0000 1.0000
36.3700 453.0000 1.0000
36.3800 463.0000 1.0000
36.3900 419.0000 1.0000
36.4000 466.0000 1.0000
36.4100 426.0000 1.0000
36.4200 423.0000 1.0000
36.4300 469.0000 1.0000
36.4400 433.0000 1.0000
36.4500 422.0000 1.0000
36.4600 413.0000 1.0000
36.4700 437.0000 1.0000
36.4800 449.0000 1.0000
36.4900 431.0000 1.0000
36.5000 409.0000 1.0000
36.5100 450.0000 1.0000
36.5200 443.0000 1.0000
36.5300 408.0000 1.0000
36.5400 421.0000 1.0000
36.5500 423.0000 1.0000
36.5600 438.0000 1.0000
36.5700 450.0000 1.0000
36.5800 395.0000 1.0000
36.5900 427.0000 1.0000
36.6000 445.0000 1.0000
36.6100 474.0000 1.0000
36.6200 437.0000 1.0000
36.6300 440.0000 1.0000
36.6400 443.0000 1.0000
36.6500 418.0000 1.0000
36.6600 420.0000 1.0000
36.6700 408.0000 1.0000
36.6800 430.0000 1.0000
36.6900 399.0000 1.0000
36.7000 423.0000 1.0000
36.7100 437.0000 1.0000
36.7200 416.0000 1.0000
36.7300 434.0000 1.0000
36.7400 451.0000 1.0000
36.7500 428.0000 1.0000
36.7600 431.0000 1.0000
36.7700 418.0000 1.0000
36.7800 421.0000 1.0000
36.7900 407.0000 1.0000
36.8000 439.0000 1.0000
36.8100 445.0000 1.0000
36.8200 436.0000 1.0000
36.8300 422.0000 1.0000
36.8400 424.0000 1.0000
36.8500 428.0000 1.0000
36.8600 406.0000 1.0000
36.8700 419.0000 1.0000
36.8800 435.0000 1.0000
36.8900 437.0000 1.0000
36.9000 417.0000 1.0000
36.9100 428.0000 1.0000
36.9200 449.0000 1.0000
36.9300 456.0000 1.0000
36.9400 437.0000 1.0000
36.9500 438.0000 1.0000
36.9600 438.0000 1.0000
36.9700 402.0000 1.0000
36.9800 422.0000 1.0000
36.9900 404.0000 1.0000
37.0000 447.0000 1.0000
37.0100 425.0000 1.0000
37.0200 398.0000 1.0000
37.0300 420.0000 1.0000
37.0400 426.0000 1.0000
37.0500 448.0000 1.0000
37.0600 413.0000 1.0000
37.0700 432.0000 1.0000
37.0800 443.0000 1.0000
37.0900 435.0000 1.0000
37.1000 421.0000 1.0000
37.1100 425.0000 1.0000
37.1200 446.0000 1.0000
37.1300 438.0000 1.0000
37.1400 488.0000 1.0000
37.1500 458.0000 1.0000
37.1600 450.0000 1.0000
37.1700 455.0000 1.0000
37.1800 468.0000 1.0000
37.1900 448.0000 1.0000
37.2000 459.0000 1.0000
37.2100 471.0000 1.0000
37.2200 442.0000 1.0000
37.2300 468.0000 1.0000
37.2400 512.0000 1.0000
37.2500 471.0000 1.0000
37.2600 467.0000 1.0000
37.2700 453.0000 1.0000
37.2800 465.0000 1.0000
37.2900 496.0000 1.0000
37.3000 481.0000 1.0000
37.3100 467.0000 1.0000
37.3200 448.0000 1.0000
37.3300 491.0000 1.0000
37.3400 465.0000 1.0000
37.3500 514.0000 1.0000
37.3600 516.0000 1.0000
37.3700 486.0000 1.0000
37.3800 508.0000 1.0000
37.3900 561.0000 1.0000
37.4000 550.0000 1.0000
37.4100 624.0000 1.0000
37.4200 571.0000 1.0000
37.4300 563.0000 1.0000
37.4400 604.0000 1.0000
37.4500 613.0000 1.0000
37.4600 671.0000 1.0000
37.4700 664.0000 1.0000
37.4800 712.0000 1.0000
37.4900 709.0000 1.0000
37.5000 741.0000 1.0000
37.5100 752.0000 1.0000
37.5200 848.0000 1.0000
37.5300 831.0000 1.0000
37.5400 901.0000 1.0000
37.5500 957.0000 1.0000
37.5600 975.0000 1.0000
37.5700 1063.0000 1.0000
37.5800 1145.0000 1.0000
37.5900 1184.0000 1.0000
37.6000 1229.0000 1.0000
37.6100 1379.0000 1.0000
37.6200 1415.0000 1.0000
37.6300 1550.0000 1.0000
37.6400 1562.0000 1.0000
37.6500 1714.0000 1.0000
37.6600 1783.0000 1.0000
37.6700 1965.0000 1.0000
37.6800 2029.0000 1.0000
37.6900 2101.0000 1.0000
37.7000 2207.0000 1.0000
37.7100 2202.0000 1.0000
37.7200 2230.0000 1.0000
37.7300 2353.0000 1.0000
37.7400 2311.0000 1.0000
37.7500 2282.0000 1.0000
37.7600 2220.0000 1.0000
37.7700 2247.0000 1.0000
37.7800 2116.0000 1.0000
37.7900 2043.0000 1.0000
37.8000 2054.0000 1.0000
37.8100 1941.0000 1.0000
37.8200 1794.0000 1.0000
37.8300 1724.0000 1.0000
37.8400 1698.0000 1.0000
37.8500 1631.0000 1.0000
37.8600 1507.0000 1.0000
37.8700 1365.0000 1.0000
37.8800 1296.0000 1.0000
37.8900 1224.0000 1.0000
37.9000 1112.0000 1.0000
37.9100 1084.0000 1.0000
37.9200 1065.0000 1.0000
37.9300 968.0000 1.0000
37.9400 930.0000 1.0000
37.9500 883.0000 1.0000
37.9600 822.0000 1.0000
37.9700 792.0000 1.0000
37.9800 706.0000 1.0000
37.9900 717.0000 1.0000
38.0000 699.0000 1.0000
38.0100 668.0000 1.0000
38.0200 618.0000 1.0000
38.0300 651.0000 1.0000
38.0400 585.0000 1.0000
38.0500 562.0000 1.0000
38.0600 544.0000 1.0000
38.0700 517.0000 1.0000
38.0800 523.0000 1.0000
38.0900 517.0000 1.0000
38.1000 492.0000 1.0000
38.1100 483.0000 1.0000
38.1200 481.0000 1.0000
38.1300 484.0000 1.0000
38.1400 479.0000 1.0000
38.1500 460.0000 1.0000
38.1600 458.0000 1.0000
38.1700 455.0000 1.0000
38.1800 442.0000 1.0000
38.1900 421.0000 1.0000
38.2000 466.0000 1.0000
38.2100 479.0000 1.0000
38.2200 465.0000 1.0000
38.2300 425.0000 1.0000
38.2400 440.0000 1.0000
38.2500 438.0000 1.0000
38.2600 447.0000 1.0000
38.2700 429.0000 1.0000
38.2800 425.0000 1.0000
38.2900 399.0000 1.0000
38.3000 395.0000 1.0000
38.3100 382.0000 1.0000
38.3200 426.0000 1.0000
38.3300 425.0000 1.0000
38.3400 411.0000 1.0000
38.3500 405.0000 1.0000
38.3600 404.0000 1.0000
38.3700 414.0000 1.0000
38.3800 403.0000 1.0000
38.3900 417.0000 1.0000
38.4000 386.0000 1.0000
38.4100 395.0000 1.0000
38.4200 406.0000 1.0000
38.4300 407.0000 1.0000
38.4400 395.0000 1.0000
38.4500 403.0000 1.0000
38.4600 355.0000 1.0000
38.4700 408.0000 1.0000
38.4800 406.0000 1.0000
38.4900 420.0000 1.0000
38.5000 427.0000 1.0000
38.5100 376.0000 1.0000
38.5200 374.0000 1.0000
38.5300 438.0000 1.0000
38.5400 377.0000 1.0000
38.5500 401.0000 1.0000
38.5600 377.0000 1.0000
38.5700 388.0000 1.0000
38.5800 420.0000 1.0000
38.5900 407.0000 1.0000
38.6000 390.0000 1.0000
38.6100 395.0000 1.0000
38.6200 393.0000 1.0000
38.6300 423.0000 1.0000
38.6400 409.0000 1.0000
38.6500 346.0000 1.0000
38.6600 401.0000 1.0000
38.6700 430.0000 1.0000
38.6800 415.0000 1.0000
38.6900 390.0000 1.0000
38.7000 391.0000 1.0000
38.7100 403.0000 1.0000
38.7200 416.0000 1.0000
38.7300 399.0000 1.0000
38.7400 464.0000 1.0000
38.7500 465.0000 1.0000
38.7600 426.0000 1.0000
38.7700 441.0000 1.0000
38.7800 402.0000 1.0000
38.7900 401.0000 1.0000
38.8000 437.0000 1.0000
38.8100 426.0000 1.0000
38.8200 387.0000 1.0000
38.8300 448.0000 1.0000
38.8400 408.0000 1.0000
38.8500 375.0000 1.0000
38.8600 369.0000 1.0000
38.8700 398.0000 1.0000
38.8800 402.0000 1.0000
38.8900 389.0000 1.0000
38.9000 380.0000 1.0000
38.9100 385.0000 1.0000
38.9200 364.0000 1.0000
38.9300 377.0000 1.0000
38.9400 381.0000 1.0000
38.9500 383.0000 1.0000
38.9600 379.0000 1.0000
38.9700 396.0000 1.0000
38.9800 399.0000 1.0000
38.9900 415.0000 1.0000
39.0000 375.0000 1.0000
39.0100 363.0000 1.0000
39.0200 361.0000 1.0000
39.0300 404.0000 1.0000
39.0400 360.0000 1.0000
39.0500 381.0000 1.0000
39.0600 378.0000 1.0000
39.0700 370.0000 1.0000
39.0800 395.0000 1.0000
39.0900 386.0000 1.0000
39.1000 393.0000 1.0000
39.1100 387.0000 1.0000
39.1200 382.0000 1.0000
39.1300 362.0000 1.0000
39.1400 372.0000 1.0000
39.1500 357.0000 1.0000
39.1600 382.0000 1.0000
39.1700 397.0000 1.0000
39.1800 371.0000 1.0000
39.1900 363.0000 1.0000
39.2000 341.0000 1.0000
39.2100 365.0000 1.0000
39.2200 401.0000 1.0000
39.2300 371.0000 1.0000
39.2400 360.0000 1.0000
39.2500 362.0000 1.0000
39.2600 362.0000 1.0000
39.2700 374.0000 1.0000
39.2800 389.0000 1.0000
39.2900 390.0000 1.0000
39.3000 341.0000 1.0000
39.3100 348.0000 1.0000
39.3200 354.0000 1.0000
39.3300 358.0000 1.0000
39.3400 417.0000 1.0000
39.3500 383.0000 1.0000
39.3600 367.0000 1.0000
39.3700 370.0000 1.0000
39.3800 337.0000 1.0000
39.3900 365.0000 1.0000
39.4000 387.0000 1.0000
39.4100 388.0000 1.0000
39.4200 357.0000 1.0000
39.4300 360.0000 1.0000
39.4400 355.0000 1.0000
39.4500 384.0000 1.0000
39.4600 376.0000 1.0000
39.4700 384.0000 1.0000
39.4800 366.0000 1.0000
39.4900 364.0000 1.0000
39.5000 322.0000 1.0000
39.5100 375.0000 1.0000
39.5200 362.0000 1.0000
39.5300 327.0000 1.0000
39.5400 368.0000 1.0000
39.5500 347.0000 1.0000
39.5600 355.0000 1.0000
39.5700 374.0000 1.0000
39.5800 398.0000 1.0000
39.5900 394.0000 1.0000
39.6000 399.0000 1.0000
39.6100 382.0000 1.0000
39.6200 373.0000 1.0000
39.6300 341.0000 1.0000
39.6400 371.0000 1.0000
39.6500 378.0000 1.0000
39.6600 330.0000 1.0000
39.6700 357.0000 1.0000
39.6800 366.0000 1.0000
39.6900 360.0000 1.0000
39.7000 369.0000 1.0000
39.7100 378.0000 1.0000
39.7200 338.0000 1.0000
39.7300 355.0000 1.0000
39.7400 367.0000 1.0000
39.7500 378.0000 1.0000
39.7600 373.0000 1.0000
39.7700 393.0000 1.0000
39.7800 381.0000 1.0000
39.7900 360.0000 1.0000
39.8000 333.0000 1.0000
39.8100 353.0000 1.0000
39.8200 388.0000 1.0000
39.8300 341.0000 1.0000
39.8400 370.0000 1.0000
39.8500 360.0000 1.0000
39.8600 373.0000 1.0000
39.8700 391.0000 1.0000
39.8800 352.0000 1.0000
39.8900 384.0000 1.0000
39.9000 375.0000 1.0000
39.9100 367.0000 1.0000
39.9200 384.0000 1.0000
39.9300 348.0000 1.0000
39.9400 380.0000 1.0000
39.9500 347.0000 1.0000
39.9600 362.0000 1.0000
39.9700 352.0000 1.0000
39.9800 380.0000 1.0000
39.9900 373.0000 1.0000
40.0000 360.0000 1.0000
40.0100 372.0000 1.0000
40.0200 364.0000 1.0000
40.0300 409.0000 1.0000
40.0400 389.0000 1.0000
40.0500 353.0000 1.0000
40.0600 359.0000 1.0000
40.0700 367.0000 1.0000
40.0800 354.0000 1.0000
40.0900 361.0000 1.0000
40.1000 366.0000 1.0000
40.1100 339.0000 1.0000
40.1200 345.0000 1.0000
40.1300 341.0000 1.0000
40.1400 375.0000 1.0000
40.1500 341.0000 1.0000
40.1600 345.0000 1.0000
40.1700 356.0000 1.0000
40.1800 379.0000 1.0000
40.1900 362.0000 1.0000
40.2000 356.0000 1.0000
40.2100 342.0000 1.0000
40.2200 371.0000 1.0000
40.2300 338.0000 1.0000
40.2400 350.0000 1.0000
40.2500 347.0000 1.0000
40.2600 361.0000 1.0000
40.2700 358.0000 1.0000
40.2800 382.0000 1.0000
40.2900 357.0000 1.0000
40.3000 356.0000 1.0000
40.3100 351.0000 1.0000
40.3200 356.0000 1.0000
40.3300 342.0000 1.0000
40.3400 361.0000 1.0000
40.3500 349.0000 1.0000
40.3600 350.0000 1.0000
40.3700 343.0000 1.0000
40.3800 368.0000 1.0000
40.3900 332.0000 1.0000
40.4000 340.0000 1.0000
40.4100 324.0000 1.0000
40.4200 354.0000 1.0000
40.4300 335.0000 1.0000
40.4400 370.0000 1.0000
40.4500 381.0000 1.0000
40.4600 360.0000 1.0000
40.4700 347.0000 1.0000
40.4800 351.0000 1.0000
40.4900 352.0000 1.0000
40.5000 376.0000 1.0000
40.5100 368.0000 1.0000
40.5200 348.0000 1.0000
40.5300 369.0000 1.0000
40.5400 361.0000 1.0000
40.5500 341.0000 1.0000
40.5600 332.0000 1.0000
40.5700 370.0000 1.0000
40.5800 356.0000 1.0000
40.5900 402.0000 1.0000
40.6000 360.0000 1.0000
40.6100 350.0000 1.0000
40.6200 352.0000 1.0000
40.6300 339.0000 1.0000
40.6400 356.0000 1.0000
40.6500 362.0000 1.0000
40.6600 333.0000 1.0000
40.6700 373.0000 1.0000
40.6800 368.0000 1.0000
40.6900 356.0000 1.0000
40.7000 345.0000 1.0000
40.7100 391.0000 1.0000
40.7200 377.0000 1.0000
40.7300 352.0000 1.0000
40.7400 384.0000 1.0000
40.7500 385.0000 1.0000
40.7600 375.0000 1.0000
40.7700 379.0000 1.0000
40.7800 355.0000 1.0000
40.7900 409.0000 1.0000
40.8000 399.0000 1.0000
40.8100 394.0000 1.0000
40.8200 384.0000 1.0000
40.8300 412.0000 1.0000
40.8400 405.0000 1.0000
40.8500 381.0000 1.0000
40.8600 403.0000 1.0000
40.8700 363.0000 1.0000
40.8800 362.0000 1.0000
40.8900 353.0000 1.0000
40.9000 393.0000 1.0000
40.9100 358.0000 1.0000
40.9200 386.0000 1.0000
40.9300 366.0000 1.0000
40.9400 393.0000 1.0000
40.9500 352.0000 1.0000
40.9600 368.0000 1.0000
40.9700 353.0000 1.0000
40.9800 334.0000 1.0000
40.9900 349.0000 1.0000
41.0000 370.0000 1.0000
41.0100 349.0000 1.0000
41.0200 368.0000 1.0000
41.0300 361.0000 1.0000
41.0400 389.0000 1.0000
41.0500 362.0000 1.0000
41.0600 377.0000 1.0000
41.0700 361.0000 1.0000
41.0800 371.0000 1.0000
41.0900 351.0000 1.0000
41.1000 358.0000 1.0000
41.1100 366.0000 1.0000
41.1200 344.0000 1.0000
41.1300 365.0000 1.0000
41.1400 365.0000 1.0000
41.1500 363.0000 1.0000
41.1600 344.0000 1.0000
41.1700 347.0000 1.0000
41.1800 335.0000 1.0000
41.1900 332.0000 1.0000
41.2000 374.0000 1.0000
41.2100 330.0000 1.0000
41.2200 340.0000 1.0000
41.2300 347.0000 1.0000
41.2400 373.0000 1.0000
41.2500 358.0000 1.0000
41.2600 362.0000 1.0000
41.2700 342.0000 1.0000
41.2800 356.0000 1.0000
41.2900 379.0000 1.0000
41.3000 348.0000 1.0000
41.3100 354.0000 1.0000
41.3200 352.0000 1.0000
41.3300 332.0000 1.0000
41.3400 371.0000 1.0000
41.3500 331.0000 1.0000
41.3600 352.0000 1.0000
41.3700 333.0000 1.0000
41.3800 356.0000 1.0000
41.3900 367.0000 1.0000
41.4000 378.0000 1.0000
41.4100 350.0000 1.0000
41.4200 370.0000 1.0000
41.4300 363.0000 1.0000
41.4400 320.0000 1.0000
41.4500 307.0000 1.0000
41.4600 350.0000 1.0000
41.4700 342.0000 1.0000
41.4800 359.0000 1.0000
41.4900 348.0000 1.0000
41.5000 362.0000 1.0000
41.5100 352.0000 1.0000
41.5200 347.0000 1.0000
41.5300 358.0000 1.0000
41.5400 353.0000 1.0000
41.5500 347.0000 1.0000
41.5600 371.0000 1.0000
41.5700 325.0000 1.0000
41.5800 341.0000 1.0000
41.5900 372.0000 1.0000
41.6000 338.0000 1.0000
41.6100 352.0000 1.0000
41.6200 338.0000 1.0000
41.6300 319.0000 1.0000
41.6400 353.0000 1.0000
41.6500 322.0000 1.0000
41.6600 355.0000 1.0000
41.6700 362.0000 1.0000
41.6800 366.0000 1.0000
41.6900 358.0000 1.0000
41.7000 352.0000 1.0000
41.7100 314.0000 1.0000
41.7200 345.0000 1.0000
41.7300 327.0000 1.0000
41.7400 366.0000 1.0000
41.7500 346.0000 1.0000
41.7600 368.0000 1.0000
41.7700 339.0000 1.0000
41.7800 341.0000 1.0000
41.7900 332.0000 1.0000
41.8000 362.0000 1.0000
41.8100 346.0000 1.0000
41.8200 340.0000 1.0000
41.8300 383.0000 1.0000
41.8400 370.0000 1.0000
41.8500 329.0000 1.0000
41.8600 326.0000 1.0000
41.8700 365.0000 1.0000
41.8800 375.0000 1.0000
41.8900 335.0000 1.0000
41.9000 351.0000 1.0000
41.9100 336.0000 1.0000
41.9200 332.0000 1.0000
41.9300 319.0000 1.0000
41.9400 352.0000 1.0000
41.9500 317.0000 1.0000
41.9600 321.0000 1.0000
41.9700 324.0000 1.0000
41.9800 348.0000 1.0000
41.9900 339.0000 1.0000
42.0000 318.0000 1.0000
42.0100 317.0000 1.0000
42.0200 359.0000 1.0000
42.0300 353.0000 1.0000
42.0400 336.0000 1.0000
42.0500 346.0000 1.0000
42.0600 342.0000 1.0000
42.0700 335.0000 1.0000
42.0800 320.0000 1.0000
42.0900 309.0000 1.0000
42.1000 329.0000 1.0000
42.1100 342.0000 1.0000
42.1200 356.0000 1.0000
42.1300 344.0000 1.0000
42.1400 350.0000 1.0000
42.1500 379.0000 1.0000
42.1600 386.0000 1.0000
42.1700 367.0000 1.0000
42.1800 378.0000 1.0000
42.1900 355.0000 1.0000
42.2000 324.0000 1.0000
42.2100 342.0000 1.0000
42.2200 365.0000 1.0000
42.2300 346.0000 1.0000
42.2400 353.0000 1.0000
42.2500 372.0000 1.0000
42.2600 356.0000 1.0000
42.2700 350.0000 1.0000
42.2800 356.0000 1.0000
42.2900 315.0000 1.0000
42.3000 376.0000 1.0000
42.3100 379.0000 1.0000
42.3200 365.0000 1.0000
42.3300 362.0000 1.0000
42.3400 350.0000 1.0000
42.3500 346.0000 1.0000
42.3600 374.0000 1.0000
42.3700 395.0000 1.0000
42.3800 393.0000 1.0000
42.3900 389.0000 1.0000
42.4000 395.0000 1.0000
42.4100 375.0000 1.0000
42.4200 355.0000 1.0000
42.4300 386.0000 1.0000
42.4400 382.0000 1.0000
42.4500 396.0000 1.0000
42.4600 372.0000 1.0000
42.4700 394.0000 1.0000
42.4800 358.0000 1.0000
42.4900 366.0000 1.0000
42.5000 377.0000 1.0000
42.5100 389.0000 1.0000
42.5200 368.0000 1.0000
42.5300 342.0000 1.0000
42.5400 388.0000 1.0000
42.5500 339.0000 1.0000
42.5600 349.0000 1.0000
42.5700 329.0000 1.0000
42.5800 390.0000 1.0000
42.5900 386.0000 1.0000
42.6000 344.0000 1.0000
42.6100 374.0000 1.0000
42.6200 383.0000 1.0000
42.6300 357.0000 1.0000
42.6400 357.0000 1.0000
42.6500 369.0000 1.0000
42.6600 337.0000 1.0000
42.6700 355.0000 1.0000
42.6800 359.0000 1.0000
42.6900 335.0000 1.0000
42.7000 360.0000 1.0000
42.7100 333.0000 1.0000
42.7200 342.0000 1.0000
42.7300 330.0000 1.0000
42.7400 341.0000 1.0000
42.7500 321.0000 1.0000
42.7600 346.0000 1.0000
42.7700 344.0000 1.0000
42.7800 360.0000 1.0000
42.7900 376.0000 1.0000
42.8000 337.0000 1.0000
42.8100 318.0000 1.0000
42.8200 334.0000 1.0000
42.8300 373.0000 1.0000
42.8400 335.0000 1.0000
42.8500 321.0000 1.0000
42.8600 334.0000 1.0000
42.8700 326.0000 1.0000
42.8800 333.0000 1.0000
42.8900 334.0000 1.0000
42.9000 353.0000 1.0000
42.9100 375.0000 1.0000
42.9200 365.0000 1.0000
42.9300 329.0000 1.0000
42.9400 336.0000 1.0000
42.9500 334.0000 1.0000
42.9600 370.0000 1.0000
42.9700 337.0000 1.0000
42.9800 334.0000 1.0000
42.9900 290.0000 1.0000
43.0000 328.0000 1.0000
43.0100 313.0000 1.0000
43.0200 314.0000 1.0000
43.0300 324.0000 1.0000
43.0400 351.0000 1.0000
43.0500 364.0000 1.0000
43.0600 343.0000 1.0000
43.0700 360.0000 1.0000
43.0800 359.0000 1.0000
43.0900 341.0000 1.0000
43.1000 308.0000 1.0000
43.1100 349.0000 1.0000
43.1200 352.0000 1.0000
43.1300 322.0000 1.0000
43.1400 322.0000 1.0000
43.1500 331.0000 1.0000
43.1600 363.0000 1.0000
43.1700 356.0000 1.0000
43.1800 349.0000 1.0000
43.1900 312.0000 1.0000
43.2000 335.0000 1.0000
43.2100 357.0000 1.0000
43.2200 339.0000 1.0000
43.2300 320.0000 1.0000
43.2400 327.0000 1.0000
43.2500 358.0000 1.0000
43.2600 349.0000 1.0000
43.2700 322.0000 1.0000
43.2800 333.0000 1.0000
43.2900 332.0000 1.0000
43.3000 336.0000 1.0000
43.3100 329.0000 1.0000
43.3200 318.0000 1.0000
43.3300 342.0000 1.0000
43.3400 321.0000 1.0000
43.3500 318.0000 1.0000
43.3600 334.0000 1.0000
43.3700 324.0000 1.0000
43.3800 353.0000 1.0000
43.3900 356.0000 1.0000
43.4000 345.0000 1.0000
43.4100 359.0000 1.0000
43.4200 331.0000 1.0000
43.4300 355.0000 1.0000
43.4400 339.0000 1.0000
43.4500 343.0000 1.0000
43.4600 316.0000 1.0000
43.4700 330.0000 1.0000
43.4800 345.0000 1.0000
43.4900 336.0000 1.0000
43.5000 314.0000 1.0000
43.5100 319.0000 1.0000
43.5200 339.0000 1.0000
43.5300 325.0000 1.0000
43.5400 344.0000 1.0000
43.5500 357.0000 1.0000
43.5600 331.0000 1.0000
43.5700 329.0000 1.0000
43.5800 345.0000 1.0000
43.5900 340.0000 1.0000
43.6000 320.0000 1.0000
43.6100 340.0000 1.0000
43.6200 329.0000 1.0000
43.6300 306.0000 1.0000
43.6400 316.0000 1.0000
43.6500 318.0000 1.0000
43.6600 335.0000 1.0000
43.6700 342.0000 1.0000
43.6800 316.0000 1.0000
43.6900 320.0000 1.0000
43.7000 308.0000 1.0000
43.7100 345.0000 1.0000
43.7200 332.0000 1.0000
43.7300 343.0000 1.0000
43.7400 310.0000 1.0000
43.7500 320.0000 1.0000
43.7600 322.0000 1.0000
43.7700 326.0000 1.0000
43.7800 327.0000 1.0000
43.7900 320.0000 1.0000
43.8000 320.0000 1.0000
43.8100 336.0000 1.0000
43.8200 302.0000 1.0000
43.8300 345.0000 1.0000
43.8400 315.0000 1.0000
43.8500 338.0000 1.0000
43.8600 347.0000 1.0000
43.8700 329.0000 1.0000
43.8800 295.0000 1.0000
43.8900 337.0000 1.0000
43.9000 307.0000 1.0000
43.9100 314.0000 1.0000
43.9200 286.0000 1.0000
43.9300 313.0000 1.0000
43.9400 324.0000 1.0000
43.9500 313.0000 1.0000
43.9600 302.0000 1.0000
43.9700 350.0000 1.0000
43.9800 333.0000 1.0000
43.9900 324.0000 1.0000
44.0000 341.0000 1.0000
44.0100 352.0000 1.0000
44.0200 310.0000 1.0000
44.0300 319.0000 1.0000
44.0400 319.0000 1.0000
44.0500 341.0000 1.0000
44.0600 303.0000 1.0000
44.0700 329.0000 1.0000
44.0800 348.0000 1.0000
44.0900 326.0000 1.0000
44.1000 327.0000 1.0000
44.1100 314.0000 1.0000
44.1200 325.0000 1.0000
44.1300 324.0000 1.0000
44.1400 348.0000 1.0000
44.1500 332.0000 1.0000
44.1600 351.0000 1.0000
44.1700 311.0000 1.0000
44.1800 323.0000 1.0000
44.1900 308.0000 1.0000
44.2000 314.0000 1.0000
44.2100 337.0000 1.0000
44.2200 326.0000 1.0000
44.2300 331.0000 1.0000
44.2400 324.0000 1.0000
44.2500 332.0000 1.0000
44.2600 330.0000 1.0000
44.2700 349.0000 1.0000
44.2800 324.0000 1.0000
44.2900 320.0000 1.0000
44.3000 327.0000 1.0000
44.3100 313.0000 1.0000
44.3200 343.0000 1.0000
44.3300 317.0000 1.0000
44.3400 328.0000 1.0000
44.3500 288.0000 1.0000
44.3600 319.0000 1.0000
44.3700 298.0000 1.0000
44.3800 315.0000 1.0000
44.3900 294.0000 1.0000
44.4000 318.0000 1.0000
44.4100 335.0000 1.0000
44.4200 324.0000 1.0000
44.4300 300.0000 1.0000
44.4400 309.0000 1.0000
44.4500 331.0000 1.0000
44.4600 330.0000 1.0000
44.4700 336.0000 1.0000
44.4800 335.0000 1.0000
44.4900 359.0000 1.0000
44.5000 320.0000 1.0000
44.5100 340.0000 1.0000
44.5200 334.0000 1.0000
44.5300 339.0000 1.0000
44.5400 313.0000 1.0000
44.5500 327.0000 1.0000
44.5600 317.0000 1.0000
44.5700 336.0000 1.0000
44.5800 330.0000 1.0000
44.5900 328.0000 1.0000
44.6000 324.0000 1.0000
44.6100 315.0000 1.0000
44.6200 307.0000 1.0000
44.6300 337.0000 1.0000
44.6400 347.0000 1.0000
44.6500 319.0000 1.0000
44.6600 331.0000 1.0000
44.6700 316.0000 1.0000
44.6800 331.0000 1.0000
44.6900 312.0000 1.0000
44.7000 349.0000 1.0000
44.7100 319.0000 1.0000
44.7200 297.0000 1.0000
44.7300 304.0000 1.0000
44.7400 339.0000 1.0000
44.7500 322.0000 1.0000
44.7600 324.0000 1.0000
44.7700 290.0000 1.0000
44.7800 309.0000 1.0000
44.7900 322.0000 1.0000
44.8000 335.0000 1.0000
44.8100 344.0000 1.0000
44.8200 318.0000 1.0000
44.8300 301.0000 1.0000
44.8400 309.0000 1.0000
44.8500 291.0000 1.0000
44.8600 328.0000 1.0000
44.8700 344.0000 1.0000
44.8800 307.0000 1.0000
44.8900 336.0000 1.0000
44.9000 298.0000 1.0000
44.9100 337.0000 1.0000
44.9200 334.0000 1.0000
44.9300 300.0000 1.0000
44.9400 326.0000 1.0000
44.9500 322.0000 1.0000
44.9600 358.0000 1.0000
44.9700 340.0000 1.0000
44.9800 324.0000 1.0000
44.9900 347.0000 1.0000
45.0000 309.0000 1.0000
45.0100 301.0000 1.0000
45.0200 330.0000 1.0000
45.0300 347.0000 1.0000
45.0400 318.0000 1.0000
45.0500 307.0000 1.0000
45.0600 291.0000 1.0000
45.0700 309.0000 1.0000
45.0800 317.0000 1.0000
45.0900 313.0000 1.0000
45.1000 318.0000 1.0000
45.1100 324.0000 1.0000
45.1200 311.0000 1.0000
45.1300 309.0000 1.0000
45.1400 304.0000 1.0000
45.1500 336.0000 1.0000
45.1600 325.0000 1.0000
45.1700 317.0000 1.0000
45.1800 326.0000 1.0000
45.1900 301.0000 1.0000
45.2000 309.0000 1.0000
45.2100 327.0000 1.0000
45.2200 328.0000 1.0000
45.2300 315.0000 1.0000
45.2400 340.0000 1.0000
45.2500 336.0000 1.0000
45.2600 330.0000 1.0000
45.2700 309.0000 1.0000
45.2800 313.0000 1.0000
45.2900 311.0000 1.0000
45.3000 316.0000 1.0000
45.3100 352.0000 1.0000
45.3200 315.0000 1.0000
45.3300 298.0000 1.0000
45.3400 337.0000 1.0000
45.3500 296.0000 1.0000
45.3600 317.0000 1.0000
45.3700 315.0000 1.0000
45.3800 320.0000 1.0000
45.3900 339.0000 1.0000
45.4000 332.0000 1.0000
45.4100 336.0000 1.0000
45.4200 312.0000 1.0000
45.4300 316.0000 1.0000
45.4400 319.0000 1.0000
45.4500 315.0000 1.0000
45.4600 310.0000 1.0000
45.4700 342.0000 1.0000
45.4800 319.0000 1.0000
45.4900 319.0000 1.0000
45.5000 319.0000 1.0000
45.5100 315.0000 1.0000
45.5200 279.0000 1.0000
45.5300 316.0000 1.0000
45.5400 313.0000 1.0000
45.5500 286.0000 1.0000
45.5600 314.0000 1.0000
45.5700 305.0000 1.0000
45.5800 306.0000 1.0000
45.5900 309.0000 1.0000
45.6000 323.0000 1.0000
45.6100 320.0000 1.0000
45.6200 317.0000 1.0000
45.6300 294.0000 1.0000
45.6400 297.0000 1.0000
45.6500 333.0000 1.0000
45.6600 315.0000 1.0000
45.6700 330.0000 1.0000
45.6800 311.0000 1.0000
45.6900 323.0000 1.0000
45.7000 318.0000 1.0000
45.7100 304.0000 1.0000
45.7200 315.0000 1.0000
45.7300 323.0000 1.0000
45.7400 309.0000 1.0000
45.7500 289.0000 1.0000
45.7600 336.0000 1.0000
45.7700 323.0000 1.0000
45.7800 317.0000 1.0000
45.7900 307.0000 1.0000
45.8000 299.0000 1.0000
45.8100 306.0000 1.0000
45.8200 300.0000 1.0000
45.8300 319.0000 1.0000
45.8400 324.0000 1.0000
45.8500 318.0000 1.0000
45.8600 319.0000 1.0000
45.8700 328.0000 1.0000
45.8800 328.0000 1.0000
45.8900 346.0000 1.0000
45.9000 315.0000 1.0000
45.9100 318.0000 1.0000
45.9200 298.0000 1.0000
45.9300 312.0000 1.0000
45.9400 325.0000 1.0000
45.9500 322.0000 1.0000
45.9600 308.0000 1.0000
45.9700 306.0000 1.0000
45.9800 291.0000 1.0000
45.9900 302.0000 1.0000
46.0000 311.0000 1.0000
46.0100 324.0000 1.0000
46.0200 307.0000 1.0000
46.0300 305.0000 1.0000
46.0400 297.0000 1.0000
46.0500 298.0000 1.0000
46.0600 313.0000 1.0000
46.0700 320.0000 1.0000
46.0800 310.0000 1.0000
46.0900 330.0000 1.0000
46.1000 325.0000 1.0000
46.1100 322.0000 1.0000
46.1200 295.0000 1.0000
46.1300 292.0000 1.0000
46.1400 289.0000 1.0000
46.1500 320.0000 1.0000
46.1600 338.0000 1.0000
46.1700 307.0000 1.0000
46.1800 316.0000 1.0000
46.1900 328.0000 1.0000
46.2000 327.0000 1.0000
46.2100 304.0000 1.0000
46.2200 313.0000 1.0000
46.2300 327.0000 1.0000
46.2400 338.0000 1.0000
46.2500 331.0000 1.0000
46.2600 340.0000 1.0000
46.2700 339.0000 1.0000
46.2800 327.0000 1.0000
46.2900 320.0000 1.0000
46.3000 304.0000 1.0000
46.3100 318.0000 1.0000
46.3200 326.0000 1.0000
46.3300 316.0000 1.0000
46.3400 316.0000 1.0000
46.3500 312.0000 1.0000
46.3600 320.0000 1.0000
46.3700 311.0000 1.0000
46.3800 304.0000 1.0000
46.3900 306.0000 1.0000
46.4000 315.0000 1.0000
46.4100 300.0000 1.0000
46.4200 308.0000 1.0000
46.4300 297.0000 1.0000
46.4400 327.0000 1.0000
46.4500 307.0000 1.0000
46.4600 345.0000 1.0000
46.4700 311.0000 1.0000
46.4800 317.0000 1.0000
46.4900 317.0000 1.0000
46.5000 293.0000 1.0000
46.5100 302.0000 1.0000
46.5200 310.0000 1.0000
46.5300 301.0000 1.0000
46.5400 314.0000 1.0000
46.5500 310.0000 1.0000
46.5600 294.0000 1.0000
46.5700 301.0000 1.0000
46.5800 312.0000 1.0000
46.5900 320.0000 1.0000
46.6000 292.0000 1.0000
46.6100 300.0000 1.0000
46.6200 304.0000 1.0000
46.6300 320.0000 1.0000
46.6400 321.0000 1.0000
46.6500 327.0000 1.0000
46.6600 301.0000 1.0000
46.6700 313.0000 1.0000
46.6800 297.0000 1.0000
46.6900 292.0000 1.0000
46.7000 312.0000 1.0000
46.7100 286.0000 1.0000
46.7200 295.0000 1.0000
46.7300 315.0000 1.0000
46.7400 303.0000 1.0000
46.7500 324.0000 1.0000
46.7600 313.0000 1.0000
46.7700 302.0000 1.0000
46.7800 304.0000 1.0000
46.7900 320.0000 1.0000
46.8000 337.0000 1.0000
46.8100 320.0000 1.0000
46.8200 292.0000 1.0000
46.8300 307.0000 1.0000
46.8400 316.0000 1.0000
46.8500 278.0000 1.0000
46.8600 289.0000 1.0000
46.8700 302.0000 1.0000
46.8800 343.0000 1.0000
46.8900 286.0000 1.0000
46.9000 289.0000 1.0000
46.9100 279.0000 1.0000
46.9200 322.0000 1.0000
46.9300 327.0000 1.0000
46.9400 321.0000 1.0000
46.9500 326.0000 1.0000
46.9600 288.0000 1.0000
46.9700 331.0000 1.0000
46.9800 317.0000 1.0000
46.9900 339.0000 1.0000
47.0000 322.0000 1.0000
47.0100 311.0000 1.0000
47.0200 299.0000 1.0000
47.0300 307.0000 1.0000
47.0400 292.0000 1.0000
47.0500 284.0000 1.0000
47.0600 312.0000 1.0000
47.0700 301.0000 1.0000
47.0800 295.0000 1.0000
47.0900 333.0000 1.0000
47.1000 309.0000 1.0000
47.1100 335.0000 1.0000
47.1200 280.0000 1.0000
47.1300 322.0000 1.0000
47.1400 302.0000 1.0000
47.1500 287.0000 1.0000
47.1600 328.0000 1.0000
47.1700 318.0000 1.0000
47.1800 275.0000 1.0000
47.1900 291.0000 1.0000
47.2000 301.0000 1.0000
47.2100 294.0000 1.0000
47.2200 317.0000 1.0000
47.2300 304.0000 1.0000
47.2400 316.0000 1.0000
47.2500 307.0000 1.0000
47.2600 302.0000 1.0000
47.2700 303.0000 1.0000
47.2800 295.0000 1.0000
47.2900 302.0000 1.0000
47.3000 325.0000 1.0000
47.3100 324.0000 1.0000
47.3200 314.0000 1.0000
47.3300 332.0000 1.0000
47.3400 282.0000 1.0000
47.3500 318.0000 1.0000
47.3600 287.0000 1.0000
47.3700 292.0000 1.0000
47.3800 303.0000 1.0000
47.3900 295.0000 1.0000
47.4000 335.0000 1.0000
47.4100 322.0000 1.0000
47.4200 301.0000 1.0000
47.4300 296.0000 1.0000
47.4400 323.0000 1.0000
47.4500 314.0000 1.0000
47.4600 318.0000 1.0000
47.4700 307.0000 1.0000
47.4800 291.0000 1.0000
47.4900 289.0000 1.0000
47.5000 278.0000 1.0000
47.5100 303.0000 1.0000
47.5200 314.0000 1.0000
47.5300 281.0000 1.0000
47.5400 323.0000 1.0000
47.5500 294.0000 1.0000
47.5600 278.0000 1.0000
47.5700 269.0000 1.0000
47.5800 277.0000 1.0000
47.5900 315.0000 1.0000
47.6000 279.0000 1.0000
47.6100 311.0000 1.0000
47.6200 290.0000 1.0000
47.6300 302.0000 1.0000
47.6400 301.0000 1.0000
47.6500 315.0000 1.0000
47.6600 298.0000 1.0000
47.6700 294.0000 1.0000
47.6800 304.0000 1.0000
47.6900 315.0000 1.0000
47.7000 306.0000 1.0000
47.7100 275.0000 1.0000
47.7200 313.0000 1.0000
47.7300 288.0000 1.0000
47.7400 300.0000 1.0000
47.7500 275.0000 1.0000
47.7600 295.0000 1.0000
47.7700 302.0000 1.0000
47.7800 308.0000 1.0000
47.7900 287.0000 1.0000
47.8000 308.0000 1.0000
47.8100 289.0000 1.0000
47.8200 286.0000 1.0000
47.8300 263.0000 1.0000
47.8400 305.0000 1.0000
47.8500 307.0000 1.0000
47.8600 302.0000 1.0000
47.8700 283.0000 1.0000
47.8800 295.0000 1.0000
47.8900 276.0000 1.0000
47.9000 274.0000 1.0000
47.9100 274.0000 1.0000
47.9200 301.0000 1.0000
47.9300 295.0000 1.0000
47.9400 279.0000 1.0000
47.9500 286.0000 1.0000
47.9600 320.0000 1.0000
47.9700 318.0000 1.0000
47.9800 306.0000 1.0000
47.9900 295.0000 1.0000
48.0000 296.0000 1.0000
48.0100 310.0000 1.0000
48.0200 292.0000 1.0000
48.0300 310.0000 1.0000
48.0400 286.0000 1.0000
48.0500 317.0000 1.0000
48.0600 270.0000 1.0000
48.0700 270.0000 1.0000
48.0800 296.0000 1.0000
48.0900 306.0000 1.0000
48.1000 285.0000 1.0000
48.1100 295.0000 1.0000
48.1200 295.0000 1.0000
48.1300 304.0000 1.0000
48.1400 305.0000 1.0000
48.1500 289.0000 1.0000
48.1600 290.0000 1.0000
48.1700 287.0000 1.0000
48.1800 269.0000 1.0000
48.1900 293.0000 1.0000
48.2000 275.0000 1.0000
48.2100 281.0000 1.0000
48.2200 275.0000 1.0000
48.2300 274.0000 1.0000
48.2400 305.0000 1.0000
48.2500 273.0000 1.0000
48.2600 266.0000 1.0000
48.2700 288.0000 1.0000
48.2800 283.0000 1.0000
48.2900 288.0000 1.0000
48.3000 318.0000 1.0000
48.3100 314.0000 1.0000
48.3200 304.0000 1.0000
48.3300 314.0000 1.0000
48.3400 321.0000 1.0000
48.3500 299.0000 1.0000
48.3600 308.0000 1.0000
48.3700 279.0000 1.0000
48.3800 310.0000 1.0000
48.3900 286.0000 1.0000
48.4000 275.0000 1.0000
48.4100 305.0000 1.0000
48.4200 310.0000 1.0000
48.4300 298.0000 1.0000
48.4400 322.0000 1.0000
48.4500 289.0000 1.0000
48.4600 274.0000 1.0000
48.4700 289.0000 1.0000
48.4800 281.0000 1.0000
48.4900 296.0000 1.0000
48.5000 301.0000 1.0000
48.5100 278.0000 1.0000
48.5200 299.0000 1.0000
48.5300 291.0000 1.0000
48.5400 299.0000 1.0000
48.5500 279.0000 1.0000
48.5600 328.0000 1.0000
48.5700 308.0000 1.0000
48.5800 276.0000 1.0000
48.5900 321.0000 1.0000
48.6000 308.0000 1.0000
48.6100 313.0000 1.0000
48.6200 287.0000 1.0000
48.6300 279.0000 1.0000
48.6400 282.0000 1.0000
48.6500 285.0000 1.0000
48.6600 290.0000 1.0000
48.6700 297.0000 1.0000
48.6800 281.0000 1.0000
48.6900 308.0000 1.0000
48.7000 303.0000 1.0000
48.7100 296.0000 1.0000
48.7200 281.0000 1.0000
48.7300 295.0000 1.0000
48.7400 317.0000 1.0000
48.7500 270.0000 1.0000
48.7600 297.0000 1.0000
48.7700 292.0000 1.0000
48.7800 298.0000 1.0000
48.7900 273.0000 1.0000
48.8000 267.0000 1.0000
48.8100 292.0000 1.0000
48.8200 298.0000 1.0000
48.8300 277.0000 1.0000
48.8400 293.0000 1.0000
48.8500 277.0000 1.0000
48.8600 279.0000 1.0000
48.8700 296.0000 1.0000
48.8800 313.0000 1.0000
48.8900 316.0000 1.0000
48.9000 298.0000 1.0000
48.9100 293.0000 1.0000
48.9200 283.0000 1.0000
48.9300 304.0000 1.0000
48.9400 302.0000 1.0000
48.9500 300.0000 1.0000
48.9600 309.0000 1.0000
48.9700 319.0000 1.0000
48.9800 304.0000 1.0000
48.9900 286.0000 1.0000
49.0000 293.0000 1.0000
49.0100 240.0000 1.0000
49.0200 292.0000 1.0000
49.0300 313.0000 1.0000
49.0400 290.0000 1.0000
49.0500 275.0000 1.0000
49.0600 291.0000 1.0000
49.0700 319.0000 1.0000
49.0800 313.0000 1.0000
49.0900 290.0000 1.0000
49.1000 261.0000 1.0000
49.1100 282.0000 1.0000
49.1200 319.0000 1.0000
49.1300 286.0000 1.0000
49.1400 295.0000 1.0000
49.1500 279.0000 1.0000
49.1600 289.0000 1.0000
49.1700 298.0000 1.0000
49.1800 296.0000 1.0000
49.1900 309.0000 1.0000
49.2000 294.0000 1.0000
49.2100 262.0000 1.0000
49.2200 295.0000 1.0000
49.2300 291.0000 1.0000
49.2400 314.0000 1.0000
49.2500 322.0000 1.0000
49.2600 334.0000 1.0000
49.2700 299.0000 1.0000
49.2800 296.0000 1.0000
49.2900 286.0000 1.0000
49.3000 318.0000 1.0000
49.3100 300.0000 1.0000
49.3200 299.0000 1.0000
49.3300 310.0000 1.0000
49.3400 291.0000 1.0000
49.3500 327.0000 1.0000
49.3600 306.0000 1.0000
49.3700 300.0000 1.0000
49.3800 329.0000 1.0000
49.3900 328.0000 1.0000
49.4000 358.0000 1.0000
49.4100 334.0000 1.0000
49.4200 330.0000 1.0000
49.4300 331.0000 1.0000
49.4400 322.0000 1.0000
49.4500 296.0000 1.0000
49.4600 347.0000 1.0000
49.4700 339.0000 1.0000
49.4800 317.0000 1.0000
49.4900 343.0000 1.0000
49.5000 286.0000 1.0000
49.5100 324.0000 1.0000
49.5200 292.0000 1.0000
49.5300 309.0000 1.0000
49.5400 325.0000 1.0000
49.5500 339.0000 1.0000
49.5600 334.0000 1.0000
49.5700 353.0000 1.0000
49.5800 337.0000 1.0000
49.5900 349.0000 1.0000
49.6000 329.0000 1.0000
49.6100 303.0000 1.0000
49.6200 329.0000 1.0000
49.6300 308.0000 1.0000
49.6400 302.0000 1.0000
49.6500 272.0000 1.0000
49.6600 307.0000 1.0000
49.6700 313.0000 1.0000
49.6800 322.0000 1.0000
49.6900 321.0000 1.0000
49.7000 308.0000 1.0000
49.7100 326.0000 1.0000
49.7200 292.0000 1.0000
49.7300 311.0000 1.0000
49.7400 312.0000 1.0000
49.7500 289.0000 1.0000
49.7600 281.0000 1.0000
49.7700 309.0000 1.0000
49.7800 281.0000 1.0000
49.7900 287.0000 1.0000
49.8000 318.0000 1.0000
49.8100 291.0000 1.0000
49.8200 312.0000 1.0000
49.8300 307.0000 1.0000
49.8400 302.0000 1.0000
49.8500 298.0000 1.0000
49.8600 328.0000 1.0000
49.8700 310.0000 1.0000
49.8800 301.0000 1.0000
49.8900 302.0000 1.0000
49.9000 336.0000 1.0000
49.9100 274.0000 1.0000
49.9200 275.0000 1.0000
49.9300 285.0000 1.0000
49.9400 308.0000 1.0000
49.9500 288.0000 1.0000
49.9600 314.0000 1.0000
49.9700 329.0000 1.0000
49.9800 279.0000 1.0000
49.9900 280.0000 1.0000
50.0000 283.0000 1.0000
50.0100 292.0000 1.0000
50.0200 308.0000 1.0000
50.0300 294.0000 1.0000
50.0400 319.0000 1.0000
50.0500 323.0000 1.0000
50.0600 323.0000 1.0000
50.0700 307.0000 1.0000
50.0800 289.0000 1.0000
50.0900 296.0000 1.0000
50.1000 297.0000 1.0000
50.1100 294.0000 1.0000
50.1200 268.0000 1.0000
50.1300 301.0000 1.0000
50.1400 300.0000 1.0000
50.1500 270.0000 1.0000
50.1600 287.0000 1.0000
50.1700 287.0000 1.0000
50.1800 309.0000 1.0000
50.1900 274.0000 1.0000
50.2000 313.0000 1.0000
50.2100 281.0000 1.0000
50.2200 255.0000 1.0000
50.2300 295.0000 1.0000
50.2400 275.0000 1.0000
50.2500 300.0000 1.0000
50.2600 293.0000 1.0000
50.2700 309.0000 1.0000
50.2800 268.0000 1.0000
50.2900 270.0000 1.0000
50.3000 258.0000 1.0000
50.3100 321.0000 1.0000
50.3200 313.0000 1.0000
50.3300 305.0000 1.0000
50.3400 300.0000 1.0000
50.3500 279.0000 1.0000
50.3600 312.0000 1.0000
50.3700 303.0000 1.0000
50.3800 270.0000 1.0000
50.3900 276.0000 1.0000
50.4000 300.0000 1.0000
50.4100 309.0000 1.0000
50.4200 327.0000 1.0000
50.4300 333.0000 1.0000
50.4400 312.0000 1.0000
50.4500 275.0000 1.0000
50.4600 288.0000 1.0000
50.4700 274.0000 1.0000
50.4800 276.0000 1.0000
50.4900 301.0000 1.0000
50.5000 309.0000 1.0000
50.5100 301.0000 1.0000
50.5200 268.0000 1.0000
50.5300 305.0000 1.0000
50.5400 284.0000 1.0000
50.5500 325.0000 1.0000
50.5600 297.0000 1.0000
50.5700 313.0000 1.0000
50.5800 301.0000 1.0000
50.5900 309.0000 1.0000
50.6000 307.0000 1.0000
50.6100 304.0000 1.0000
50.6200 287.0000 1.0000
50.6300 274.0000 1.0000
50.6400 288.0000 1.0000
50.6500 276.0000 1.0000
50.6600 305.0000 1.0000
50.6700 276.0000 1.0000
50.6800 306.0000 1.0000
50.6900 303.0000 1.0000
50.7000 269.0000 1.0000
50.7100 298.0000 1.0000
50.7200 287.0000 1.0000
50.7300 300.0000 1.0000
50.7400 317.0000 1.0000
50.7500 300.0000 1.0000
50.7600 301.0000 1.0000
50.7700 299.0000 1.0000
50.7800 327.0000 1.0000
50.7900 318.0000 1.0000
50.8000 327.0000 1.0000
50.8100 311.0000 1.0000
50.8200 315.0000 1.0000
50.8300 302.0000 1.0000
50.8400 343.0000 1.0000
50.8500 292.0000 1.0000
50.8600 310.0000 1.0000
50.8700 304.0000 1.0000
50.8800 299.0000 1.0000
50.8900 292.0000 1.0000
50.9000 287.0000 1.0000
50.9100 325.0000 1.0000
50.9200 299.0000 1.0000
50.9300 298.0000 1.0000
50.9400 311.0000 1.0000
50.9500 306.0000 1.0000
50.9600 311.0000 1.0000
50.9700 329.0000 1.0000
50.9800 328.0000 1.0000
50.9900 328.0000 1.0000
51.0000 332.0000 1.0000
51.0100 341.0000 1.0000
51.0200 304.0000 1.0000
51.0300 339.0000 1.0000
51.0400 292.0000 1.0000
51.0500 344.0000 1.0000
51.0600 344.0000 1.0000
51.0700 349.0000 1.0000
51.0800 348.0000 1.0000
51.0900 315.0000 1.0000
51.1000 349.0000 1.0000
51.1100 333.0000 1.0000
51.1200 353.0000 1.0000
51.1300 367.0000 1.0000
51.1400 361.0000 1.0000
51.1500 364.0000 1.0000
51.1600 382.0000 1.0000
51.1700 378.0000 1.0000
51.1800 382.0000 1.0000
51.1900 379.0000 1.0000
51.2000 427.0000 1.0000
51.2100 463.0000 1.0000
51.2200 449.0000 1.0000
51.2300 457.0000 1.0000
51.2400 454.0000 1.0000
51.2500 453.0000 1.0000
51.2600 489.0000 1.0000
51.2700 494.0000 1.0000
51.2800 544.0000 1.0000
51.2900 514.0000 1.0000
51.3000 574.0000 1.0000
51.3100 611.0000 1.0000
51.3200 653.0000 1.0000
51.3300 678.0000 1.0000
51.3400 732.0000 1.0000
51.3500 822.0000 1.0000
51.3600 834.0000 1.0000
51.3700 839.0000 1.0000
51.3800 974.0000 1.0000
51.3900 1037.0000 1.0000
51.4000 1147.0000 1.0000
51.4100 1282.0000 1.0000
51.4200 1329.0000 1.0000
51.4300 1422.0000 1.0000
51.4400 1507.0000 1.0000
51.4500 1653.0000 1.0000
51.4600 1746.0000 1.0000
51.4700 1847.0000 1.0000
51.4800 1919.0000 1.0000
51.4900 1954.0000 1.0000
51.5000 1975.0000 1.0000
51.5100 2006.0000 1.0000
51.5200 1984.0000 1.0000
51.5300 1919.0000 1.0000
51.5400 1856.0000 1.0000
51.5500 1766.0000 1.0000
51.5600 1696.0000 1.0000
51.5700 1584.0000 1.0000
51.5800 1596.0000 1.0000
51.5900 1544.0000 1.0000
51.6000 1559.0000 1.0000
51.6100 1500.0000 1.0000
51.6200 1481.0000 1.0000
51.6300 1465.0000 1.0000
51.6400 1398.0000 1.0000
51.6500 1324.0000 1.0000
51.6600 1229.0000 1.0000
51.6700 1138.0000 1.0000
51.6800 1102.0000 1.0000
51.6900 1040.0000 1.0000
51.7000 1004.0000 1.0000
51.7100 920.0000 1.0000
51.7200 877.0000 1.0000
51.7300 803.0000 1.0000
51.7400 737.0000 1.0000
51.7500 711.0000 1.0000
51.7600 677.0000 1.0000
51.7700 645.0000 1.0000
51.7800 583.0000 1.0000
51.7900 571.0000 1.0000
51.8000 545.0000 1.0000
51.8100 535.0000 1.0000
51.8200 490.0000 1.0000
51.8300 461.0000 1.0000
51.8400 469.0000 1.0000
51.8500 451.0000 1.0000
51.8600 417.0000 1.0000
51.8700 434.0000 1.0000
51.8800 408.0000 1.0000
51.8900 389.0000 1.0000
51.9000 414.0000 1.0000
51.9100 386.0000 1.0000
51.9200 377.0000 1.0000
51.9300 355.0000 1.0000
51.9400 384.0000 1.0000
51.9500 367.0000 1.0000
51.9600 320.0000 1.0000
51.9700 340.0000 1.0000
51.9800 357.0000 1.0000
51.9900 332.0000 1.0000
52.0000 324.0000 1.0000
52.0100 366.0000 1.0000
52.0200 329.0000 1.0000
52.0300 368.0000 1.0000
52.0400 329.0000 1.0000
52.0500 346.0000 1.0000
52.0600 317.0000 1.0000
52.0700 327.0000 1.0000
52.0800 344.0000 1.0000
52.0900 343.0000 1.0000
52.1000 319.0000 1.0000
52.1100 360.0000 1.0000
52.1200 329.0000 1.0000
52.1300 313.0000 1.0000
52.1400 321.0000 1.0000
52.1500 327.0000 1.0000
52.1600 272.0000 1.0000
52.1700 322.0000 1.0000
52.1800 325.0000 1.0000
52.1900 302.0000 1.0000
52.2000 302.0000 1.0000
52.2100 297.0000 1.0000
52.2200 303.0000 1.0000
52.2300 305.0000 1.0000
52.2400 312.0000 1.0000
52.2500 315.0000 1.0000
52.2600 324.0000 1.0000
52.2700 299.0000 1.0000
52.2800 319.0000 1.0000
52.2900 302.0000 1.0000
52.3000 337.0000 1.0000
52.3100 306.0000 1.0000
52.3200 310.0000 1.0000
52.3300 313.0000 1.0000
52.3400 320.0000 1.0000
52.3500 293.0000 1.0000
52.3600 300.0000 1.0000
52.3700 319.0000 1.0000
52.3800 297.0000 1.0000
52.3900 303.0000 1.0000
52.4000 328.0000 1.0000
52.4100 287.0000 1.0000
52.4200 321.0000 1.0000
52.4300 280.0000 1.0000
52.4400 305.0000 1.0000
52.4500 314.0000 1.0000
52.4600 308.0000 1.0000
52.4700 286.0000 1.0000
52.4800 303.0000 1.0000
52.4900 300.0000 1.0000
52.5000 319.0000 1.0000
52.5100 294.0000 1.0000
52.5200 304.0000 1.0000
52.5300 317.0000 1.0000
52.5400 305.0000 1.0000
52.5500 309.0000 1.0000
52.5600 304.0000 1.0000
52.5700 289.0000 1.0000
52.5800 291.0000 1.0000
52.5900 293.0000 1.0000
52.6000 286.0000 1.0000
52.6100 305.0000 1.0000
52.6200 281.0000 1.0000
52.6300 283.0000 1.0000
52.6400 273.0000 1.0000
52.6500 265.0000 1.0000
52.6600 293.0000 1.0000
52.6700 294.0000 1.0000
52.6800 280.0000 1.0000
52.6900 289.0000 1.0000
52.7000 304.0000 1.0000
52.7100 292.0000 1.0000
52.7200 300.0000 1.0000
52.7300 305.0000 1.0000
52.7400 290.0000 1.0000
52.7500 259.0000 1.0000
52.7600 299.0000 1.0000
52.7700 314.0000 1.0000
52.7800 276.0000 1.0000
52.7900 302.0000 1.0000
52.8000 265.0000 1.0000
52.8100 296.0000 1.0000
52.8200 298.0000 1.0000
52.8300 285.0000 1.0000
52.8400 295.0000 1.0000
52.8500 283.0000 1.0000
52.8600 300.0000 1.0000
52.8700 296.0000 1.0000
52.8800 285.0000 1.0000
52.8900 274.0000 1.0000
52.9000 272.0000 1.0000
52.9100 287.0000 1.0000
52.9200 303.0000 1.0000
52.9300 294.0000 1.0000
52.9400 292.0000 1.0000
52.9500 284.0000 1.0000
52.9600 269.0000 1.0000
52.9700 259.0000 1.0000
52.9800 279.0000 1.0000
52.9900 310.0000 1.0000
53.0000 295.0000 1.0000
53.0100 308.0000 1.0000
53.0200 267.0000 1.0000
53.0300 282.0000 1.0000
53.0400 283.0000 1.0000
53.0500 280.0000 1.0000
53.0600 313.0000 1.0000
53.0700 292.0000 1.0000
53.0800 301.0000 1.0000
53.0900 273.0000 1.0000
53.1000 293.0000 1.0000
53.1100 284.0000 1.0000
53.1200 301.0000 1.0000
53.1300 279.0000 1.0000
53.1400 230.0000 1.0000
53.1500 260.0000 1.0000
53.1600 274.0000 1.0000
53.1700 293.0000 1.0000
53.1800 313.0000 1.0000
53.1900 298.0000 1.0000
53.2000 296.0000 1.0000
53.2100 295.0000 1.0000
53.2200 262.0000 1.0000
53.2300 278.0000 1.0000
53.2400 276.0000 1.0000
53.2500 275.0000 1.0000
53.2600 283.0000 1.0000
53.2700 303.0000 1.0000
53.2800 273.0000 1.0000
53.2900 275.0000 1.0000
53.3000 289.0000 1.0000
53.3100 292.0000 1.0000
53.3200 301.0000 1.0000
53.3300 307.0000 1.0000
53.3400 269.0000 1.0000
53.3500 274.0000 1.0000
53.3600 258.0000 1.0000
53.3700 256.0000 1.0000
53.3800 307.0000 1.0000
53.3900 301.0000 1.0000
53.4000 298.0000 1.0000
53.4100 329.0000 1.0000
53.4200 304.0000 1.0000
53.4300 275.0000 1.0000
53.4400 299.0000 1.0000
53.4500 291.0000 1.0000
53.4600 277.0000 1.0000
53.4700 267.0000 1.0000
53.4800 271.0000 1.0000
53.4900 272.0000 1.0000
53.5000 272.0000 1.0000
53.5100 280.0000 1.0000
53.5200 295.0000 1.0000
53.5300 302.0000 1.0000
53.5400 275.0000 1.0000
53.5500 269.0000 1.0000
53.5600 290.0000 1.0000
53.5700 253.0000 1.0000
53.5800 267.0000 1.0000
53.5900 280.0000 1.0000
53.6000 268.0000 1.0000
53.6100 278.0000 1.0000
53.6200 292.0000 1.0000
53.6300 289.0000 1.0000
53.6400 294.0000 1.0000
53.6500 288.0000 1.0000
53.6600 285.0000 1.0000
53.6700 292.0000 1.0000
53.6800 290.0000 1.0000
53.6900 299.0000 1.0000
53.7000 280.0000 1.0000
53.7100 293.0000 1.0000
53.7200 298.0000 1.0000
53.7300 274.0000 1.0000
53.7400 262.0000 1.0000
53.7500 264.0000 1.0000
53.7600 259.0000 1.0000
53.7700 276.0000 1.0000
53.7800 290.0000 1.0000
53.7900 282.0000 1.0000
53.8000 295.0000 1.0000
53.8100 319.0000 1.0000
53.8200 313.0000 1.0000
53.8300 311.0000 1.0000
53.8400 285.0000 1.0000
53.8500 315.0000 1.0000
53.8600 288.0000 1.0000
53.8700 312.0000 1.0000
53.8800 293.0000 1.0000
53.8900 321.0000 1.0000
53.9000 309.0000 1.0000
53.9100 307.0000 1.0000
53.9200 285.0000 1.0000
53.9300 288.0000 1.0000
53.9400 322.0000 1.0000
53.9500 329.0000 1.0000
53.9600 350.0000 1.0000
53.9700 319.0000 1.0000
53.9800 332.0000 1.0000
53.9900 326.0000 1.0000
54.0000 322.0000 1.0000
54.0100 327.0000 1.0000
54.0200 363.0000 1.0000
54.0300 333.0000 1.0000
54.0400 323.0000 1.0000
54.0500 329.0000 1.0000
54.0600 336.0000 1.0000
54.0700 310.0000 1.0000
54.0800 305.0000 1.0000
54.0900 334.0000 1.0000
54.1000 311.0000 1.0000
54.1100 328.0000 1.0000
54.1200 306.0000 1.0000
54.1300 306.0000 1.0000
54.1400 320.0000 1.0000
54.1500 284.0000 1.0000
54.1600 285.0000 1.0000
54.1700 326.0000 1.0000
54.1800 305.0000 1.0000
54.1900 300.0000 1.0000
54.2000 334.0000 1.0000
54.2100 316.0000 1.0000
54.2200 348.0000 1.0000
54.2300 329.0000 1.0000
54.2400 313.0000 1.0000
54.2500 305.0000 1.0000
54.2600 282.0000 1.0000
54.2700 313.0000 1.0000
54.2800 303.0000 1.0000
54.2900 310.0000 1.0000
54.3000 333.0000 1.0000
54.3100 323.0000 1.0000
54.3200 317.0000 1.0000
54.3300 342.0000 1.0000
54.3400 333.0000 1.0000
54.3500 340.0000 1.0000
54.3600 342.0000 1.0000
54.3700 350.0000 1.0000
54.3800 345.0000 1.0000
54.3900 371.0000 1.0000
54.4000 361.0000 1.0000
54.4100 355.0000 1.0000
54.4200 388.0000 1.0000
54.4300 396.0000 1.0000
54.4400 380.0000 1.0000
54.4500 376.0000 1.0000
54.4600 391.0000 1.0000
54.4700 404.0000 1.0000
54.4800 384.0000 1.0000
54.4900 420.0000 1.0000
54.5000 405.0000 1.0000
54.5100 433.0000 1.0000
54.5200 430.0000 1.0000
54.5300 412.0000 1.0000
54.5400 403.0000 1.0000
54.5500 436.0000 1.0000
54.5600 436.0000 1.0000
54.5700 414.0000 1.0000
54.5800 424.0000 1.0000
54.5900 420.0000 1.0000
54.6000 409.0000 1.0000
54.6100 394.0000 1.0000
54.6200 400.0000 1.0000
54.6300 413.0000 1.0000
54.6400 407.0000 1.0000
54.6500 393.0000 1.0000
54.6600 378.0000 1.0000
54.6700 380.0000 1.0000
54.6800 351.0000 1.0000
54.6900 387.0000 1.0000
54.7000 397.0000 1.0000
54.7100 389.0000 1.0000
54.7200 355.0000 1.0000
54.7300 353.0000 1.0000
54.7400 366.0000 1.0000
54.7500 332.0000 1.0000
54.7600 342.0000 1.0000
54.7700 340.0000 1.0000
54.7800 312.0000 1.0000
54.7900 336.0000 1.0000
54.8000 344.0000 1.0000
54.8100 323.0000 1.0000
54.8200 316.0000 1.0000
54.8300 312.0000 1.0000
54.8400 345.0000 1.0000
54.8500 302.0000 1.0000
54.8600 305.0000 1.0000
54.8700 285.0000 1.0000
54.8800 305.0000 1.0000
54.8900 298.0000 1.0000
54.9000 289.0000 1.0000
54.9100 311.0000 1.0000
54.9200 310.0000 1.0000
54.9300 304.0000 1.0000
54.9400 286.0000 1.0000
54.9500 275.0000 1.0000
54.9600 306.0000 1.0000
54.9700 287.0000 1.0000
54.9800 310.0000 1.0000
54.9900 308.0000 1.0000
55.0000 313.0000 1.0000
55.0100 300.0000 1.0000
55.0200 281.0000 1.0000
55.0300 285.0000 1.0000
55.0400 291.0000 1.0000
55.0500 270.0000 1.0000
55.0600 305.0000 1.0000
55.0700 281.0000 1.0000
55.0800 272.0000 1.0000
55.0900 306.0000 1.0000
55.1000 296.0000 1.0000
55.1100 265.0000 1.0000
55.1200 306.0000 1.0000
55.1300 308.0000 1.0000
55.1400 268.0000 1.0000
55.1500 253.0000 1.0000
55.1600 262.0000 1.0000
55.1700 303.0000 1.0000
55.1800 291.0000 1.0000
55.1900 300.0000 1.0000
55.2000 285.0000 1.0000
55.2100 281.0000 1.0000
55.2200 299.0000 1.0000
55.2300 290.0000 1.0000
55.2400 281.0000 1.0000
55.2500 304.0000 1.0000
55.2600 279.0000 1.0000
55.2700 272.0000 1.0000
55.2800 264.0000 1.0000
55.2900 269.0000 1.0000
55.3000 305.0000 1.0000
55.3100 267.0000 1.0000
55.3200 257.0000 1.0000
55.3300 286.0000 1.0000
55.3400 256.0000 1.0000
55.3500 279.0000 1.0000
55.3600 289.0000 1.0000
55.3700 275.0000 1.0000
55.3800 247.0000 1.0000
55.3900 265.0000 1.0000
55.4000 252.0000 1.0000
55.4100 264.0000 1.0000
55.4200 287.0000 1.0000
55.4300 267.0000 1.0000
55.4400 270.0000 1.0000
55.4500 258.0000 1.0000
55.4600 273.0000 1.0000
55.4700 273.0000 1.0000
55.4800 258.0000 1.0000
55.4900 256.0000 1.0000
55.5000 262.0000 1.0000
55.5100 262.0000 1.0000
55.5200 290.0000 1.0000
55.5300 285.0000 1.0000
55.5400 257.0000 1.0000
55.5500 263.0000 1.0000
55.5600 270.0000 1.0000
55.5700 273.0000 1.0000
55.5800 269.0000 1.0000
55.5900 266.0000 1.0000
55.6000 281.0000 1.0000
55.6100 268.0000 1.0000
55.6200 288.0000 1.0000
55.6300 283.0000 1.0000
55.6400 277.0000 1.0000
55.6500 271.0000 1.0000
55.6600 268.0000 1.0000
55.6700 252.0000 1.0000
55.6800 274.0000 1.0000
55.6900 279.0000 1.0000
55.7000 267.0000 1.0000
55.7100 224.0000 1.0000
55.7200 260.0000 1.0000
55.7300 275.0000 1.0000
55.7400 250.0000 1.0000
55.7500 249.0000 1.0000
55.7600 285.0000 1.0000
55.7700 265.0000 1.0000
55.7800 296.0000 1.0000
55.7900 273.0000 1.0000
55.8000 265.0000 1.0000
55.8100 268.0000 1.0000
55.8200 258.0000 1.0000
55.8300 253.0000 1.0000
55.8400 287.0000 1.0000
55.8500 284.0000 1.0000
55.8600 286.0000 1.0000
55.8700 268.0000 1.0000
55.8800 270.0000 1.0000
55.8900 263.0000 1.0000
55.9000 280.0000 1.0000
55.9100 280.0000 1.0000
55.9200 256.0000 1.0000
55.9300 280.0000 1.0000
55.9400 266.0000 1.0000
55.9500 263.0000 1.0000
55.9600 273.0000 1.0000
55.9700 258.0000 1.0000
55.9800 250.0000 1.0000
55.9900 260.0000 1.0000
56.0000 262.0000 1.0000
56.0100 283.0000 1.0000
56.0200 276.0000 1.0000
56.0300 255.0000 1.0000
56.0400 272.0000 1.0000
56.0500 270.0000 1.0000
56.0600 273.0000 1.0000
56.0700 254.0000 1.0000
56.0800 259.0000 1.0000
56.0900 290.0000 1.0000
56.1000 287.0000 1.0000
56.1100 258.0000 1.0000
56.1200 285.0000 1.0000
56.1300 250.0000 1.0000
56.1400 279.0000 1.0000
56.1500 279.0000 1.0000
56.1600 282.0000 1.0000
56.1700 266.0000 1.0000
56.1800 278.0000 1.0000
56.1900 274.0000 1.0000
56.2000 238.0000 1.0000
56.2100 257.0000 1.0000
56.2200 262.0000 1.0000
56.2300 267.0000 1.0000
56.2400 273.0000 1.0000
56.2500 269.0000 1.0000
56.2600 277.0000 1.0000
56.2700 276.0000 1.0000
56.2800 273.0000 1.0000
56.2900 281.0000 1.0000
56.3000 283.0000 1.0000
56.3100 279.0000 1.0000
56.3200 261.0000 1.0000
56.3300 255.0000 1.0000
56.3400 279.0000 1.0000
56.3500 274.0000 1.0000
56.3600 258.0000 1.0000
56.3700 283.0000 1.0000
56.3800 287.0000 1.0000
56.3900 277.0000 1.0000
56.4000 281.0000 1.0000
56.4100 275.0000 1.0000
56.4200 271.0000 1.0000
56.4300 267.0000 1.0000
56.4400 279.0000 1.0000
56.4500 257.0000 1.0000
56.4600 255.0000 1.0000
56.4700 262.0000 1.0000
56.4800 257.0000 1.0000
56.4900 276.0000 1.0000
56.5000 267.0000 1.0000
56.5100 268.0000 1.0000
56.5200 238.0000 1.0000
56.5300 277.0000 1.0000
56.5400 269.0000 1.0000
56.5500 236.0000 1.0000
56.5600 284.0000 1.0000
56.5700 272.0000 1.0000
56.5800 277.0000 1.0000
56.5900 290.0000 1.0000
56.6000 285.0000 1.0000
56.6100 276.0000 1.0000
56.6200 276.0000 1.0000
56.6300 272.0000 1.0000
56.6400 265.0000 1.0000
56.6500 256.0000 1.0000
56.6600 279.0000 1.0000
56.6700 278.0000 1.0000
56.6800 266.0000 1.0000
56.6900 251.0000 1.0000
56.7000 296.0000 1.0000
56.7100 244.0000 1.0000
56.7200 286.0000 1.0000
56.7300 266.0000 1.0000
56.7400 256.0000 1.0000
56.7500 266.0000 1.0000
56.7600 309.0000 1.0000
56.7700 279.0000 1.0000
56.7800 278.0000 1.0000
56.7900 249.0000 1.0000
56.8000 258.0000 1.0000
56.8100 244.0000 1.0000
56.8200 268.0000 1.0000
56.8300 281.0000 1.0000
56.8400 250.0000 1.0000
56.8500 283.0000 1.0000
56.8600 294.0000 1.0000
56.8700 288.0000 1.0000
56.8800 257.0000 1.0000
56.8900 263.0000 1.0000
56.9000 273.0000 1.0000
56.9100 276.0000 1.0000
56.9200 262.0000 1.0000
56.9300 287.0000 1.0000
56.9400 243.0000 1.0000
56.9500 244.0000 1.0000
56.9600 273.0000 1.0000
56.9700 262.0000 1.0000
56.9800 268.0000 1.0000
56.9900 250.0000 1.0000
57.0000 263.0000 1.0000
57.0100 291.0000 1.0000
57.0200 275.0000 1.0000
57.0300 265.0000 1.0000
57.0400 251.0000 1.0000
57.0500 256.0000 1.0000
57.0600 287.0000 1.0000
57.0700 277.0000 1.0000
57.0800 273.0000 1.0000
57.0900 273.0000 1.0000
57.1000 273.0000 1.0000
57.1100 272.0000 1.0000
57.1200 292.0000 1.0000
57.1300 264.0000 1.0000
57.1400 290.0000 1.0000
57.1500 269.0000 1.0000
57.1600 248.0000 1.0000
57.1700 273.0000 1.0000
57.1800 272.0000 1.0000
57.1900 240.0000 1.0000
57.2000 256.0000 1.0000
57.2100 289.0000 1.0000
57.2200 283.0000 1.0000
57.2300 278.0000 1.0000
57.2400 270.0000 1.0000
57.2500 252.0000 1.0000
57.2600 297.0000 1.0000
57.2700 282.0000 1.0000
57.2800 257.0000 1.0000
57.2900 280.0000 1.0000
57.3000 303.0000 1.0000
57.3100 283.0000 1.0000
57.3200 277.0000 1.0000
57.3300 298.0000 1.0000
57.3400 296.0000 1.0000
57.3500 257.0000 1.0000
57.3600 298.0000 1.0000
57.3700 277.0000 1.0000
57.3800 246.0000 1.0000
57.3900 260.0000 1.0000
57.4000 239.0000 1.0000
57.4100 273.0000 1.0000
57.4200 258.0000 1.0000
57.4300 280.0000 1.0000
57.4400 287.0000 1.0000
57.4500 275.0000 1.0000
57.4600 252.0000 1.0000
57.4700 257.0000 1.0000
57.4800 276.0000 1.0000
57.4900 283.0000 1.0000
57.5000 278.0000 1.0000
57.5100 256.0000 1.0000
57.5200 284.0000 1.0000
57.5300 270.0000 1.0000
57.5400 266.0000 1.0000
57.5500 270.0000 1.0000
57.5600 288.0000 1.0000
57.5700 265.0000 1.0000
57.5800 260.0000 1.0000
57.5900 284.0000 1.0000
57.6000 249.0000 1.0000
57.6100 294.0000 1.0000
57.6200 286.0000 1.0000
57.6300 259.0000 1.0000
57.6400 265.0000 1.0000
57.6500 256.0000 1.0000
57.6600 268.0000 1.0000
57.6700 271.0000 1.0000
57.6800 274.0000 1.0000
57.6900 276.0000 1.0000
57.7000 258.0000 1.0000
57.7100 301.0000 1.0000
57.7200 279.0000 1.0000
57.7300 275.0000 1.0000
57.7400 235.0000 1.0000
57.7500 267.0000 1.0000
57.7600 257.0000 1.0000
57.7700 271.0000 1.0000
57.7800 265.0000 1.0000
57.7900 256.0000 1.0000
57.8000 261.0000 1.0000
57.8100 243.0000 1.0000
57.8200 263.0000 1.0000
57.8300 282.0000 1.0000
57.8400 283.0000 1.0000
57.8500 263.0000 1.0000
57.8600 268.0000 1.0000
57.8700 300.0000 1.0000
57.8800 291.0000 1.0000
57.8900 255.0000 1.0000
57.9000 272.0000 1.0000
57.9100 302.0000 1.0000
57.9200 275.0000 1.0000
57.9300 269.0000 1.0000
57.9400 274.0000 1.0000
57.9500 258.0000 1.0000
57.9600 257.0000 1.0000
57.9700 285.0000 1.0000
57.9800 284.0000 1.0000
57.9900 289.0000 1.0000
58.0000 262.0000 1.0000
58.0100 274.0000 1.0000
58.0200 256.0000 1.0000
58.0300 283.0000 1.0000
58.0400 269.0000 1.0000
58.0500 253.0000 1.0000
58.0600 273.0000 1.0000
58.0700 272.0000 1.0000
58.0800 262.0000 1.0000
58.0900 258.0000 1.0000
58.1000 251.0000 1.0000
58.1100 258.0000 1.0000
58.1200 274.0000 1.0000
58.1300 288.0000 1.0000
58.1400 255.0000 1.0000
58.1500 241.0000 1.0000
58.1600 279.0000 1.0000
58.1700 273.0000 1.0000
58.1800 286.0000 1.0000
58.1900 274.0000 1.0000
58.2000 272.0000 1.0000
58.2100 281.0000 1.0000
58.2200 254.0000 1.0000
58.2300 252.0000 1.0000
58.2400 269.0000 1.0000
58.2500 273.0000 1.0000
58.2600 253.0000 1.0000
58.2700 274.0000 1.0000
58.2800 264.0000 1.0000
58.2900 269.0000 1.0000
58.3000 266.0000 1.0000
58.3100 267.0000 1.0000
58.3200 237.0000 1.0000
58.3300 269.0000 1.0000
58.3400 242.0000 1.0000
58.3500 293.0000 1.0000
58.3600 278.0000 1.0000
58.3700 253.0000 1.0000
58.3800 264.0000 1.0000
58.3900 261.0000 1.0000
58.4000 244.0000 1.0000
58.4100 260.0000 1.0000
58.4200 259.0000 1.0000
58.4300 266.0000 1.0000
58.4400 255.0000 1.0000
58.4500 271.0000 1.0000
58.4600 283.0000 1.0000
58.4700 280.0000 1.0000
58.4800 285.0000 1.0000
58.4900 259.0000 1.0000
58.5000 269.0000 1.0000
58.5100 268.0000 1.0000
58.5200 272.0000 1.0000
58.5300 271.0000 1.0000
58.5400 276.0000 1.0000
58.5500 278.0000 1.0000
58.5600 284.0000 1.0000
58.5700 265.0000 1.0000
58.5800 265.0000 1.0000
58.5900 281.0000 1.0000
58.6000 263.0000 1.0000
58.6100 259.0000 1.0000
58.6200 282.0000 1.0000
58.6300 267.0000 1.0000
58.6400 249.0000 1.0000
58.6500 292.0000 1.0000
58.6600 262.0000 1.0000
58.6700 255.0000 1.0000
58.6800 263.0000 1.0000
58.6900 257.0000 1.0000
58.7000 278.0000 1.0000
58.7100 290.0000 1.0000
58.7200 274.0000 1.0000
58.7300 273.0000 1.0000
58.7400 274.0000 1.0000
58.7500 275.0000 1.0000
58.7600 271.0000 1.0000
58.7700 277.0000 1.0000
58.7800 278.0000 1.0000
58.7900 242.0000 1.0000
58.8000 249.0000 1.0000
58.8100 280.0000 1.0000
58.8200 273.0000 1.0000
58.8300 302.0000 1.0000
58.8400 258.0000 1.0000
58.8500 273.0000 1.0000
58.8600 291.0000 1.0000
58.8700 277.0000 1.0000
58.8800 262.0000 1.0000
58.8900 283.0000 1.0000
58.9000 280.0000 1.0000
58.9100 296.0000 1.0000
58.9200 257.0000 1.0000
58.9300 277.0000 1.0000
58.9400 274.0000 1.0000
58.9500 259.0000 1.0000
58.9600 271.0000 1.0000
58.9700 261.0000 1.0000
58.9800 256.0000 1.0000
58.9900 244.0000 1.0000
59.0000 236.0000 1.0000
59.0100 271.0000 1.0000
59.0200 229.0000 1.0000
59.0300 269.0000 1.0000
59.0400 262.0000 1.0000
59.0500 266.0000 1.0000
59.0600 246.0000 1.0000
59.0700 244.0000 1.0000
59.0800 264.0000 1.0000
59.0900 248.0000 1.0000
59.1000 247.0000 1.0000
59.1100 245.0000 1.0000
59.1200 278.0000 1.0000
59.1300 283.0000 1.0000
59.1400 262.0000 1.0000
59.1500 269.0000 1.0000
59.1600 257.0000 1.0000
59.1700 268.0000 1.0000
59.1800 267.0000 1.0000
59.1900 269.0000 1.0000
59.2000 250.0000 1.0000
59.2100 274.0000 1.0000
59.2200 271.0000 1.0000
59.2300 297.0000 1.0000
59.2400 263.0000 1.0000
59.2500 265.0000 1.0000
59.2600 267.0000 1.0000
59.2700 261.0000 1.0000
59.2800 245.0000 1.0000
59.2900 251.0000 1.0000
59.3000 280.0000 1.0000
59.3100 269.0000 1.0000
59.3200 261.0000 1.0000
59.3300 277.0000 1.0000
59.3400 292.0000 1.0000
59.3500 273.0000 1.0000
59.3600 293.0000 1.0000
59.3700 279.0000 1.0000
59.3800 279.0000 1.0000
59.3900 259.0000 1.0000
59.4000 253.0000 1.0000
59.4100 279.0000 1.0000
59.4200 278.0000 1.0000
59.4300 258.0000 1.0000
59.4400 289.0000 1.0000
59.4500 299.0000 1.0000
59.4600 263.0000 1.0000
59.4700 253.0000 1.0000
59.4800 288.0000 1.0000
59.4900 285.0000 1.0000
59.5000 253.0000 1.0000
59.5100 291.0000 1.0000
59.5200 265.0000 1.0000
59.5300 273.0000 1.0000
59.5400 261.0000 1.0000
59.5500 271.0000 1.0000
59.5600 249.0000 1.0000
59.5700 277.0000 1.0000
59.5800 277.0000 1.0000
59.5900 251.0000 1.0000
59.6000 255.0000 1.0000
59.6100 245.0000 1.0000
59.6200 274.0000 1.0000
59.6300 244.0000 1.0000
59.6400 263.0000 1.0000
59.6500 262.0000 1.0000
59.6600 271.0000 1.0000
59.6700 240.0000 1.0000
59.6800 261.0000 1.0000
59.6900 255.0000 1.0000
59.7000 262.0000 1.0000
59.7100 284.0000 1.0000
59.7200 253.0000 1.0000
59.7300 274.0000 1.0000
59.7400 266.0000 1.0000
59.7500 269.0000 1.0000
59.7600 270.0000 1.0000
59.7700 275.0000 1.0000
59.7800 264.0000 1.0000
59.7900 255.0000 1.0000
59.8000 272.0000 1.0000
59.8100 275.0000 1.0000
59.8200 275.0000 1.0000
59.8300 266.0000 1.0000
59.8400 268.0000 1.0000
59.8500 259.0000 1.0000
59.8600 257.0000 1.0000
59.8700 282.0000 1.0000
59.8800 268.0000 1.0000
59.8900 294.0000 1.0000
59.9000 277.0000 1.0000
59.9100 261.0000 1.0000
59.9200 275.0000 1.0000
59.9300 269.0000 1.0000
59.9400 264.0000 1.0000
59.9500 279.0000 1.0000
59.9600 288.0000 1.0000
59.9700 263.0000 1.0000
59.9800 238.0000 1.0000
59.9900 253.0000 1.0000
60.0000 253.0000 1.0000
60.0100 249.0000 1.0000
60.0200 255.0000 1.0000
60.0300 284.0000 1.0000
60.0400 255.0000 1.0000
60.0500 251.0000 1.0000
60.0600 258.0000 1.0000
60.0700 290.0000 1.0000
60.0800 273.0000 1.0000
60.0900 270.0000 1.0000
60.1000 280.0000 1.0000
60.1100 257.0000 1.0000
60.1200 267.0000 1.0000
60.1300 249.0000 1.0000
60.1400 238.0000 1.0000
60.1500 240.0000 1.0000
60.1600 260.0000 1.0000
60.1700 273.0000 1.0000
60.1800 258.0000 1.0000
60.1900 261.0000 1.0000
60.2000 264.0000 1.0000
60.2100 270.0000 1.0000
60.2200 267.0000 1.0000
60.2300 275.0000 1.0000
60.2400 261.0000 1.0000
60.2500 278.0000 1.0000
60.2600 260.0000 1.0000
60.2700 275.0000 1.0000
60.2800 274.0000 1.0000
60.2900 274.0000 1.0000
60.3000 268.0000 1.0000
60.3100 277.0000 1.0000
60.3200 262.0000 1.0000
60.3300 266.0000 1.0000
60.3400 241.0000 1.0000
60.3500 272.0000 1.0000
60.3600 257.0000 1.0000
60.3700 286.0000 1.0000
60.3800 264.0000 1.0000
60.3900 269.0000 1.0000
60.4000 263.0000 1.0000
60.4100 249.0000 1.0000
60.4200 271.0000 1.0000
60.4300 273.0000 1.0000
60.4400 236.0000 1.0000
60.4500 282.0000 1.0000
60.4600 256.0000 1.0000
60.4700 254.0000 1.0000
60.4800 269.0000 1.0000
60.4900 286.0000 1.0000
60.5000 271.0000 1.0000
60.5100 262.0000 1.0000
60.5200 275.0000 1.0000
60.5300 267.0000 1.0000
60.5400 263.0000 1.0000
60.5500 249.0000 1.0000
60.5600 278.0000 1.0000
60.5700 254.0000 1.0000
60.5800 260.0000 1.0000
60.5900 255.0000 1.0000
60.6000 273.0000 1.0000
60.6100 257.0000 1.0000
60.6200 274.0000 1.0000
60.6300 280.0000 1.0000
60.6400 298.0000 1.0000
60.6500 292.0000 1.0000
60.6600 248.0000 1.0000
60.6700 253.0000 1.0000
60.6800 263.0000 1.0000
60.6900 247.0000 1.0000
60.7000 286.0000 1.0000
60.7100 305.0000 1.0000
60.7200 279.0000 1.0000
60.7300 306.0000 1.0000
60.7400 250.0000 1.0000
60.7500 252.0000 1.0000
60.7600 262.0000 1.0000
60.7700 279.0000 1.0000
60.7800 250.0000 1.0000
60.7900 261.0000 1.0000
60.8000 283.0000 1.0000
60.8100 293.0000 1.0000
60.8200 260.0000 1.0000
60.8300 249.0000 1.0000
60.8400 277.0000 1.0000
60.8500 269.0000 1.0000
60.8600 263.0000 1.0000
60.8700 277.0000 1.0000
60.8800 259.0000 1.0000
60.8900 277.0000 1.0000
60.9000 279.0000 1.0000
60.9100 264.0000 1.0000
60.9200 272.0000 1.0000
60.9300 258.0000 1.0000
60.9400 273.0000 1.0000
60.9500 276.0000 1.0000
60.9600 265.0000 1.0000
60.9700 289.0000 1.0000
60.9800 263.0000 1.0000
60.9900 266.0000 1.0000
61.0000 294.0000 1.0000
61.0100 279.0000 1.0000
61.0200 301.0000 1.0000
61.0300 271.0000 1.0000
61.0400 271.0000 1.0000
61.0500 285.0000 1.0000
61.0600 287.0000 1.0000
61.0700 298.0000 1.0000
61.0800 277.0000 1.0000
61.0900 293.0000 1.0000
61.1000 294.0000 1.0000
61.1100 306.0000 1.0000
61.1200 281.0000 1.0000
61.1300 293.0000 1.0000
61.1400 316.0000 1.0000
61.1500 291.0000 1.0000
61.1600 308.0000 1.0000
61.1700 302.0000 1.0000
61.1800 315.0000 1.0000
61.1900 318.0000 1.0000
61.2000 309.0000 1.0000
61.2100 296.0000 1.0000
61.2200 311.0000 1.0000
61.2300 336.0000 1.0000
61.2400 297.0000 1.0000
61.2500 309.0000 1.0000
61.2600 321.0000 1.0000
61.2700 328.0000 1.0000
61.2800 344.0000 1.0000
61.2900 348.0000 1.0000
61.3000 334.0000 1.0000
61.3100 361.0000 1.0000
61.3200 344.0000 1.0000
61.3300 372.0000 1.0000
61.3400 426.0000 1.0000
61.3500 405.0000 1.0000
61.3600 385.0000 1.0000
61.3700 386.0000 1.0000
61.3800 415.0000 1.0000
61.3900 419.0000 1.0000
61.4000 410.0000 1.0000
61.4100 453.0000 1.0000
61.4200 466.0000 1.0000
61.4300 461.0000 1.0000
61.4400 480.0000 1.0000
61.4500 482.0000 1.0000
61.4600 508.0000 1.0000
61.4700 519.0000 1.0000
61.4800 496.0000 1.0000
61.4900 527.0000 1.0000
61.5000 540.0000 1.0000
61.5100 545.0000 1.0000
61.5200 515.0000 1.0000
61.5300 559.0000 1.0000
61.5400 554.0000 1.0000
61.5500 564.0000 1.0000
61.5600 565.0000 1.0000
61.5700 554.0000 1.0000
61.5800 576.0000 1.0000
61.5900 552.0000 1.0000
61.6000 566.0000 1.0000
61.6100 547.0000 1.0000
61.6200 579.0000 1.0000
61.6300 567.0000 1.0000
61.6400 593.0000 1.0000
61.6500 557.0000 1.0000
61.6600 548.0000 1.0000
61.6700 514.0000 1.0000
61.6800 500.0000 1.0000
61.6900 523.0000 1.0000
61.7000 505.0000 1.0000
61.7100 503.0000 1.0000
61.7200 517.0000 1.0000
61.7300 512.0000 1.0000
61.7400 493.0000 1.0000
61.7500 477.0000 1.0000
61.7600 486.0000 1.0000
61.7700 488.0000 1.0000
61.7800 445.0000 1.0000
61.7900 439.0000 1.0000
61.8000 439.0000 1.0000
61.8100 431.0000 1.0000
61.8200 407.0000 1.0000
61.8300 429.0000 1.0000
61.8400 380.0000 1.0000
61.8500 379.0000 1.0000
61.8600 410.0000 1.0000
61.8700 382.0000 1.0000
61.8800 409.0000 1.0000
61.8900 376.0000 1.0000
61.9000 332.0000 1.0000
61.9100 341.0000 1.0000
61.9200 325.0000 1.0000
61.9300 364.0000 1.0000
61.9400 357.0000 1.0000
61.9500 338.0000 1.0000
61.9600 340.0000 1.0000
61.9700 327.0000 1.0000
61.9800 337.0000 1.0000
61.9900 330.0000 1.0000
62.0000 295.0000 1.0000
62.0100 324.0000 1.0000
62.0200 333.0000 1.0000
62.0300 303.0000 1.0000
62.0400 313.0000 1.0000
62.0500 314.0000 1.0000
62.0600 320.0000 1.0000
62.0700 306.0000 1.0000
62.0800 301.0000 1.0000
62.0900 287.0000 1.0000
62.1000 307.0000 1.0000
62.1100 283.0000 1.0000
62.1200 297.0000 1.0000
62.1300 292.0000 1.0000
62.1400 305.0000 1.0000
62.1500 315.0000 1.0000
62.1600 314.0000 1.0000
62.1700 305.0000 1.0000
62.1800 294.0000 1.0000
62.1900 268.0000 1.0000
62.2000 294.0000 1.0000
62.2100 263.0000 1.0000
62.2200 278.0000 1.0000
62.2300 318.0000 1.0000
62.2400 315.0000 1.0000
62.2500 297.0000 1.0000
62.2600 295.0000 1.0000
62.2700 302.0000 1.0000
62.2800 294.0000 1.0000
62.2900 321.0000 1.0000
62.3000 322.0000 1.0000
62.3100 300.0000 1.0000
62.3200 311.0000 1.0000
62.3300 290.0000 1.0000
62.3400 306.0000 1.0000
62.3500 277.0000 1.0000
62.3600 274.0000 1.0000
62.3700 294.0000 1.0000
62.3800 304.0000 1.0000
62.3900 313.0000 1.0000
62.4000 287.0000 1.0000
62.4100 303.0000 1.0000
62.4200 294.0000 1.0000
62.4300 304.0000 1.0000
62.4400 281.0000 1.0000
62.4500 301.0000 1.0000
62.4600 277.0000 1.0000
62.4700 263.0000 1.0000
62.4800 298.0000 1.0000
62.4900 311.0000 1.0000
62.5000 286.0000 1.0000
62.5100 269.0000 1.0000
62.5200 288.0000 1.0000
62.5300 290.0000 1.0000
62.5400 273.0000 1.0000
62.5500 282.0000 1.0000
62.5600 295.0000 1.0000
62.5700 275.0000 1.0000
62.5800 281.0000 1.0000
62.5900 301.0000 1.0000
62.6000 247.0000 1.0000
62.6100 272.0000 1.0000
62.6200 291.0000 1.0000
62.6300 302.0000 1.0000
62.6400 277.0000 1.0000
62.6500 281.0000 1.0000
62.6600 271.0000 1.0000
62.6700 282.0000 1.0000
62.6800 279.0000 1.0000
62.6900 283.0000 1.0000
62.7000 252.0000 1.0000
62.7100 266.0000 1.0000
62.7200 241.0000 1.0000
62.7300 267.0000 1.0000
62.7400 269.0000 1.0000
62.7500 293.0000 1.0000
62.7600 308.0000 1.0000
62.7700 278.0000 1.0000
62.7800 250.0000 1.0000
62.7900 256.0000 1.0000
62.8000 251.0000 1.0000
62.8100 264.0000 1.0000
62.8200 275.0000 1.0000
62.8300 288.0000 1.0000
62.8400 292.0000 1.0000
62.8500 282.0000 1.0000
62.8600 272.0000 1.0000
62.8700 268.0000 1.0000
62.8800 254.0000 1.0000
62.8900 234.0000 1.0000
62.9000 255.0000 1.0000
62.9100 258.0000 1.0000
62.9200 250.0000 1.0000
62.9300 249.0000 1.0000
62.9400 251.0000 1.0000
62.9500 247.0000 1.0000
62.9600 278.0000 1.0000
62.9700 260.0000 1.0000
62.9800 270.0000 1.0000
62.9900 278.0000 1.0000
63.0000 288.0000 1.0000
63.0100 258.0000 1.0000
63.0200 276.0000 1.0000
63.0300 243.0000 1.0000
63.0400 285.0000 1.0000
63.0500 269.0000 1.0000
63.0600 248.0000 1.0000
63.0700 275.0000 1.0000
63.0800 267.0000 1.0000
63.0900 289.0000 1.0000
63.1000 264.0000 1.0000
63.1100 266.0000 1.0000
63.1200 266.0000 1.0000
63.1300 286.0000 1.0000
63.1400 275.0000 1.0000
63.1500 273.0000 1.0000
63.1600 271.0000 1.0000
63.1700 279.0000 1.0000
63.1800 262.0000 1.0000
63.1900 243.0000 1.0000
63.2000 245.0000 1.0000
63.2100 267.0000 1.0000
63.2200 265.0000 1.0000
63.2300 258.0000 1.0000
63.2400 237.0000 1.0000
63.2500 270.0000 1.0000
63.2600 292.0000 1.0000
63.2700 238.0000 1.0000
63.2800 233.0000 1.0000
63.2900 251.0000 1.0000
63.3000 270.0000 1.0000
63.3100 236.0000 1.0000
63.3200 270.0000 1.0000
63.3300 250.0000 1.0000
63.3400 271.0000 1.0000
63.3500 279.0000 1.0000
63.3600 259.0000 1.0000
63.3700 283.0000 1.0000
63.3800 251.0000 1.0000
63.3900 234.0000 1.0000
63.4000 239.0000 1.0000
63.4100 258.0000 1.0000
63.4200 281.0000 1.0000
63.4300 251.0000 1.0000
63.4400 255.0000 1.0000
63.4500 254.0000 1.0000
63.4600 264.0000 1.0000
63.4700 273.0000 1.0000
63.4800 271.0000 1.0000
63.4900 267.0000 1.0000
63.5000 253.0000 1.0000
63.5100 244.0000 1.0000
63.5200 255.0000 1.0000
63.5300 265.0000 1.0000
63.5400 257.0000 1.0000
63.5500 262.0000 1.0000
63.5600 288.0000 1.0000
63.5700 255.0000 1.0000
63.5800 279.0000 1.0000
63.5900 269.0000 1.0000
63.6000 278.0000 1.0000
63.6100 267.0000 1.0000
63.6200 266.0000 1.0000
63.6300 275.0000 1.0000
63.6400 287.0000 1.0000
63.6500 273.0000 1.0000
63.6600 280.0000 1.0000
63.6700 282.0000 1.0000
63.6800 263.0000 1.0000
63.6900 263.0000 1.0000
63.7000 258.0000 1.0000
63.7100 278.0000 1.0000
63.7200 273.0000 1.0000
63.7300 274.0000 1.0000
63.7400 296.0000 1.0000
63.7500 267.0000 1.0000
63.7600 300.0000 1.0000
63.7700 295.0000 1.0000
63.7800 285.0000 1.0000
63.7900 330.0000 1.0000
63.8000 303.0000 1.0000
63.8100 296.0000 1.0000
63.8200 299.0000 1.0000
63.8300 278.0000 1.0000
63.8400 297.0000 1.0000
63.8500 311.0000 1.0000
63.8600 309.0000 1.0000
63.8700 333.0000 1.0000
63.8800 284.0000 1.0000
63.8900 309.0000 1.0000
63.9000 309.0000 1.0000
63.9100 290.0000 1.0000
63.9200 319.0000 1.0000
63.9300 316.0000 1.0000
63.9400 336.0000 1.0000
63.9500 333.0000 1.0000
63.9600 356.0000 1.0000
63.9700 329.0000 1.0000
63.9800 356.0000 1.0000
63.9900 344.0000 1.0000
64.0000 320.0000 1.0000
64.0100 305.0000 1.0000
64.0200 304.0000 1.0000
64.0300 294.0000 1.0000
64.0400 298.0000 1.0000
64.0500 348.0000 1.0000
64.0600 335.0000 1.0000
64.0700 325.0000 1.0000
64.0800 298.0000 1.0000
64.0900 307.0000 1.0000
64.1000 322.0000 1.0000
64.1100 318.0000 1.0000
64.1200 327.0000 1.0000
64.1300 318.0000 1.0000
64.1400 305.0000 1.0000
64.1500 323.0000 1.0000
64.1600 318.0000 1.0000
64.1700 311.0000 1.0000
64.1800 340.0000 1.0000
64.1900 304.0000 1.0000
64.2000 318.0000 1.0000
64.2100 333.0000 1.0000
64.2200 324.0000 1.0000
64.2300 296.0000 1.0000
64.2400 305.0000 1.0000
64.2500 289.0000 1.0000
64.2600 308.0000 1.0000
64.2700 317.0000 1.0000
64.2800 308.0000 1.0000
64.2900 313.0000 1.0000
64.3000 281.0000 1.0000
64.3100 290.0000 1.0000
64.3200 287.0000 1.0000
64.3300 304.0000 1.0000
64.3400 312.0000 1.0000
64.3500 288.0000 1.0000
64.3600 299.0000 1.0000
64.3700 304.0000 1.0000
64.3800 316.0000 1.0000
64.3900 275.0000 1.0000
64.4000 282.0000 1.0000
64.4100 279.0000 1.0000
64.4200 300.0000 1.0000
64.4300 282.0000 1.0000
64.4400 261.0000 1.0000
64.4500 277.0000 1.0000
64.4600 276.0000 1.0000
64.4700 300.0000 1.0000
64.4800 300.0000 1.0000
64.4900 291.0000 1.0000
64.5000 293.0000 1.0000
64.5100 281.0000 1.0000
64.5200 278.0000 1.0000
64.5300 282.0000 1.0000
64.5400 257.0000 1.0000
64.5500 265.0000 1.0000
64.5600 273.0000 1.0000
64.5700 250.0000 1.0000
64.5800 262.0000 1.0000
64.5900 268.0000 1.0000
64.6000 275.0000 1.0000
64.6100 269.0000 1.0000
64.6200 276.0000 1.0000
64.6300 272.0000 1.0000
64.6400 288.0000 1.0000
64.6500 271.0000 1.0000
64.6600 267.0000 1.0000
64.6700 278.0000 1.0000
64.6800 287.0000 1.0000
64.6900 280.0000 1.0000
64.7000 259.0000 1.0000
64.7100 274.0000 1.0000
64.7200 294.0000 1.0000
64.7300 275.0000 1.0000
64.7400 267.0000 1.0000
64.7500 291.0000 1.0000
64.7600 281.0000 1.0000
64.7700 275.0000 1.0000
64.7800 269.0000 1.0000
64.7900 285.0000 1.0000
64.8000 272.0000 1.0000
64.8100 251.0000 1.0000
64.8200 277.0000 1.0000
64.8300 273.0000 1.0000
64.8400 247.0000 1.0000
64.8500 264.0000 1.0000
64.8600 290.0000 1.0000
64.8700 298.0000 1.0000
64.8800 288.0000 1.0000
64.8900 290.0000 1.0000
64.9000 276.0000 1.0000
64.9100 301.0000 1.0000
64.9200 274.0000 1.0000
64.9300 282.0000 1.0000
64.9400 281.0000 1.0000
64.9500 289.0000 1.0000
64.9600 294.0000 1.0000
64.9700 298.0000 1.0000
64.9800 282.0000 1.0000
64.9900 266.0000 1.0000
65.0000 279.0000 1.0000
65.0100 288.0000 1.0000
65.0200 285.0000 1.0000
65.0300 270.0000 1.0000
65.0400 303.0000 1.0000
65.0500 284.0000 1.0000
65.0600 307.0000 1.0000
65.0700 288.0000 1.0000
65.0800 324.0000 1.0000
65.0900 298.0000 1.0000
65.1000 317.0000 1.0000
65.1100 310.0000 1.0000
65.1200 316.0000 1.0000
65.1300 314.0000 1.0000
65.1400 305.0000 1.0000
65.1500 338.0000 1.0000
65.1600 344.0000 1.0000
65.1700 314.0000 1.0000
65.1800 313.0000 1.0000
65.1900 330.0000 1.0000
65.2000 315.0000 1.0000
65.2100 323.0000 1.0000
65.2200 320.0000 1.0000
65.2300 314.0000 1.0000
65.2400 352.0000 1.0000
65.2500 369.0000 1.0000
65.2600 343.0000 1.0000
65.2700 372.0000 1.0000
65.2800 360.0000 1.0000
65.2900 404.0000 1.0000
65.3000 377.0000 1.0000
65.3100 401.0000 1.0000
65.3200 421.0000 1.0000
65.3300 451.0000 1.0000
65.3400 467.0000 1.0000
65.3500 465.0000 1.0000
65.3600 489.0000 1.0000
65.3700 488.0000 1.0000
65.3800 516.0000 1.0000
65.3900 522.0000 1.0000
65.4000 557.0000 1.0000
65.4100 638.0000 1.0000
65.4200 666.0000 1.0000
65.4300 669.0000 1.0000
65.4400 689.0000 1.0000
65.4500 710.0000 1.0000
65.4600 746.0000 1.0000
65.4700 830.0000 1.0000
65.4800 841.0000 1.0000
65.4900 854.0000 1.0000
65.5000 900.0000 1.0000
65.5100 962.0000 1.0000
65.5200 940.0000 1.0000
65.5300 951.0000 1.0000
65.5400 978.0000 1.0000
65.5500 977.0000 1.0000
65.5600 997.0000 1.0000
65.5700 1034.0000 1.0000
65.5800 1056.0000 1.0000
65.5900 895.0000 1.0000
65.6000 908.0000 1.0000
65.6100 922.0000 1.0000
65.6200 901.0000 1.0000
65.6300 866.0000 1.0000
65.6400 806.0000 1.0000
65.6500 872.0000 1.0000
65.6600 801.0000 1.0000
65.6700 816.0000 1.0000
65.6800 799.0000 1.0000
65.6900 840.0000 1.0000
65.7000 780.0000 1.0000
65.7100 775.0000 1.0000
65.7200 782.0000 1.0000
65.7300 755.0000 1.0000
65.7400 739.0000 1.0000
65.7500 698.0000 1.0000
65.7600 699.0000 1.0000
65.7700 665.0000 1.0000
65.7800 632.0000 1.0000
65.7900 610.0000 1.0000
65.8000 589.0000 1.0000
65.8100 610.0000 1.0000
65.8200 538.0000 1.0000
65.8300 496.0000 1.0000
65.8400 505.0000 1.0000
65.8500 491.0000 1.0000
65.8600 448.0000 1.0000
65.8700 459.0000 1.0000
65.8800 442.0000 1.0000
65.8900 424.0000 1.0000
65.9000 404.0000 1.0000
65.9100 426.0000 1.0000
65.9200 391.0000 1.0000
65.9300 410.0000 1.0000
65.9400 362.0000 1.0000
65.9500 374.0000 1.0000
65.9600 326.0000 1.0000
65.9700 334.0000 1.0000
65.9800 338.0000 1.0000
65.9900 329.0000 1.0000
66.0000 346.0000 1.0000
66.0100 364.0000 1.0000
66.0200 329.0000 1.0000
66.0300 358.0000 1.0000
66.0400 346.0000 1.0000
66.0500 323.0000 1.0000
66.0600 290.0000 1.0000
66.0700 324.0000 1.0000
66.0800 321.0000 1.0000
66.0900 306.0000 1.0000
66.1000 302.0000 1.0000
66.1100 298.0000 1.0000
66.1200 291.0000 1.0000
66.1300 277.0000 1.0000
66.1400 278.0000 1.0000
66.1500 311.0000 1.0000
66.1600 306.0000 1.0000
66.1700 257.0000 1.0000
66.1800 280.0000 1.0000
66.1900 290.0000 1.0000
66.2000 267.0000 1.0000
66.2100 268.0000 1.0000
66.2200 272.0000 1.0000
66.2300 252.0000 1.0000
66.2400 277.0000 1.0000
66.2500 292.0000 1.0000
66.2600 277.0000 1.0000
66.2700 275.0000 1.0000
66.2800 286.0000 1.0000
66.2900 282.0000 1.0000
66.3000 272.0000 1.0000
66.3100 250.0000 1.0000
66.3200 254.0000 1.0000
66.3300 260.0000 1.0000
66.3400 283.0000 1.0000
66.3500 261.0000 1.0000
66.3600 277.0000 1.0000
66.3700 265.0000 1.0000
66.3800 283.0000 1.0000
66.3900 292.0000 1.0000
66.4000 245.0000 1.0000
66.4100 266.0000 1.0000
66.4200 230.0000 1.0000
66.4300 266.0000 1.0000
66.4400 254.0000 1.0000
66.4500 254.0000 1.0000
66.4600 254.0000 1.0000
66.4700 269.0000 1.0000
66.4800 274.0000 1.0000
66.4900 239.0000 1.0000
66.5000 263.0000 1.0000
66.5100 244.0000 1.0000
66.5200 246.0000 1.0000
66.5300 264.0000 1.0000
66.5400 288.0000 1.0000
66.5500 277.0000 1.0000
66.5600 263.0000 1.0000
66.5700 257.0000 1.0000
66.5800 238.0000 1.0000
66.5900 258.0000 1.0000
66.6000 265.0000 1.0000
66.6100 251.0000 1.0000
66.6200 248.0000 1.0000
66.6300 257.0000 1.0000
66.6400 273.0000 1.0000
66.6500 266.0000 1.0000
66.6600 236.0000 1.0000
66.6700 264.0000 1.0000
66.6800 259.0000 1.0000
66.6900 271.0000 1.0000
66.7000 265.0000 1.0000
66.7100 260.0000 1.0000
66.7200 255.0000 1.0000
66.7300 253.0000 1.0000
66.7400 236.0000 1.0000
66.7500 240.0000 1.0000
66.7600 248.0000 1.0000
66.7700 268.0000 1.0000
66.7800 238.0000 1.0000
66.7900 239.0000 1.0000
66.8000 235.0000 1.0000
66.8100 275.0000 1.0000
66.8200 262.0000 1.0000
66.8300 254.0000 1.0000
66.8400 257.0000 1.0000
66.8500 254.0000 1.0000
66.8600 255.0000 1.0000
66.8700 237.0000 1.0000
66.8800 236.0000 1.0000
66.8900 256.0000 1.0000
66.9000 257.0000 1.0000
66.9100 253.0000 1.0000
66.9200 238.0000 1.0000
66.9300 243.0000 1.0000
66.9400 264.0000 1.0000
66.9500 237.0000 1.0000
66.9600 261.0000 1.0000
66.9700 260.0000 1.0000
66.9800 253.0000 1.0000
66.9900 263.0000 1.0000
67.0000 259.0000 1.0000
67.0100 254.0000 1.0000
67.0200 242.0000 1.0000
67.0300 238.0000 1.0000
67.0400 282.0000 1.0000
67.0500 234.0000 1.0000
67.0600 235.0000 1.0000
67.0700 241.0000 1.0000
67.0800 245.0000 1.0000
67.0900 246.0000 1.0000
67.1000 246.0000 1.0000
67.1100 238.0000 1.0000
67.1200 235.0000 1.0000
67.1300 259.0000 1.0000
67.1400 218.0000 1.0000
67.1500 274.0000 1.0000
67.1600 231.0000 1.0000
67.1700 220.0000 1.0000
67.1800 218.0000 1.0000
67.1900 225.0000 1.0000
67.2000 253.0000 1.0000
67.2100 230.0000 1.0000
67.2200 238.0000 1.0000
67.2300 236.0000 1.0000
67.2400 223.0000 1.0000
67.2500 224.0000 1.0000
67.2600 236.0000 1.0000
67.2700 223.0000 1.0000
67.2800 268.0000 1.0000
67.2900 245.0000 1.0000
67.3000 242.0000 1.0000
67.3100 204.0000 1.0000
67.3200 231.0000 1.0000
67.3300 250.0000 1.0000
67.3400 223.0000 1.0000
67.3500 240.0000 1.0000
67.3600 268.0000 1.0000
67.3700 237.0000 1.0000
67.3800 229.0000 1.0000
67.3900 239.0000 1.0000
67.4000 252.0000 1.0000
67.4100 234.0000 1.0000
67.4200 218.0000 1.0000
67.4300 243.0000 1.0000
67.4400 213.0000 1.0000
67.4500 226.0000 1.0000
67.4600 218.0000 1.0000
67.4700 240.0000 1.0000
67.4800 239.0000 1.0000
67.4900 251.0000 1.0000
67.5000 241.0000 1.0000
67.5100 259.0000 1.0000
67.5200 242.0000 1.0000
67.5300 253.0000 1.0000
67.5400 227.0000 1.0000
67.5500 221.0000 1.0000
67.5600 237.0000 1.0000
67.5700 241.0000 1.0000
67.5800 237.0000 1.0000
67.5900 236.0000 1.0000
67.6000 247.0000 1.0000
67.6100 253.0000 1.0000
67.6200 243.0000 1.0000
67.6300 234.0000 1.0000
67.6400 229.0000 1.0000
67.6500 259.0000 1.0000
67.6600 271.0000 1.0000
67.6700 235.0000 1.0000
67.6800 263.0000 1.0000
67.6900 254.0000 1.0000
67.7000 266.0000 1.0000
67.7100 246.0000 1.0000
67.7200 229.0000 1.0000
67.7300 241.0000 1.0000
67.7400 234.0000 1.0000
67.7500 239.0000 1.0000
67.7600 229.0000 1.0000
67.7700 237.0000 1.0000
67.7800 232.0000 1.0000
67.7900 225.0000 1.0000
67.8000 229.0000 1.0000
67.8100 226.0000 1.0000
67.8200 239.0000 1.0000
67.8300 242.0000 1.0000
67.8400 241.0000 1.0000
67.8500 258.0000 1.0000
67.8600 233.0000 1.0000
67.8700 211.0000 1.0000
67.8800 241.0000 1.0000
67.8900 240.0000 1.0000
67.9000 258.0000 1.0000
67.9100 237.0000 1.0000
67.9200 253.0000 1.0000
67.9300 226.0000 1.0000
67.9400 244.0000 1.0000
67.9500 235.0000 1.0000
67.9600 237.0000 1.0000
67.9700 249.0000 1.0000
67.9800 222.0000 1.0000
67.9900 261.0000 1.0000
68.0000 223.0000 1.0000
68.0100 235.0000 1.0000
68.0200 243.0000 1.0000
68.0300 230.0000 1.0000
68.0400 226.0000 1.0000
68.0500 249.0000 1.0000
68.0600 249.0000 1.0000
68.0700 220.0000 1.0000
68.0800 240.0000 1.0000
68.0900 251.0000 1.0000
68.1000 251.0000 1.0000
68.1100 233.0000 1.0000
68.1200 228.0000 1.0000
68.1300 248.0000 1.0000
68.1400 228.0000 1.0000
68.1500 227.0000 1.0000
68.1600 224.0000 1.0000
68.1700 233.0000 1.0000
68.1800 243.0000 1.0000
68.1900 257.0000 1.0000
68.2000 251.0000 1.0000
68.2100 236.0000 1.0000
68.2200 237.0000 1.0000
68.2300 230.0000 1.0000
68.2400 232.0000 1.0000
68.2500 209.0000 1.0000
68.2600 238.0000 1.0000
68.2700 225.0000 1.0000
68.2800 226.0000 1.0000
68.2900 229.0000 1.0000
68.3000 230.0000 1.0000
68.3100 263.0000 1.0000
68.3200 226.0000 1.0000
68.3300 248.0000 1.0000
68.3400 229.0000 1.0000
68.3500 222.0000 1.0000
68.3600 211.0000 1.0000
68.3700 239.0000 1.0000
68.3800 255.0000 1.0000
68.3900 230.0000 1.0000
68.4000 235.0000 1.0000
68.4100 228.0000 1.0000
68.4200 234.0000 1.0000
68.4300 251.0000 1.0000
68.4400 240.0000 1.0000
68.4500 238.0000 1.0000
68.4600 223.0000 1.0000
68.4700 228.0000 1.0000
68.4800 233.0000 1.0000
68.4900 224.0000 1.0000
68.5000 236.0000 1.0000
68.5100 232.0000 1.0000
68.5200 232.0000 1.0000
68.5300 228.0000 1.0000
68.5400 225.0000 1.0000
68.5500 233.0000 1.0000
68.5600 220.0000 1.0000
68.5700 213.0000 1.0000
68.5800 210.0000 1.0000
68.5900 227.0000 1.0000
68.6000 227.0000 1.0000
68.6100 220.0000 1.0000
68.6200 248.0000 1.0000
68.6300 252.0000 1.0000
68.6400 206.0000 1.0000
68.6500 229.0000 1.0000
68.6600 241.0000 1.0000
68.6700 242.0000 1.0000
68.6800 242.0000 1.0000
68.6900 235.0000 1.0000
68.7000 231.0000 1.0000
68.7100 231.0000 1.0000
68.7200 240.0000 1.0000
68.7300 250.0000 1.0000
68.7400 236.0000 1.0000
68.7500 230.0000 1.0000
68.7600 218.0000 1.0000
68.7700 247.0000 1.0000
68.7800 212.0000 1.0000
68.7900 256.0000 1.0000
68.8000 233.0000 1.0000
68.8100 235.0000 1.0000
68.8200 239.0000 1.0000
68.8300 248.0000 1.0000
68.8400 234.0000 1.0000
68.8500 223.0000 1.0000
68.8600 246.0000 1.0000
68.8700 242.0000 1.0000
68.8800 233.0000 1.0000
68.8900 219.0000 1.0000
68.9000 246.0000 1.0000
68.9100 228.0000 1.0000
68.9200 229.0000 1.0000
68.9300 208.0000 1.0000
68.9400 245.0000 1.0000
68.9500 222.0000 1.0000
68.9600 242.0000 1.0000
68.9700 224.0000 1.0000
68.9800 253.0000 1.0000
68.9900 231.0000 1.0000
69.0000 223.0000 1.0000
69.0100 204.0000 1.0000
69.0200 217.0000 1.0000
69.0300 237.0000 1.0000
69.0400 241.0000 1.0000
69.0500 233.0000 1.0000
69.0600 239.0000 1.0000
69.0700 222.0000 1.0000
69.0800 207.0000 1.0000
69.0900 253.0000 1.0000
69.1000 241.0000 1.0000
69.1100 259.0000 1.0000
69.1200 253.0000 1.0000
69.1300 242.0000 1.0000
69.1400 225.0000 1.0000
69.1500 235.0000 1.0000
69.1600 240.0000 1.0000
69.1700 234.0000 1.0000
69.1800 240.0000 1.0000
69.1900 225.0000 1.0000
69.2000 220.0000 1.0000
69.2100 224.0000 1.0000
69.2200 232.0000 1.0000
69.2300 241.0000 1.0000
69.2400 241.0000 1.0000
69.2500 214.0000 1.0000
69.2600 221.0000 1.0000
69.2700 216.0000 1.0000
69.2800 210.0000 1.0000
69.2900 238.0000 1.0000
69.3000 238.0000 1.0000
69.3100 234.0000 1.0000
69.3200 214.0000 1.0000
69.3300 226.0000 1.0000
69.3400 230.0000 1.0000
69.3500 262.0000 1.0000
69.3600 225.0000 1.0000
69.3700 227.0000 1.0000
69.3800 238.0000 1.0000
69.3900 237.0000 1.0000
69.4000 226.0000 1.0000
69.4100 214.0000 1.0000
69.4200 237.0000 1.0000
69.4300 247.0000 1.0000
69.4400 233.0000 1.0000
69.4500 207.0000 1.0000
69.4600 216.0000 1.0000
69.4700 216.0000 1.0000
69.4800 226.0000 1.0000
69.4900 236.0000 1.0000
69.5000 230.0000 1.0000
69.5100 244.0000 1.0000
69.5200 223.0000 1.0000
69.5300 220.0000 1.0000
69.5400 232.0000 1.0000
69.5500 243.0000 1.0000
69.5600 217.0000 1.0000
69.5700 234.0000 1.0000
69.5800 229.0000 1.0000
69.5900 251.0000 1.0000
69.6000 257.0000 1.0000
69.6100 226.0000 1.0000
69.6200 237.0000 1.0000
69.6300 235.0000 1.0000
69.6400 217.0000 1.0000
69.6500 208.0000 1.0000
69.6600 232.0000 1.0000
69.6700 234.0000 1.0000
69.6800 211.0000 1.0000
69.6900 222.0000 1.0000
69.7000 212.0000 1.0000
69.7100 218.0000 1.0000
69.7200 223.0000 1.0000
69.7300 206.0000 1.0000
69.7400 234.0000 1.0000
69.7500 228.0000 1.0000
69.7600 235.0000 1.0000
69.7700 224.0000 1.0000
69.7800 231.0000 1.0000
69.7900 225.0000 1.0000
69.8000 236.0000 1.0000
69.8100 223.0000 1.0000
69.8200 247.0000 1.0000
69.8300 239.0000 1.0000
69.8400 226.0000 1.0000
69.8500 194.0000 1.0000
69.8600 226.0000 1.0000
69.8700 230.0000 1.0000
69.8800 227.0000 1.0000
69.8900 212.0000 1.0000
69.9000 228.0000 1.0000
69.9100 245.0000 1.0000
69.9200 238.0000 1.0000
69.9300 237.0000 1.0000
69.9400 230.0000 1.0000
69.9500 236.0000 1.0000
69.9600 237.0000 1.0000
69.9700 234.0000 1.0000
69.9800 245.0000 1.0000
69.9900 224.0000 1.0000
70.0000 222.0000 1.0000
*RAS_INT_END
*RAS_TEMPERATURE_START
*RAS_TEMPERATURE_END
*RAS_DATA_END
