*RAS_DATA_START
*RAS_HEADER_START
*DISP_FMT_X "%.2f"
*DISP_FMT_Y "%.0f"
*DISP_FULLSCALE "20095.0000000000"
*DISP_LINE_COLOR "255.0000000000"
*DISP_LINE_STYLE "0.0000000000"
*DISP_LINE_WIDTH "0.2500000000"
*DISP_NOTE "測定データ-5"
*DISP_OFFSET_Y "0.0000000000"
*DISP_PEAKSEARCH_UNIT_Y "cps"
*DISP_RANGE_BOTTOM "0.0000000000"
*DISP_RANGE_LEFT "20.0000000000"
*DISP_RANGE_LOGCUTOFF "0.0100000000"
*DISP_RANGE_RIGHT "70.0000000000"
*DISP_RANGE_TOP "20095.0000000000"
*DISP_SCALE_MODE_Y "0.0000000000"
*DISP_TAB_NAME "2θ/θ"
*DISP_TITLE_Y "強度"
*DISP_UNIT_Y "cps"
*DISP_WINDOW_NAME "MSG_MACROENGINE"
*FILE_COMMENT " "
*FILE_MD5 ""
*FILE_MEMO " "
*FILE_OPERATOR "Administrator"
*FILE_SAMPLE " "
*FILE_TYPE "RAS_RAW"
*FILE_USERGROUP "システムマネージャ"
*FILE_VERSION "1.0000000000"
*HW_ATTACHMENT_ID "ATT0025"
*HW_ATTACHMENT_NAME "標準|Standard"
*HW_COUNTER_ID-0 "CUT0025"
*HW_COUNTER_ID-1 "CUT0020"
*HW_COUNTER_ID-2 "CUT0020"
*HW_COUNTER_ID-3 "CSL0021"
*HW_COUNTER_ID-4 "CMC0021"
*HW_COUNTER_NAME-0 "D/teX Ultra|D/teX Ultra"
*HW_COUNTER_NAME-1 "None|None"
*HW_COUNTER_NAME-2 "None|None"
*HW_COUNTER_NAME-3 "BBM|BBM"
*HW_COUNTER_NAME-4 "検出器モノクロメータ|Detector monochromator"
*HW_COUNTER_SELECT_NAME "D/teX Ultra|D/teX Ultra"
*HW_GONIOMETER_ID "GON0023"
*HW_GONIOMETER_NAME "SmartLab|SmartLab"
*HW_GONIOMETER_RADIUS-0 "90.0"
*HW_GONIOMETER_RADIUS-1 "114.0"
*HW_GONIOMETER_RADIUS-2 "190.0"
*HW_GONIOMETER_RADIUS-3 "300.0"
*HW_GONIOMETER_RADIUS-4 "187.0"
*HW_GONIOMETER_RADIUS-5 "300.0"
*HW_GONIOMETER_RADIUS-6 "113.0"
*HW_GONIOMETER_RADIUS-7 "331.0"
*HW_I_OPT_ID-0 "CBO0021"
*HW_I_OPT_ID-1 "ICR0023"
*HW_I_OPT_ID-2 "ISL0021"
*HW_I_OPT_ID-3 "ISO0021"
*HW_I_OPT_ID-4 "IAD0021"
*HW_I_OPT_ID-5 "IPR0001"
*HW_I_OPT_NAME-0 "CBOユニット|CBO unit"
*HW_I_OPT_NAME-1 "標準入射光学ユニット|Standard incident optical unit"
*HW_I_OPT_NAME-2 "標準入射スリットボックス|Standard incident slit box"
*HW_I_OPT_NAME-3 "入射平行スリット|Incident parallel slit"
*HW_I_OPT_NAME-4 "長手制限スリット|Length limiting slit"
*HW_I_OPT_NAME-5 "None|None"
*HW_R_ATTENUATER_AUTOMODE "0"
*HW_R_OPT_ID-0 "RSS0021"
*HW_R_OPT_ID-1 "RCR0023"
*HW_R_OPT_ID-2 "RSO0021"
*HW_R_OPT_ID-3 "RRS0021"
*HW_R_OPT_ID-4 "ATN0021"
*HW_R_OPT_ID-5 "RFL0021"
*HW_R_OPT_ID-6 "RAD0021"
*HW_R_OPT_NAME-0 "標準受光スリットボックス1|Standard receiving slit box # 1"
*HW_R_OPT_NAME-1 "標準受光光学ユニット1|Standard receiving unit # 1"
*HW_R_OPT_NAME-2 "標準受光光学ユニット2|Standard receiving optical unit # 2"
*HW_R_OPT_NAME-3 "標準受光スリットボックス2|Standard receiving slit box # 2"
*HW_R_OPT_NAME-4 "標準アッテネータ|Standard Attenuator"
*HW_R_OPT_NAME-5 "Cu Kβ|Cu K-beta"
*HW_R_OPT_NAME-6 "調整用受光スリット|Alignment receiving slit"
*HW_SAMPLE_HOLDER_ID "SMP0023"
*HW_SAMPLE_HOLDER_NAME "標準Zステージ|Standard Z stage"
*HW_XG_CURRENT_MAX "50"
*HW_XG_CURRENT_MIN "2"
*HW_XG_CURRENT_RESOLUTION "1"
*HW_XG_CURRENT_UNIT "mA"
*HW_XG_FOCUS "1mm x 10mm"
*HW_XG_FOCUS_TYPE "Normal"
*HW_XG_ID ""
*HW_XG_NAME "3kW 封入管(ID:1200)|3kW Sealed tube(ID:1200)"
*HW_XG_TARGET_ATOMIC_NUMBER "29.0000000000"
*HW_XG_TARGET_NAME "Cu"
*HW_XG_TYPE "Hermetic"
*HW_XG_VOLTAGE_MAX "60"
*HW_XG_VOLTAGE_MIN "20"
*HW_XG_VOLTAGE_RESOLUTION "1"
*HW_XG_VOLTAGE_UNIT "kV"
*HW_XG_WATT_MAX "1.500"
*HW_XG_WATT_UNIT "kW"
*HW_XG_WAVE_LENGTH_ALPHA1 "1.540593"
*HW_XG_WAVE_LENGTH_ALPHA2 "1.544414"
*HW_XG_WAVE_LENGTH_BETA "1.392250"
*MEAS_COND_AXIS_NAME-0 "2θ/θ"
*MEAS_COND_AXIS_NAME-1 "2θ"
*MEAS_COND_AXIS_NAME-2 "ω"
*MEAS_COND_AXIS_NAME-3 "Z"
*MEAS_COND_AXIS_NAME-4 "2θ/ω"
*MEAS_COND_AXIS_NAME-5 "θs"
*MEAS_COND_AXIS_NAME-6 "θd"
*MEAS_COND_AXIS_NAME-7 "Ts"
*MEAS_COND_AXIS_NAME-8 "CBO選択スリット"
*MEAS_COND_AXIS_NAME-9 "M"
*MEAS_COND_AXIS_NAME-10 "入射平行スリット"
*MEAS_COND_AXIS_NAME-11 "入射スリット"
*MEAS_COND_AXIS_NAME-12 ""
*MEAS_COND_AXIS_NAME-13 "Zs"
*MEAS_COND_AXIS_NAME-14 "入射光学素子"
*MEAS_COND_AXIS_NAME-15 "長手制限スリット"
*MEAS_COND_AXIS_NAME-16 "センタースリット"
*MEAS_COND_AXIS_NAME-17 "フィルター"
*MEAS_COND_AXIS_NAME-18 "受光スリット1"
*MEAS_COND_AXIS_NAME-19 "受光スリット2"
*MEAS_COND_AXIS_NAME-20 "受光光学素子"
*MEAS_COND_AXIS_NAME-21 "受光平行スリット"
*MEAS_COND_AXIS_NAME-22 "調整用受光スリット"
*MEAS_COND_AXIS_NAME-23 ""
*MEAS_COND_AXIS_NAME-24 ""
*MEAS_COND_AXIS_NAME-25 "Zd"
*MEAS_COND_AXIS_NAME-26 "アッテネータ"
*MEAS_COND_AXIS_NAME-27 "検出器モノクロメータ"
*MEAS_COND_AXIS_NAME-28 "モノクロメータスリット"
*MEAS_COND_AXIS_NAME-29 "プライマリビーム"
*MEAS_COND_AXIS_NAME-30 "PHA"
*MEAS_COND_AXIS_NAME_INTERNAL-0 "TwoThetaTheta"
*MEAS_COND_AXIS_NAME_INTERNAL-1 "TwoTheta"
*MEAS_COND_AXIS_NAME_INTERNAL-2 "Omega"
*MEAS_COND_AXIS_NAME_INTERNAL-3 "Z"
*MEAS_COND_AXIS_NAME_INTERNAL-4 "TwoThetaOmega"
*MEAS_COND_AXIS_NAME_INTERNAL-5 "ThetaS"
*MEAS_COND_AXIS_NAME_INTERNAL-6 "ThetaD"
*MEAS_COND_AXIS_NAME_INTERNAL-7 "Ts"
*MEAS_COND_AXIS_NAME_INTERNAL-8 "CBO"
*MEAS_COND_AXIS_NAME_INTERNAL-9 "CBO-M"
*MEAS_COND_AXIS_NAME_INTERNAL-10 "IncidentSollerSlit"
*MEAS_COND_AXIS_NAME_INTERNAL-11 "IncidentSlitBox"
*MEAS_COND_AXIS_NAME_INTERNAL-12 "IncidentSlitBox-_Axis"
*MEAS_COND_AXIS_NAME_INTERNAL-13 "Zs"
*MEAS_COND_AXIS_NAME_INTERNAL-14 "IncidentMonochromator"
*MEAS_COND_AXIS_NAME_INTERNAL-15 "IncidentAxdSlit"
*MEAS_COND_AXIS_NAME_INTERNAL-16 "CenterSlit"
*MEAS_COND_AXIS_NAME_INTERNAL-17 "Filter"
*MEAS_COND_AXIS_NAME_INTERNAL-18 "ReceivingSlitBox1"
*MEAS_COND_AXIS_NAME_INTERNAL-19 "ReceivingSlitBox2"
*MEAS_COND_AXIS_NAME_INTERNAL-20 "ReceivingOptics"
*MEAS_COND_AXIS_NAME_INTERNAL-21 "ReceivingSollerSlit"
*MEAS_COND_AXIS_NAME_INTERNAL-22 "ReceivingAxdSlit"
*MEAS_COND_AXIS_NAME_INTERNAL-23 "ReceivingSlitBox1-_Axis"
*MEAS_COND_AXIS_NAME_INTERNAL-24 "ReceivingSlitBox2-_Axis"
*MEAS_COND_AXIS_NAME_INTERNAL-25 "ReceivingSlitBox2-Zd"
*MEAS_COND_AXIS_NAME_INTERNAL-26 "Attenuator"
*MEAS_COND_AXIS_NAME_INTERNAL-27 "CounterMonochromator"
*MEAS_COND_AXIS_NAME_INTERNAL-28 "CounterSlit"
*MEAS_COND_AXIS_NAME_INTERNAL-29 "IncidentPrimary"
*MEAS_COND_AXIS_NAME_INTERNAL-30 "PHA"
*MEAS_COND_AXIS_NAME_MAGICNO-0 "83951616.0000000000"
*MEAS_COND_AXIS_NAME_MAGICNO-1 "268632064.0000000000"
*MEAS_COND_AXIS_NAME_MAGICNO-2 "268500992.0000000000"
*MEAS_COND_AXIS_NAME_MAGICNO-3 "285278208.0000000000"
*MEAS_COND_AXIS_NAME_MAGICNO-4 "83951616.0000000000"
*MEAS_COND_AXIS_NAME_MAGICNO-5 "131072.0000000000"
*MEAS_COND_AXIS_NAME_MAGICNO-6 "131072.0000000000"
*MEAS_COND_AXIS_NAME_MAGICNO-7 "318898176.0000000000"
*MEAS_COND_AXIS_NAME_MAGICNO-8 "20971521.0000000000"
*MEAS_COND_AXIS_NAME_MAGICNO-9 "285343744.0000000000"
*MEAS_COND_AXIS_NAME_MAGICNO-10 "20971521.0000000000"
*MEAS_COND_AXIS_NAME_MAGICNO-11 "22020097.0000000000"
*MEAS_COND_AXIS_NAME_MAGICNO-12 "25165824.0000000000"
*MEAS_COND_AXIS_NAME_MAGICNO-13 "318898176.0000000000"
*MEAS_COND_AXIS_NAME_MAGICNO-14 "1.0000000000"
*MEAS_COND_AXIS_NAME_MAGICNO-15 "20971521.0000000000"
*MEAS_COND_AXIS_NAME_MAGICNO-16 "20971521.0000000000"
*MEAS_COND_AXIS_NAME_MAGICNO-17 "20971521.0000000000"
*MEAS_COND_AXIS_NAME_MAGICNO-18 "23068673.0000000000"
*MEAS_COND_AXIS_NAME_MAGICNO-19 "23068673.0000000000"
*MEAS_COND_AXIS_NAME_MAGICNO-20 "20971521.0000000000"
*MEAS_COND_AXIS_NAME_MAGICNO-21 "20971521.0000000000"
*MEAS_COND_AXIS_NAME_MAGICNO-22 "20971521.0000000000"
*MEAS_COND_AXIS_NAME_MAGICNO-23 "25165824.0000000000"
*MEAS_COND_AXIS_NAME_MAGICNO-24 "25165824.0000000000"
*MEAS_COND_AXIS_NAME_MAGICNO-25 "285343744.0000000000"
*MEAS_COND_AXIS_NAME_MAGICNO-26 "17301505.0000000000"
*MEAS_COND_AXIS_NAME_MAGICNO-27 "20971521.0000000000"
*MEAS_COND_AXIS_NAME_MAGICNO-28 "20971521.0000000000"
*MEAS_COND_AXIS_NAME_MAGICNO-29 "20971521.0000000000"
*MEAS_COND_AXIS_NAME_MAGICNO-30 "0.0000000000"
*MEAS_COND_AXIS_OFFSET-0 "-"
*MEAS_COND_AXIS_OFFSET-1 "-0.0801000000"
*MEAS_COND_AXIS_OFFSET-2 "0.1283000000"
*MEAS_COND_AXIS_OFFSET-3 "-"
*MEAS_COND_AXIS_OFFSET-4 "-"
*MEAS_COND_AXIS_OFFSET-5 "0.1283000000"
*MEAS_COND_AXIS_OFFSET-6 "-0.2084000000"
*MEAS_COND_AXIS_OFFSET-7 "-"
*MEAS_COND_AXIS_OFFSET-8 "-"
*MEAS_COND_AXIS_OFFSET-9 "-"
*MEAS_COND_AXIS_OFFSET-10 "-"
*MEAS_COND_AXIS_OFFSET-11 "-"
*MEAS_COND_AXIS_OFFSET-12 "-"
*MEAS_COND_AXIS_OFFSET-13 "-"
*MEAS_COND_AXIS_OFFSET-14 "-"
*MEAS_COND_AXIS_OFFSET-15 "-"
*MEAS_COND_AXIS_OFFSET-16 "-"
*MEAS_COND_AXIS_OFFSET-17 "-"
*MEAS_COND_AXIS_OFFSET-18 "-"
*MEAS_COND_AXIS_OFFSET-19 "-"
*MEAS_COND_AXIS_OFFSET-20 "-"
*MEAS_COND_AXIS_OFFSET-21 "-"
*MEAS_COND_AXIS_OFFSET-22 "-"
*MEAS_COND_AXIS_OFFSET-23 "-"
*MEAS_COND_AXIS_OFFSET-24 "-"
*MEAS_COND_AXIS_OFFSET-25 "-"
*MEAS_COND_AXIS_OFFSET-26 "-"
*MEAS_COND_AXIS_OFFSET-27 "-"
*MEAS_COND_AXIS_OFFSET-28 "-"
*MEAS_COND_AXIS_OFFSET-29 "-"
*MEAS_COND_AXIS_OFFSET-30 "-"
*MEAS_COND_AXIS_POSITION-0 "0.0000000000"
*MEAS_COND_AXIS_POSITION-1 "0.0000000000"
*MEAS_COND_AXIS_POSITION-2 "0.0000000000"
*MEAS_COND_AXIS_POSITION-3 "-2.9935200000"
*MEAS_COND_AXIS_POSITION-4 "0.0000000000"
*MEAS_COND_AXIS_POSITION-5 "0.0000000000"
*MEAS_COND_AXIS_POSITION-6 "0.0000000000"
*MEAS_COND_AXIS_POSITION-7 "-0.4278800000"
*MEAS_COND_AXIS_POSITION-8 "BB"
*MEAS_COND_AXIS_POSITION-9 "0.0000000000"
*MEAS_COND_AXIS_POSITION-10 "Soller_slit_5.0deg"
*MEAS_COND_AXIS_POSITION-11 "2/3deg"
*MEAS_COND_AXIS_POSITION-12 "2.2088000000"
*MEAS_COND_AXIS_POSITION-13 "-1.0609400000"
*MEAS_COND_AXIS_POSITION-14 "0.0000000000"
*MEAS_COND_AXIS_POSITION-15 "10.0mm"
*MEAS_COND_AXIS_POSITION-16 "None"
*MEAS_COND_AXIS_POSITION-17 "Cu_K-beta"
*MEAS_COND_AXIS_POSITION-18 "13.000mm"
*MEAS_COND_AXIS_POSITION-19 "13.000mm"
*MEAS_COND_AXIS_POSITION-20 "No_unit"
*MEAS_COND_AXIS_POSITION-21 "Soller_slit_5.0deg"
*MEAS_COND_AXIS_POSITION-22 "None"
*MEAS_COND_AXIS_POSITION-23 "13.0000000000"
*MEAS_COND_AXIS_POSITION-24 "13.0000000000"
*MEAS_COND_AXIS_POSITION-25 "0.0081300000"
*MEAS_COND_AXIS_POSITION-26 "Open"
*MEAS_COND_AXIS_POSITION-27 "None"
*MEAS_COND_AXIS_POSITION-28 "None"
*MEAS_COND_AXIS_POSITION-29 "None"
*MEAS_COND_AXIS_POSITION-30 "38.0000000000"
*MEAS_COND_AXIS_UNIT-0 "deg"
*MEAS_COND_AXIS_UNIT-1 "deg"
*MEAS_COND_AXIS_UNIT-2 "deg"
*MEAS_COND_AXIS_UNIT-3 "mm"
*MEAS_COND_AXIS_UNIT-4 "deg"
*MEAS_COND_AXIS_UNIT-5 "deg"
*MEAS_COND_AXIS_UNIT-6 "deg"
*MEAS_COND_AXIS_UNIT-7 "mm"
*MEAS_COND_AXIS_UNIT-8 ""
*MEAS_COND_AXIS_UNIT-9 "pulse"
*MEAS_COND_AXIS_UNIT-10 ""
*MEAS_COND_AXIS_UNIT-11 ""
*MEAS_COND_AXIS_UNIT-12 "mm"
*MEAS_COND_AXIS_UNIT-13 "mm"
*MEAS_COND_AXIS_UNIT-14 ""
*MEAS_COND_AXIS_UNIT-15 ""
*MEAS_COND_AXIS_UNIT-16 ""
*MEAS_COND_AXIS_UNIT-17 ""
*MEAS_COND_AXIS_UNIT-18 ""
*MEAS_COND_AXIS_UNIT-19 ""
*MEAS_COND_AXIS_UNIT-20 ""
*MEAS_COND_AXIS_UNIT-21 ""
*MEAS_COND_AXIS_UNIT-22 ""
*MEAS_COND_AXIS_UNIT-23 "mm"
*MEAS_COND_AXIS_UNIT-24 "mm"
*MEAS_COND_AXIS_UNIT-25 "mm"
*MEAS_COND_AXIS_UNIT-26 ""
*MEAS_COND_AXIS_UNIT-27 ""
*MEAS_COND_AXIS_UNIT-28 ""
*MEAS_COND_AXIS_UNIT-29 ""
*MEAS_COND_AXIS_UNIT-30 "div"
*MEAS_COND_COUNTER_CNTLOSS_CORR "0.0000000000"
*MEAS_COND_COUNTER_PHABASE "38.0000000000"
*MEAS_COND_COUNTER_PHAWINDOW "16.0000000000"
*MEAS_COND_COUNTER_PHA_UNIT "div"
*MEAS_COND_COUNTER_TAUDIFF "30.0000000000"
*MEAS_COND_COUNTER_TAUINT "0.0000000000"
*MEAS_COND_IRRADIATION_MODE "OFF"
*MEAS_COND_IRRADIATION_WIDTH ""
*MEAS_COND_OPT_ATTR "集中法"
*MEAS_COND_OPT_NAME "@集中法"
*MEAS_COND_UNSYMMETRIC_MODE "OFF"
*MEAS_COND_XG_CURRENT "30.0000000000"
*MEAS_COND_XG_VOLTAGE "40.0000000000"
*MEAS_COND_XG_WAVE_TYPE "Ka"
*MEAS_DATA_COUNT "5001.0000000000"
*MEAS_SCAN_AXIS_X "2θ/θ"
*MEAS_SCAN_AXIS_X_INTERNAL "TwoThetaTheta"
*MEAS_SCAN_END_TIME "07/20/22 16:57:12"
*MEAS_SCAN_MODE "CONTINUOUS"
*MEAS_SCAN_MONITOR "0"
*MEAS_SCAN_RESOLUTION_X "0.0002"
*MEAS_SCAN_SPEED "2.5"
*MEAS_SCAN_SPEED_UNIT "deg/min"
*MEAS_SCAN_START "20.0000000000"
*MEAS_SCAN_START_TIME "07/20/22 16:35:48"
*MEAS_SCAN_STEP "0.0100000000"
*MEAS_SCAN_STOP "70.0000000000"
*MEAS_SCAN_UNIT_X "deg"
*MEAS_SCAN_UNIT_Y "counts"
*RAS_HEADER_END
*RAS_INT_START
20.0000 1041.0000 1.0000
20.0100 1011.0000 1.0000
20.0200 1088.0000 1.0000
20.0300 1096.0000 1.0000
20.0400 1099.0000 1.0000
20.0500 1042.0000 1.0000
20.0600 1102.0000 1.0000
20.0700 1066.0000 1.0000
20.0800 1125.0000 1.0000
20.0900 1094.0000 1.0000
20.1000 1061.0000 1.0000
20.1100 1052.0000 1.0000
20.1200 1115.0000 1.0000
20.1300 1069.0000 1.0000
20.1400 1117.0000 1.0000
20.1500 1102.0000 1.0000
20.1600 1107.0000 1.0000
20.1700 1082.0000 1.0000
20.1800 1089.0000 1.0000
20.1900 1125.0000 1.0000
20.2000 1105.0000 1.0000
20.2100 1118.0000 1.0000
20.2200 1135.0000 1.0000
20.2300 1056.0000 1.0000
20.2400 1079.0000 1.0000
20.2500 1122.0000 1.0000
20.2600 1039.0000 1.0000
20.2700 1091.0000 1.0000
20.2800 1081.0000 1.0000
20.2900 1089.0000 1.0000
20.3000 1127.0000 1.0000
20.3100 1078.0000 1.0000
20.3200 1112.0000 1.0000
20.3300 1076.0000 1.0000
20.3400 1101.0000 1.0000
20.3500 1092.0000 1.0000
20.3600 1102.0000 1.0000
20.3700 1050.0000 1.0000
20.3800 1072.0000 1.0000
20.3900 1087.0000 1.0000
20.4000 1104.0000 1.0000
20.4100 1064.0000 1.0000
20.4200 1104.0000 1.0000
20.4300 1038.0000 1.0000
20.4400 1107.0000 1.0000
20.4500 1020.0000 1.0000
20.4600 1046.0000 1.0000
20.4700 1066.0000 1.0000
20.4800 1107.0000 1.0000
20.4900 1036.0000 1.0000
20.5000 1138.0000 1.0000
20.5100 1145.0000 1.0000
20.5200 1107.0000 1.0000
20.5300 1052.0000 1.0000
20.5400 1047.0000 1.0000
20.5500 1115.0000 1.0000
20.5600 1092.0000 1.0000
20.5700 1069.0000 1.0000
20.5800 1113.0000 1.0000
20.5900 1064.0000 1.0000
20.6000 1077.0000 1.0000
20.6100 1113.0000 1.0000
20.6200 1130.0000 1.0000
20.6300 1039.0000 1.0000
20.6400 1035.0000 1.0000
20.6500 1021.0000 1.0000
20.6600 1025.0000 1.0000
20.6700 1033.0000 1.0000
20.6800 1030.0000 1.0000
20.6900 1082.0000 1.0000
20.7000 1105.0000 1.0000
20.7100 1058.0000 1.0000
20.7200 1089.0000 1.0000
20.7300 1098.0000 1.0000
20.7400 1068.0000 1.0000
20.7500 1110.0000 1.0000
20.7600 1096.0000 1.0000
20.7700 1121.0000 1.0000
20.7800 1127.0000 1.0000
20.7900 1078.0000 1.0000
20.8000 1053.0000 1.0000
20.8100 1094.0000 1.0000
20.8200 1078.0000 1.0000
20.8300 1119.0000 1.0000
20.8400 1104.0000 1.0000
20.8500 1094.0000 1.0000
20.8600 1087.0000 1.0000
20.8700 1064.0000 1.0000
20.8800 1129.0000 1.0000
20.8900 1098.0000 1.0000
20.9000 1092.0000 1.0000
20.9100 1082.0000 1.0000
20.9200 1053.0000 1.0000
20.9300 1050.0000 1.0000
20.9400 1066.0000 1.0000
20.9500 1087.0000 1.0000
20.9600 1075.0000 1.0000
20.9700 1101.0000 1.0000
20.9800 1074.0000 1.0000
20.9900 1098.0000 1.0000
21.0000 1066.0000 1.0000
21.0100 1068.0000 1.0000
21.0200 1036.0000 1.0000
21.0300 1075.0000 1.0000
21.0400 1078.0000 1.0000
21.0500 1067.0000 1.0000
21.0600 1047.0000 1.0000
21.0700 1136.0000 1.0000
21.0800 1060.0000 1.0000
21.0900 1131.0000 1.0000
21.1000 1029.0000 1.0000
21.1100 1041.0000 1.0000
21.1200 1078.0000 1.0000
21.1300 1125.0000 1.0000
21.1400 1072.0000 1.0000
21.1500 1099.0000 1.0000
21.1600 1075.0000 1.0000
21.1700 1069.0000 1.0000
21.1800 1084.0000 1.0000
21.1900 1058.0000 1.0000
21.2000 1112.0000 1.0000
21.2100 1050.0000 1.0000
21.2200 1094.0000 1.0000
21.2300 1052.0000 1.0000
21.2400 1082.0000 1.0000
21.2500 1120.0000 1.0000
21.2600 1135.0000 1.0000
21.2700 1109.0000 1.0000
21.2800 1070.0000 1.0000
21.2900 1090.0000 1.0000
21.3000 1103.0000 1.0000
21.3100 1041.0000 1.0000
21.3200 1137.0000 1.0000
21.3300 1102.0000 1.0000
21.3400 1096.0000 1.0000
21.3500 1036.0000 1.0000
21.3600 1096.0000 1.0000
21.3700 1046.0000 1.0000
21.3800 1112.0000 1.0000
21.3900 1057.0000 1.0000
21.4000 1078.0000 1.0000
21.4100 1084.0000 1.0000
21.4200 1060.0000 1.0000
21.4300 1032.0000 1.0000
21.4400 1066.0000 1.0000
21.4500 1094.0000 1.0000
21.4600 1091.0000 1.0000
21.4700 1098.0000 1.0000
21.4800 1099.0000 1.0000
21.4900 1096.0000 1.0000
21.5000 1074.0000 1.0000
21.5100 1063.0000 1.0000
21.5200 1082.0000 1.0000
21.5300 1080.0000 1.0000
21.5400 1103.0000 1.0000
21.5500 1096.0000 1.0000
21.5600 1085.0000 1.0000
21.5700 1060.0000 1.0000
21.5800 1078.0000 1.0000
21.5900 1092.0000 1.0000
21.6000 1026.0000 1.0000
21.6100 1073.0000 1.0000
21.6200 1047.0000 1.0000
21.6300 1086.0000 1.0000
21.6400 1075.0000 1.0000
21.6500 1103.0000 1.0000
21.6600 1090.0000 1.0000
21.6700 1083.0000 1.0000
21.6800 1132.0000 1.0000
21.6900 1096.0000 1.0000
21.7000 1053.0000 1.0000
21.7100 1055.0000 1.0000
21.7200 1024.0000 1.0000
21.7300 1056.0000 1.0000
21.7400 1065.0000 1.0000
21.7500 1106.0000 1.0000
21.7600 1032.0000 1.0000
21.7700 1013.0000 1.0000
21.7800 1078.0000 1.0000
21.7900 1080.0000 1.0000
21.8000 1069.0000 1.0000
21.8100 1088.0000 1.0000
21.8200 1077.0000 1.0000
21.8300 1072.0000 1.0000
21.8400 1050.0000 1.0000
21.8500 1040.0000 1.0000
21.8600 1089.0000 1.0000
21.8700 1071.0000 1.0000
21.8800 1063.0000 1.0000
21.8900 994.0000 1.0000
21.9000 1081.0000 1.0000
21.9100 1142.0000 1.0000
21.9200 1122.0000 1.0000
21.9300 1066.0000 1.0000
21.9400 1045.0000 1.0000
21.9500 1069.0000 1.0000
21.9600 1073.0000 1.0000
21.9700 1099.0000 1.0000
21.9800 1006.0000 1.0000
21.9900 1043.0000 1.0000
22.0000 1092.0000 1.0000
22.0100 1065.0000 1.0000
22.0200 1063.0000 1.0000
22.0300 1062.0000 1.0000
22.0400 1052.0000 1.0000
22.0500 1003.0000 1.0000
22.0600 1036.0000 1.0000
22.0700 1080.0000 1.0000
22.0800 1057.0000 1.0000
22.0900 1042.0000 1.0000
22.1000 1058.0000 1.0000
22.1100 1028.0000 1.0000
22.1200 1072.0000 1.0000
22.1300 1084.0000 1.0000
22.1400 1089.0000 1.0000
22.1500 1038.0000 1.0000
22.1600 1039.0000 1.0000
22.1700 1076.0000 1.0000
22.1800 1067.0000 1.0000
22.1900 1035.0000 1.0000
22.2000 1048.0000 1.0000
22.2100 1088.0000 1.0000
22.2200 1068.0000 1.0000
22.2300 1095.0000 1.0000
22.2400 1107.0000 1.0000
22.2500 1066.0000 1.0000
22.2600 1065.0000 1.0000
22.2700 1069.0000 1.0000
22.2800 1065.0000 1.0000
22.2900 1057.0000 1.0000
22.3000 1097.0000 1.0000
22.3100 1123.0000 1.0000
22.3200 1061.0000 1.0000
22.3300 1067.0000 1.0000
22.3400 1056.0000 1.0000
22.3500 1074.0000 1.0000
22.3600 1088.0000 1.0000
22.3700 1085.0000 1.0000
22.3800 1054.0000 1.0000
22.3900 1082.0000 1.0000
22.4000 1030.0000 1.0000
22.4100 1084.0000 1.0000
22.4200 1065.0000 1.0000
22.4300 1053.0000 1.0000
22.4400 1056.0000 1.0000
22.4500 1064.0000 1.0000
22.4600 1085.0000 1.0000
22.4700 1061.0000 1.0000
22.4800 1099.0000 1.0000
22.4900 1114.0000 1.0000
22.5000 1101.0000 1.0000
22.5100 1099.0000 1.0000
22.5200 1045.0000 1.0000
22.5300 1099.0000 1.0000
22.5400 1072.0000 1.0000
22.5500 1101.0000 1.0000
22.5600 1079.0000 1.0000
22.5700 1067.0000 1.0000
22.5800 1032.0000 1.0000
22.5900 1009.0000 1.0000
22.6000 1018.0000 1.0000
22.6100 1128.0000 1.0000
22.6200 1112.0000 1.0000
22.6300 1075.0000 1.0000
22.6400 1040.0000 1.0000
22.6500 1119.0000 1.0000
22.6600 1091.0000 1.0000
22.6700 1086.0000 1.0000
22.6800 1025.0000 1.0000
22.6900 1083.0000 1.0000
22.7000 1084.0000 1.0000
22.7100 1127.0000 1.0000
22.7200 1079.0000 1.0000
22.7300 1067.0000 1.0000
22.7400 1044.0000 1.0000
22.7500 1104.0000 1.0000
22.7600 1081.0000 1.0000
22.7700 1047.0000 1.0000
22.7800 1070.0000 1.0000
22.7900 1082.0000 1.0000
22.8000 1058.0000 1.0000
22.8100 1071.0000 1.0000
22.8200 1124.0000 1.0000
22.8300 1010.0000 1.0000
22.8400 1045.0000 1.0000
22.8500 1107.0000 1.0000
22.8600 1072.0000 1.0000
22.8700 1047.0000 1.0000
22.8800 1061.0000 1.0000
22.8900 1052.0000 1.0000
22.9000 1093.0000 1.0000
22.9100 1053.0000 1.0000
22.9200 1079.0000 1.0000
22.9300 1058.0000 1.0000
22.9400 1069.0000 1.0000
22.9500 1071.0000 1.0000
22.9600 1042.0000 1.0000
22.9700 1007.0000 1.0000
22.9800 1003.0000 1.0000
22.9900 1055.0000 1.0000
23.0000 1049.0000 1.0000
23.0100 1074.0000 1.0000
23.0200 1089.0000 1.0000
23.0300 1091.0000 1.0000
23.0400 1051.0000 1.0000
23.0500 1071.0000 1.0000
23.0600 1031.0000 1.0000
23.0700 1046.0000 1.0000
23.0800 1022.0000 1.0000
23.0900 1068.0000 1.0000
23.1000 1071.0000 1.0000
23.1100 1022.0000 1.0000
23.1200 1039.0000 1.0000
23.1300 1064.0000 1.0000
23.1400 1079.0000 1.0000
23.1500 1111.0000 1.0000
23.1600 1056.0000 1.0000
23.1700 1045.0000 1.0000
23.1800 1077.0000 1.0000
23.1900 1076.0000 1.0000
23.2000 1095.0000 1.0000
23.2100 1044.0000 1.0000
23.2200 1017.0000 1.0000
23.2300 1066.0000 1.0000
23.2400 1089.0000 1.0000
23.2500 1074.0000 1.0000
23.2600 1092.0000 1.0000
23.2700 1102.0000 1.0000
23.2800 1102.0000 1.0000
23.2900 1035.0000 1.0000
23.3000 1039.0000 1.0000
23.3100 1061.0000 1.0000
23.3200 1086.0000 1.0000
23.3300 1091.0000 1.0000
23.3400 1072.0000 1.0000
23.3500 1147.0000 1.0000
23.3600 1088.0000 1.0000
23.3700 1055.0000 1.0000
23.3800 1057.0000 1.0000
23.3900 1042.0000 1.0000
23.4000 1030.0000 1.0000
23.4100 1046.0000 1.0000
23.4200 1054.0000 1.0000
23.4300 1044.0000 1.0000
23.4400 1040.0000 1.0000
23.4500 1102.0000 1.0000
23.4600 1085.0000 1.0000
23.4700 1074.0000 1.0000
23.4800 1065.0000 1.0000
23.4900 1079.0000 1.0000
23.5000 1082.0000 1.0000
23.5100 1039.0000 1.0000
23.5200 1096.0000 1.0000
23.5300 1058.0000 1.0000
23.5400 1097.0000 1.0000
23.5500 1060.0000 1.0000
23.5600 1079.0000 1.0000
23.5700 1097.0000 1.0000
23.5800 1026.0000 1.0000
23.5900 1021.0000 1.0000
23.6000 1076.0000 1.0000
23.6100 989.0000 1.0000
23.6200 955.0000 1.0000
23.6300 1009.0000 1.0000
23.6400 1056.0000 1.0000
23.6500 1075.0000 1.0000
23.6600 1089.0000 1.0000
23.6700 1120.0000 1.0000
23.6800 1048.0000 1.0000
23.6900 1037.0000 1.0000
23.7000 1094.0000 1.0000
23.7100 1043.0000 1.0000
23.7200 1032.0000 1.0000
23.7300 1009.0000 1.0000
23.7400 1101.0000 1.0000
23.7500 1064.0000 1.0000
23.7600 1149.0000 1.0000
23.7700 1074.0000 1.0000
23.7800 1034.0000 1.0000
23.7900 1110.0000 1.0000
23.8000 1078.0000 1.0000
23.8100 1122.0000 1.0000
23.8200 1058.0000 1.0000
23.8300 1042.0000 1.0000
23.8400 1054.0000 1.0000
23.8500 1131.0000 1.0000
23.8600 1059.0000 1.0000
23.8700 1144.0000 1.0000
23.8800 1072.0000 1.0000
23.8900 1101.0000 1.0000
23.9000 1107.0000 1.0000
23.9100 1087.0000 1.0000
23.9200 1097.0000 1.0000
23.9300 1122.0000 1.0000
23.9400 1093.0000 1.0000
23.9500 1108.0000 1.0000
23.9600 1130.0000 1.0000
23.9700 1137.0000 1.0000
23.9800 1141.0000 1.0000
23.9900 1121.0000 1.0000
24.0000 1146.0000 1.0000
24.0100 1133.0000 1.0000
24.0200 1168.0000 1.0000
24.0300 1152.0000 1.0000
24.0400 1153.0000 1.0000
24.0500 1210.0000 1.0000
24.0600 1221.0000 1.0000
24.0700 1238.0000 1.0000
24.0800 1241.0000 1.0000
24.0900 1223.0000 1.0000
24.1000 1241.0000 1.0000
24.1100 1203.0000 1.0000
24.1200 1229.0000 1.0000
24.1300 1240.0000 1.0000
24.1400 1191.0000 1.0000
24.1500 1237.0000 1.0000
24.1600 1211.0000 1.0000
24.1700 1181.0000 1.0000
24.1800 1217.0000 1.0000
24.1900 1127.0000 1.0000
24.2000 1109.0000 1.0000
24.2100 1143.0000 1.0000
24.2200 1161.0000 1.0000
24.2300 1150.0000 1.0000
24.2400 1153.0000 1.0000
24.2500 1146.0000 1.0000
24.2600 1092.0000 1.0000
24.2700 1101.0000 1.0000
24.2800 1147.0000 1.0000
24.2900 1119.0000 1.0000
24.3000 1069.0000 1.0000
24.3100 1099.0000 1.0000
24.3200 1023.0000 1.0000
24.3300 1109.0000 1.0000
24.3400 1075.0000 1.0000
24.3500 1126.0000 1.0000
24.3600 1096.0000 1.0000
24.3700 1059.0000 1.0000
24.3800 1123.0000 1.0000
24.3900 1109.0000 1.0000
24.4000 1121.0000 1.0000
24.4100 1091.0000 1.0000
24.4200 1056.0000 1.0000
24.4300 1049.0000 1.0000
24.4400 1084.0000 1.0000
24.4500 1086.0000 1.0000
24.4600 1092.0000 1.0000
24.4700 1090.0000 1.0000
24.4800 1059.0000 1.0000
24.4900 1040.0000 1.0000
24.5000 1071.0000 1.0000
24.5100 1081.0000 1.0000
24.5200 1034.0000 1.0000
24.5300 1084.0000 1.0000
24.5400 1111.0000 1.0000
24.5500 1016.0000 1.0000
24.5600 1061.0000 1.0000
24.5700 988.0000 1.0000
24.5800 1026.0000 1.0000
24.5900 1061.0000 1.0000
24.6000 1058.0000 1.0000
24.6100 1045.0000 1.0000
24.6200 1016.0000 1.0000
24.6300 973.0000 1.0000
24.6400 999.0000 1.0000
24.6500 1044.0000 1.0000
24.6600 1027.0000 1.0000
24.6700 1066.0000 1.0000
24.6800 1041.0000 1.0000
24.6900 1061.0000 1.0000
24.7000 1079.0000 1.0000
24.7100 1058.0000 1.0000
24.7200 1100.0000 1.0000
24.7300 1049.0000 1.0000
24.7400 1075.0000 1.0000
24.7500 1028.0000 1.0000
24.7600 1077.0000 1.0000
24.7700 1051.0000 1.0000
24.7800 1072.0000 1.0000
24.7900 1061.0000 1.0000
24.8000 1077.0000 1.0000
24.8100 1064.0000 1.0000
24.8200 1035.0000 1.0000
24.8300 1059.0000 1.0000
24.8400 1075.0000 1.0000
24.8500 1053.0000 1.0000
24.8600 1092.0000 1.0000
24.8700 1058.0000 1.0000
24.8800 1072.0000 1.0000
24.8900 1006.0000 1.0000
24.9000 1033.0000 1.0000
24.9100 1044.0000 1.0000
24.9200 1045.0000 1.0000
24.9300 1023.0000 1.0000
24.9400 1084.0000 1.0000
24.9500 1110.0000 1.0000
24.9600 1074.0000 1.0000
24.9700 1046.0000 1.0000
24.9800 1042.0000 1.0000
24.9900 1069.0000 1.0000
25.0000 1042.0000 1.0000
25.0100 1053.0000 1.0000
25.0200 1030.0000 1.0000
25.0300 1038.0000 1.0000
25.0400 981.0000 1.0000
25.0500 1012.0000 1.0000
25.0600 1071.0000 1.0000
25.0700 1028.0000 1.0000
25.0800 1074.0000 1.0000
25.0900 1052.0000 1.0000
25.1000 1021.0000 1.0000
25.1100 1059.0000 1.0000
25.1200 1054.0000 1.0000
25.1300 984.0000 1.0000
25.1400 1019.0000 1.0000
25.1500 1059.0000 1.0000
25.1600 1062.0000 1.0000
25.1700 1058.0000 1.0000
25.1800 1003.0000 1.0000
25.1900 996.0000 1.0000
25.2000 1024.0000 1.0000
25.2100 1033.0000 1.0000
25.2200 1039.0000 1.0000
25.2300 1053.0000 1.0000
25.2400 1068.0000 1.0000
25.2500 1042.0000 1.0000
25.2600 1018.0000 1.0000
25.2700 1083.0000 1.0000
25.2800 1041.0000 1.0000
25.2900 1073.0000 1.0000
25.3000 1033.0000 1.0000
25.3100 1077.0000 1.0000
25.3200 1085.0000 1.0000
25.3300 1045.0000 1.0000
25.3400 1067.0000 1.0000
25.3500 1052.0000 1.0000
25.3600 1054.0000 1.0000
25.3700 1042.0000 1.0000
25.3800 1103.0000 1.0000
25.3900 1053.0000 1.0000
25.4000 992.0000 1.0000
25.4100 1036.0000 1.0000
25.4200 1058.0000 1.0000
25.4300 1025.0000 1.0000
25.4400 1008.0000 1.0000
25.4500 1079.0000 1.0000
25.4600 1070.0000 1.0000
25.4700 1093.0000 1.0000
25.4800 1066.0000 1.0000
25.4900 1050.0000 1.0000
25.5000 1033.0000 1.0000
25.5100 1107.0000 1.0000
25.5200 1057.0000 1.0000
25.5300 1066.0000 1.0000
25.5400 1074.0000 1.0000
25.5500 999.0000 1.0000
25.5600 1006.0000 1.0000
25.5700 1044.0000 1.0000
25.5800 1084.0000 1.0000
25.5900 1060.0000 1.0000
25.6000 1102.0000 1.0000
25.6100 1111.0000 1.0000
25.6200 1067.0000 1.0000
25.6300 1099.0000 1.0000
25.6400 1044.0000 1.0000
25.6500 1053.0000 1.0000
25.6600 1096.0000 1.0000
25.6700 1069.0000 1.0000
25.6800 1072.0000 1.0000
25.6900 1055.0000 1.0000
25.7000 1054.0000 1.0000
25.7100 1084.0000 1.0000
25.7200 1076.0000 1.0000
25.7300 1108.0000 1.0000
25.7400 1104.0000 1.0000
25.7500 1064.0000 1.0000
25.7600 1092.0000 1.0000
25.7700 1076.0000 1.0000
25.7800 1090.0000 1.0000
25.7900 1080.0000 1.0000
25.8000 1121.0000 1.0000
25.8100 1090.0000 1.0000
25.8200 1102.0000 1.0000
25.8300 1086.0000 1.0000
25.8400 1083.0000 1.0000
25.8500 1107.0000 1.0000
25.8600 1082.0000 1.0000
25.8700 1128.0000 1.0000
25.8800 1168.0000 1.0000
25.8900 1138.0000 1.0000
25.9000 1118.0000 1.0000
25.9100 1140.0000 1.0000
25.9200 1121.0000 1.0000
25.9300 1140.0000 1.0000
25.9400 1178.0000 1.0000
25.9500 1157.0000 1.0000
25.9600 1126.0000 1.0000
25.9700 1181.0000 1.0000
25.9800 1128.0000 1.0000
25.9900 1121.0000 1.0000
26.0000 1145.0000 1.0000
26.0100 1174.0000 1.0000
26.0200 1176.0000 1.0000
26.0300 1231.0000 1.0000
26.0400 1175.0000 1.0000
26.0500 1233.0000 1.0000
26.0600 1204.0000 1.0000
26.0700 1233.0000 1.0000
26.0800 1268.0000 1.0000
26.0900 1247.0000 1.0000
26.1000 1254.0000 1.0000
26.1100 1257.0000 1.0000
26.1200 1305.0000 1.0000
26.1300 1345.0000 1.0000
26.1400 1345.0000 1.0000
26.1500 1375.0000 1.0000
26.1600 1372.0000 1.0000
26.1700 1374.0000 1.0000
26.1800 1465.0000 1.0000
26.1900 1449.0000 1.0000
26.2000 1510.0000 1.0000
26.2100 1582.0000 1.0000
26.2200 1525.0000 1.0000
26.2300 1660.0000 1.0000
26.2400 1706.0000 1.0000
26.2500 1726.0000 1.0000
26.2600 1750.0000 1.0000
26.2700 1813.0000 1.0000
26.2800 1897.0000 1.0000
26.2900 2038.0000 1.0000
26.3000 2122.0000 1.0000
26.3100 2212.0000 1.0000
26.3200 2297.0000 1.0000
26.3300 2417.0000 1.0000
26.3400 2556.0000 1.0000
26.3500 2653.0000 1.0000
26.3600 2753.0000 1.0000
26.3700 2941.0000 1.0000
26.3800 3191.0000 1.0000
26.3900 3285.0000 1.0000
26.4000 3445.0000 1.0000
26.4100 3553.0000 1.0000
26.4200 3644.0000 1.0000
26.4300 3734.0000 1.0000
26.4400 3820.0000 1.0000
26.4500 4019.0000 1.0000
26.4600 3913.0000 1.0000
26.4700 3960.0000 1.0000
26.4800 3888.0000 1.0000
26.4900 3747.0000 1.0000
26.5000 3743.0000 1.0000
26.5100 3551.0000 1.0000
26.5200 3386.0000 1.0000
26.5300 3206.0000 1.0000
26.5400 3013.0000 1.0000
26.5500 2921.0000 1.0000
26.5600 2778.0000 1.0000
26.5700 2629.0000 1.0000
26.5800 2492.0000 1.0000
26.5900 2398.0000 1.0000
26.6000 2200.0000 1.0000
26.6100 2174.0000 1.0000
26.6200 2001.0000 1.0000
26.6300 2002.0000 1.0000
26.6400 1844.0000 1.0000
26.6500 1740.0000 1.0000
26.6600 1680.0000 1.0000
26.6700 1673.0000 1.0000
26.6800 1634.0000 1.0000
26.6900 1583.0000 1.0000
26.7000 1625.0000 1.0000
26.7100 1453.0000 1.0000
26.7200 1404.0000 1.0000
26.7300 1351.0000 1.0000
26.7400 1378.0000 1.0000
26.7500 1424.0000 1.0000
26.7600 1405.0000 1.0000
26.7700 1282.0000 1.0000
26.7800 1307.0000 1.0000
26.7900 1290.0000 1.0000
26.8000 1294.0000 1.0000
26.8100 1253.0000 1.0000
26.8200 1219.0000 1.0000
26.8300 1213.0000 1.0000
26.8400 1265.0000 1.0000
26.8500 1191.0000 1.0000
26.8600 1262.0000 1.0000
26.8700 1200.0000 1.0000
26.8800 1150.0000 1.0000
26.8900 1198.0000 1.0000
26.9000 1192.0000 1.0000
26.9100 1127.0000 1.0000
26.9200 1139.0000 1.0000
26.9300 1183.0000 1.0000
26.9400 1145.0000 1.0000
26.9500 1134.0000 1.0000
26.9600 1121.0000 1.0000
26.9700 1148.0000 1.0000
26.9800 1097.0000 1.0000
26.9900 1100.0000 1.0000
27.0000 1118.0000 1.0000
27.0100 1087.0000 1.0000
27.0200 1069.0000 1.0000
27.0300 1105.0000 1.0000
27.0400 1095.0000 1.0000
27.0500 1034.0000 1.0000
27.0600 1029.0000 1.0000
27.0700 1067.0000 1.0000
27.0800 1106.0000 1.0000
27.0900 1026.0000 1.0000
27.1000 1153.0000 1.0000
27.1100 1049.0000 1.0000
27.1200 1146.0000 1.0000
27.1300 1075.0000 1.0000
27.1400 1057.0000 1.0000
27.1500 1054.0000 1.0000
27.1600 1046.0000 1.0000
27.1700 1053.0000 1.0000
27.1800 1057.0000 1.0000
27.1900 1025.0000 1.0000
27.2000 1053.0000 1.0000
27.2100 1054.0000 1.0000
27.2200 1052.0000 1.0000
27.2300 1094.0000 1.0000
27.2400 1077.0000 1.0000
27.2500 1021.0000 1.0000
27.2600 998.0000 1.0000
27.2700 1034.0000 1.0000
27.2800 1018.0000 1.0000
27.2900 1012.0000 1.0000
27.3000 1025.0000 1.0000
27.3100 994.0000 1.0000
27.3200 940.0000 1.0000
27.3300 1005.0000 1.0000
27.3400 1031.0000 1.0000
27.3500 1046.0000 1.0000
27.3600 986.0000 1.0000
27.3700 1039.0000 1.0000
27.3800 1016.0000 1.0000
27.3900 1039.0000 1.0000
27.4000 1038.0000 1.0000
27.4100 1012.0000 1.0000
27.4200 993.0000 1.0000
27.4300 1026.0000 1.0000
27.4400 990.0000 1.0000
27.4500 1032.0000 1.0000
27.4600 1024.0000 1.0000
27.4700 1012.0000 1.0000
27.4800 1030.0000 1.0000
27.4900 991.0000 1.0000
27.5000 1024.0000 1.0000
27.5100 1063.0000 1.0000
27.5200 988.0000 1.0000
27.5300 996.0000 1.0000
27.5400 1009.0000 1.0000
27.5500 963.0000 1.0000
27.5600 994.0000 1.0000
27.5700 1026.0000 1.0000
27.5800 1004.0000 1.0000
27.5900 964.0000 1.0000
27.6000 1009.0000 1.0000
27.6100 1019.0000 1.0000
27.6200 952.0000 1.0000
27.6300 982.0000 1.0000
27.6400 998.0000 1.0000
27.6500 1052.0000 1.0000
27.6600 1021.0000 1.0000
27.6700 949.0000 1.0000
27.6800 1010.0000 1.0000
27.6900 980.0000 1.0000
27.7000 991.0000 1.0000
27.7100 962.0000 1.0000
27.7200 989.0000 1.0000
27.7300 938.0000 1.0000
27.7400 964.0000 1.0000
27.7500 963.0000 1.0000
27.7600 1011.0000 1.0000
27.7700 963.0000 1.0000
27.7800 963.0000 1.0000
27.7900 1002.0000 1.0000
27.8000 1011.0000 1.0000
27.8100 971.0000 1.0000
27.8200 921.0000 1.0000
27.8300 967.0000 1.0000
27.8400 952.0000 1.0000
27.8500 982.0000 1.0000
27.8600 992.0000 1.0000
27.8700 936.0000 1.0000
27.8800 935.0000 1.0000
27.8900 950.0000 1.0000
27.9000 969.0000 1.0000
27.9100 966.0000 1.0000
27.9200 983.0000 1.0000
27.9300 975.0000 1.0000
27.9400 973.0000 1.0000
27.9500 933.0000 1.0000
27.9600 939.0000 1.0000
27.9700 999.0000 1.0000
27.9800 1001.0000 1.0000
27.9900 991.0000 1.0000
28.0000 1014.0000 1.0000
28.0100 1016.0000 1.0000
28.0200 890.0000 1.0000
28.0300 984.0000 1.0000
28.0400 923.0000 1.0000
28.0500 962.0000 1.0000
28.0600 941.0000 1.0000
28.0700 970.0000 1.0000
28.0800 987.0000 1.0000
28.0900 1026.0000 1.0000
28.1000 971.0000 1.0000
28.1100 972.0000 1.0000
28.1200 962.0000 1.0000
28.1300 926.0000 1.0000
28.1400 900.0000 1.0000
28.1500 996.0000 1.0000
28.1600 945.0000 1.0000
28.1700 952.0000 1.0000
28.1800 984.0000 1.0000
28.1900 928.0000 1.0000
28.2000 959.0000 1.0000
28.2100 971.0000 1.0000
28.2200 973.0000 1.0000
28.2300 949.0000 1.0000
28.2400 1000.0000 1.0000
28.2500 975.0000 1.0000
28.2600 974.0000 1.0000
28.2700 985.0000 1.0000
28.2800 990.0000 1.0000
28.2900 909.0000 1.0000
28.3000 933.0000 1.0000
28.3100 1011.0000 1.0000
28.3200 986.0000 1.0000
28.3300 958.0000 1.0000
28.3400 961.0000 1.0000
28.3500 1006.0000 1.0000
28.3600 954.0000 1.0000
28.3700 955.0000 1.0000
28.3800 948.0000 1.0000
28.3900 985.0000 1.0000
28.4000 913.0000 1.0000
28.4100 914.0000 1.0000
28.4200 963.0000 1.0000
28.4300 970.0000 1.0000
28.4400 973.0000 1.0000
28.4500 978.0000 1.0000
28.4600 967.0000 1.0000
28.4700 1022.0000 1.0000
28.4800 1004.0000 1.0000
28.4900 974.0000 1.0000
28.5000 953.0000 1.0000
28.5100 979.0000 1.0000
28.5200 923.0000 1.0000
28.5300 915.0000 1.0000
28.5400 974.0000 1.0000
28.5500 934.0000 1.0000
28.5600 964.0000 1.0000
28.5700 969.0000 1.0000
28.5800 939.0000 1.0000
28.5900 929.0000 1.0000
28.6000 938.0000 1.0000
28.6100 972.0000 1.0000
28.6200 971.0000 1.0000
28.6300 1006.0000 1.0000
28.6400 951.0000 1.0000
28.6500 919.0000 1.0000
28.6600 897.0000 1.0000
28.6700 942.0000 1.0000
28.6800 931.0000 1.0000
28.6900 963.0000 1.0000
28.7000 934.0000 1.0000
28.7100 943.0000 1.0000
28.7200 921.0000 1.0000
28.7300 950.0000 1.0000
28.7400 897.0000 1.0000
28.7500 951.0000 1.0000
28.7600 907.0000 1.0000
28.7700 932.0000 1.0000
28.7800 976.0000 1.0000
28.7900 964.0000 1.0000
28.8000 910.0000 1.0000
28.8100 961.0000 1.0000
28.8200 944.0000 1.0000
28.8300 915.0000 1.0000
28.8400 902.0000 1.0000
28.8500 926.0000 1.0000
28.8600 920.0000 1.0000
28.8700 947.0000 1.0000
28.8800 954.0000 1.0000
28.8900 892.0000 1.0000
28.9000 952.0000 1.0000
28.9100 959.0000 1.0000
28.9200 929.0000 1.0000
28.9300 963.0000 1.0000
28.9400 921.0000 1.0000
28.9500 942.0000 1.0000
28.9600 927.0000 1.0000
28.9700 962.0000 1.0000
28.9800 936.0000 1.0000
28.9900 938.0000 1.0000
29.0000 900.0000 1.0000
29.0100 952.0000 1.0000
29.0200 935.0000 1.0000
29.0300 963.0000 1.0000
29.0400 930.0000 1.0000
29.0500 956.0000 1.0000
29.0600 943.0000 1.0000
29.0700 929.0000 1.0000
29.0800 949.0000 1.0000
29.0900 971.0000 1.0000
29.1000 900.0000 1.0000
29.1100 929.0000 1.0000
29.1200 869.0000 1.0000
29.1300 898.0000 1.0000
29.1400 902.0000 1.0000
29.1500 917.0000 1.0000
29.1600 878.0000 1.0000
29.1700 984.0000 1.0000
29.1800 951.0000 1.0000
29.1900 936.0000 1.0000
29.2000 905.0000 1.0000
29.2100 971.0000 1.0000
29.2200 895.0000 1.0000
29.2300 946.0000 1.0000
29.2400 907.0000 1.0000
29.2500 927.0000 1.0000
29.2600 892.0000 1.0000
29.2700 911.0000 1.0000
29.2800 896.0000 1.0000
29.2900 908.0000 1.0000
29.3000 921.0000 1.0000
29.3100 935.0000 1.0000
29.3200 880.0000 1.0000
29.3300 927.0000 1.0000
29.3400 909.0000 1.0000
29.3500 927.0000 1.0000
29.3600 924.0000 1.0000
29.3700 913.0000 1.0000
29.3800 944.0000 1.0000
29.3900 930.0000 1.0000
29.4000 910.0000 1.0000
29.4100 894.0000 1.0000
29.4200 923.0000 1.0000
29.4300 916.0000 1.0000
29.4400 934.0000 1.0000
29.4500 984.0000 1.0000
29.4600 934.0000 1.0000
29.4700 912.0000 1.0000
29.4800 907.0000 1.0000
29.4900 924.0000 1.0000
29.5000 947.0000 1.0000
29.5100 984.0000 1.0000
29.5200 895.0000 1.0000
29.5300 857.0000 1.0000
29.5400 909.0000 1.0000
29.5500 931.0000 1.0000
29.5600 936.0000 1.0000
29.5700 952.0000 1.0000
29.5800 908.0000 1.0000
29.5900 952.0000 1.0000
29.6000 939.0000 1.0000
29.6100 896.0000 1.0000
29.6200 888.0000 1.0000
29.6300 948.0000 1.0000
29.6400 887.0000 1.0000
29.6500 921.0000 1.0000
29.6600 895.0000 1.0000
29.6700 894.0000 1.0000
29.6800 932.0000 1.0000
29.6900 930.0000 1.0000
29.7000 922.0000 1.0000
29.7100 863.0000 1.0000
29.7200 892.0000 1.0000
29.7300 946.0000 1.0000
29.7400 926.0000 1.0000
29.7500 921.0000 1.0000
29.7600 886.0000 1.0000
29.7700 944.0000 1.0000
29.7800 934.0000 1.0000
29.7900 922.0000 1.0000
29.8000 885.0000 1.0000
29.8100 924.0000 1.0000
29.8200 931.0000 1.0000
29.8300 931.0000 1.0000
29.8400 920.0000 1.0000
29.8500 918.0000 1.0000
29.8600 896.0000 1.0000
29.8700 918.0000 1.0000
29.8800 882.0000 1.0000
29.8900 869.0000 1.0000
29.9000 878.0000 1.0000
29.9100 875.0000 1.0000
29.9200 895.0000 1.0000
29.9300 879.0000 1.0000
29.9400 880.0000 1.0000
29.9500 886.0000 1.0000
29.9600 922.0000 1.0000
29.9700 889.0000 1.0000
29.9800 912.0000 1.0000
29.9900 904.0000 1.0000
30.0000 879.0000 1.0000
30.0100 906.0000 1.0000
30.0200 951.0000 1.0000
30.0300 926.0000 1.0000
30.0400 932.0000 1.0000
30.0500 905.0000 1.0000
30.0600 917.0000 1.0000
30.0700 881.0000 1.0000
30.0800 878.0000 1.0000
30.0900 889.0000 1.0000
30.1000 907.0000 1.0000
30.1100 889.0000 1.0000
30.1200 910.0000 1.0000
30.1300 856.0000 1.0000
30.1400 883.0000 1.0000
30.1500 894.0000 1.0000
30.1600 939.0000 1.0000
30.1700 908.0000 1.0000
30.1800 894.0000 1.0000
30.1900 910.0000 1.0000
30.2000 921.0000 1.0000
30.2100 884.0000 1.0000
30.2200 960.0000 1.0000
30.2300 908.0000 1.0000
30.2400 890.0000 1.0000
30.2500 908.0000 1.0000
30.2600 895.0000 1.0000
30.2700 921.0000 1.0000
30.2800 947.0000 1.0000
30.2900 922.0000 1.0000
30.3000 893.0000 1.0000
30.3100 900.0000 1.0000
30.3200 951.0000 1.0000
30.3300 908.0000 1.0000
30.3400 917.0000 1.0000
30.3500 915.0000 1.0000
30.3600 880.0000 1.0000
30.3700 866.0000 1.0000
30.3800 854.0000 1.0000
30.3900 912.0000 1.0000
30.4000 895.0000 1.0000
30.4100 941.0000 1.0000
30.4200 933.0000 1.0000
30.4300 915.0000 1.0000
30.4400 858.0000 1.0000
30.4500 850.0000 1.0000
30.4600 909.0000 1.0000
30.4700 904.0000 1.0000
30.4800 917.0000 1.0000
30.4900 826.0000 1.0000
30.5000 836.0000 1.0000
30.5100 866.0000 1.0000
30.5200 846.0000 1.0000
30.5300 819.0000 1.0000
30.5400 829.0000 1.0000
30.5500 835.0000 1.0000
30.5600 892.0000 1.0000
30.5700 913.0000 1.0000
30.5800 868.0000 1.0000
30.5900 879.0000 1.0000
30.6000 842.0000 1.0000
30.6100 828.0000 1.0000
30.6200 904.0000 1.0000
30.6300 858.0000 1.0000
30.6400 885.0000 1.0000
30.6500 913.0000 1.0000
30.6600 855.0000 1.0000
30.6700 889.0000 1.0000
30.6800 870.0000 1.0000
30.6900 879.0000 1.0000
30.7000 855.0000 1.0000
30.7100 858.0000 1.0000
30.7200 847.0000 1.0000
30.7300 838.0000 1.0000
30.7400 889.0000 1.0000
30.7500 907.0000 1.0000
30.7600 859.0000 1.0000
30.7700 911.0000 1.0000
30.7800 897.0000 1.0000
30.7900 880.0000 1.0000
30.8000 835.0000 1.0000
30.8100 862.0000 1.0000
30.8200 887.0000 1.0000
30.8300 877.0000 1.0000
30.8400 861.0000 1.0000
30.8500 856.0000 1.0000
30.8600 850.0000 1.0000
30.8700 831.0000 1.0000
30.8800 846.0000 1.0000
30.8900 876.0000 1.0000
30.9000 881.0000 1.0000
30.9100 926.0000 1.0000
30.9200 863.0000 1.0000
30.9300 885.0000 1.0000
30.9400 889.0000 1.0000
30.9500 893.0000 1.0000
30.9600 911.0000 1.0000
30.9700 876.0000 1.0000
30.9800 916.0000 1.0000
30.9900 904.0000 1.0000
31.0000 923.0000 1.0000
31.0100 856.0000 1.0000
31.0200 870.0000 1.0000
31.0300 850.0000 1.0000
31.0400 844.0000 1.0000
31.0500 858.0000 1.0000
31.0600 808.0000 1.0000
31.0700 829.0000 1.0000
31.0800 885.0000 1.0000
31.0900 871.0000 1.0000
31.1000 878.0000 1.0000
31.1100 896.0000 1.0000
31.1200 849.0000 1.0000
31.1300 851.0000 1.0000
31.1400 884.0000 1.0000
31.1500 887.0000 1.0000
31.1600 859.0000 1.0000
31.1700 895.0000 1.0000
31.1800 903.0000 1.0000
31.1900 873.0000 1.0000
31.2000 913.0000 1.0000
31.2100 878.0000 1.0000
31.2200 839.0000 1.0000
31.2300 849.0000 1.0000
31.2400 906.0000 1.0000
31.2500 871.0000 1.0000
31.2600 888.0000 1.0000
31.2700 864.0000 1.0000
31.2800 868.0000 1.0000
31.2900 872.0000 1.0000
31.3000 875.0000 1.0000
31.3100 908.0000 1.0000
31.3200 871.0000 1.0000
31.3300 869.0000 1.0000
31.3400 855.0000 1.0000
31.3500 824.0000 1.0000
31.3600 845.0000 1.0000
31.3700 864.0000 1.0000
31.3800 864.0000 1.0000
31.3900 883.0000 1.0000
31.4000 854.0000 1.0000
31.4100 834.0000 1.0000
31.4200 875.0000 1.0000
31.4300 873.0000 1.0000
31.4400 867.0000 1.0000
31.4500 865.0000 1.0000
31.4600 873.0000 1.0000
31.4700 840.0000 1.0000
31.4800 858.0000 1.0000
31.4900 876.0000 1.0000
31.5000 831.0000 1.0000
31.5100 920.0000 1.0000
31.5200 879.0000 1.0000
31.5300 897.0000 1.0000
31.5400 800.0000 1.0000
31.5500 868.0000 1.0000
31.5600 879.0000 1.0000
31.5700 877.0000 1.0000
31.5800 907.0000 1.0000
31.5900 813.0000 1.0000
31.6000 816.0000 1.0000
31.6100 847.0000 1.0000
31.6200 880.0000 1.0000
31.6300 833.0000 1.0000
31.6400 865.0000 1.0000
31.6500 920.0000 1.0000
31.6600 851.0000 1.0000
31.6700 854.0000 1.0000
31.6800 852.0000 1.0000
31.6900 845.0000 1.0000
31.7000 805.0000 1.0000
31.7100 844.0000 1.0000
31.7200 880.0000 1.0000
31.7300 897.0000 1.0000
31.7400 829.0000 1.0000
31.7500 807.0000 1.0000
31.7600 869.0000 1.0000
31.7700 840.0000 1.0000
31.7800 880.0000 1.0000
31.7900 921.0000 1.0000
31.8000 864.0000 1.0000
31.8100 798.0000 1.0000
31.8200 815.0000 1.0000
31.8300 833.0000 1.0000
31.8400 888.0000 1.0000
31.8500 806.0000 1.0000
31.8600 832.0000 1.0000
31.8700 850.0000 1.0000
31.8800 881.0000 1.0000
31.8900 826.0000 1.0000
31.9000 838.0000 1.0000
31.9100 817.0000 1.0000
31.9200 856.0000 1.0000
31.9300 842.0000 1.0000
31.9400 813.0000 1.0000
31.9500 818.0000 1.0000
31.9600 847.0000 1.0000
31.9700 835.0000 1.0000
31.9800 832.0000 1.0000
31.9900 865.0000 1.0000
32.0000 857.0000 1.0000
32.0100 821.0000 1.0000
32.0200 824.0000 1.0000
32.0300 846.0000 1.0000
32.0400 827.0000 1.0000
32.0500 826.0000 1.0000
32.0600 849.0000 1.0000
32.0700 842.0000 1.0000
32.0800 844.0000 1.0000
32.0900 831.0000 1.0000
32.1000 841.0000 1.0000
32.1100 813.0000 1.0000
32.1200 852.0000 1.0000
32.1300 830.0000 1.0000
32.1400 845.0000 1.0000
32.1500 834.0000 1.0000
32.1600 829.0000 1.0000
32.1700 864.0000 1.0000
32.1800 821.0000 1.0000
32.1900 816.0000 1.0000
32.2000 810.0000 1.0000
32.2100 847.0000 1.0000
32.2200 822.0000 1.0000
32.2300 832.0000 1.0000
32.2400 806.0000 1.0000
32.2500 807.0000 1.0000
32.2600 815.0000 1.0000
32.2700 828.0000 1.0000
32.2800 808.0000 1.0000
32.2900 817.0000 1.0000
32.3000 846.0000 1.0000
32.3100 842.0000 1.0000
32.3200 788.0000 1.0000
32.3300 838.0000 1.0000
32.3400 844.0000 1.0000
32.3500 811.0000 1.0000
32.3600 824.0000 1.0000
32.3700 820.0000 1.0000
32.3800 834.0000 1.0000
32.3900 861.0000 1.0000
32.4000 846.0000 1.0000
32.4100 827.0000 1.0000
32.4200 802.0000 1.0000
32.4300 836.0000 1.0000
32.4400 766.0000 1.0000
32.4500 807.0000 1.0000
32.4600 805.0000 1.0000
32.4700 849.0000 1.0000
32.4800 881.0000 1.0000
32.4900 845.0000 1.0000
32.5000 864.0000 1.0000
32.5100 850.0000 1.0000
32.5200 791.0000 1.0000
32.5300 800.0000 1.0000
32.5400 856.0000 1.0000
32.5500 846.0000 1.0000
32.5600 828.0000 1.0000
32.5700 796.0000 1.0000
32.5800 825.0000 1.0000
32.5900 815.0000 1.0000
32.6000 829.0000 1.0000
32.6100 803.0000 1.0000
32.6200 823.0000 1.0000
32.6300 813.0000 1.0000
32.6400 847.0000 1.0000
32.6500 819.0000 1.0000
32.6600 874.0000 1.0000
32.6700 828.0000 1.0000
32.6800 852.0000 1.0000
32.6900 845.0000 1.0000
32.7000 824.0000 1.0000
32.7100 838.0000 1.0000
32.7200 790.0000 1.0000
32.7300 850.0000 1.0000
32.7400 850.0000 1.0000
32.7500 834.0000 1.0000
32.7600 840.0000 1.0000
32.7700 848.0000 1.0000
32.7800 850.0000 1.0000
32.7900 856.0000 1.0000
32.8000 845.0000 1.0000
32.8100 832.0000 1.0000
32.8200 876.0000 1.0000
32.8300 880.0000 1.0000
32.8400 857.0000 1.0000
32.8500 893.0000 1.0000
32.8600 889.0000 1.0000
32.8700 898.0000 1.0000
32.8800 881.0000 1.0000
32.8900 927.0000 1.0000
32.9000 910.0000 1.0000
32.9100 898.0000 1.0000
32.9200 879.0000 1.0000
32.9300 917.0000 1.0000
32.9400 856.0000 1.0000
32.9500 935.0000 1.0000
32.9600 953.0000 1.0000
32.9700 1006.0000 1.0000
32.9800 1019.0000 1.0000
32.9900 1079.0000 1.0000
33.0000 1073.0000 1.0000
33.0100 1092.0000 1.0000
33.0200 1125.0000 1.0000
33.0300 1131.0000 1.0000
33.0400 1206.0000 1.0000
33.0500 1203.0000 1.0000
33.0600 1276.0000 1.0000
33.0700 1244.0000 1.0000
33.0800 1319.0000 1.0000
33.0900 1358.0000 1.0000
33.1000 1315.0000 1.0000
33.1100 1320.0000 1.0000
33.1200 1376.0000 1.0000
33.1300 1341.0000 1.0000
33.1400 1280.0000 1.0000
33.1500 1315.0000 1.0000
33.1600 1331.0000 1.0000
33.1700 1230.0000 1.0000
33.1800 1191.0000 1.0000
33.1900 1163.0000 1.0000
33.2000 1185.0000 1.0000
33.2100 1137.0000 1.0000
33.2200 1102.0000 1.0000
33.2300 1111.0000 1.0000
33.2400 1072.0000 1.0000
33.2500 1046.0000 1.0000
33.2600 994.0000 1.0000
33.2700 1034.0000 1.0000
33.2800 985.0000 1.0000
33.2900 1007.0000 1.0000
33.3000 976.0000 1.0000
33.3100 963.0000 1.0000
33.3200 980.0000 1.0000
33.3300 964.0000 1.0000
33.3400 975.0000 1.0000
33.3500 967.0000 1.0000
33.3600 966.0000 1.0000
33.3700 960.0000 1.0000
33.3800 963.0000 1.0000
33.3900 1032.0000 1.0000
33.4000 1016.0000 1.0000
33.4100 1037.0000 1.0000
33.4200 1037.0000 1.0000
33.4300 1083.0000 1.0000
33.4400 1058.0000 1.0000
33.4500 1119.0000 1.0000
33.4600 1071.0000 1.0000
33.4700 1158.0000 1.0000
33.4800 1171.0000 1.0000
33.4900 1197.0000 1.0000
33.5000 1261.0000 1.0000
33.5100 1242.0000 1.0000
33.5200 1342.0000 1.0000
33.5300 1325.0000 1.0000
33.5400 1423.0000 1.0000
33.5500 1431.0000 1.0000
33.5600 1522.0000 1.0000
33.5700 1574.0000 1.0000
33.5800 1627.0000 1.0000
33.5900 1674.0000 1.0000
33.6000 1809.0000 1.0000
33.6100 1849.0000 1.0000
33.6200 1880.0000 1.0000
33.6300 1920.0000 1.0000
33.6400 2021.0000 1.0000
33.6500 2043.0000 1.0000
33.6600 2058.0000 1.0000
33.6700 2004.0000 1.0000
33.6800 1971.0000 1.0000
33.6900 1983.0000 1.0000
33.7000 1978.0000 1.0000
33.7100 1861.0000 1.0000
33.7200 1874.0000 1.0000
33.7300 1805.0000 1.0000
33.7400 1781.0000 1.0000
33.7500 1734.0000 1.0000
33.7600 1670.0000 1.0000
33.7700 1565.0000 1.0000
33.7800 1459.0000 1.0000
33.7900 1399.0000 1.0000
33.8000 1345.0000 1.0000
33.8100 1387.0000 1.0000
33.8200 1355.0000 1.0000
33.8300 1206.0000 1.0000
33.8400 1166.0000 1.0000
33.8500 1152.0000 1.0000
33.8600 1142.0000 1.0000
33.8700 1100.0000 1.0000
33.8800 1105.0000 1.0000
33.8900 1133.0000 1.0000
33.9000 1045.0000 1.0000
33.9100 994.0000 1.0000
33.9200 1016.0000 1.0000
33.9300 1016.0000 1.0000
33.9400 994.0000 1.0000
33.9500 1047.0000 1.0000
33.9600 957.0000 1.0000
33.9700 950.0000 1.0000
33.9800 889.0000 1.0000
33.9900 897.0000 1.0000
34.0000 878.0000 1.0000
34.0100 875.0000 1.0000
34.0200 890.0000 1.0000
34.0300 873.0000 1.0000
34.0400 877.0000 1.0000
34.0500 923.0000 1.0000
34.0600 880.0000 1.0000
34.0700 856.0000 1.0000
34.0800 841.0000 1.0000
34.0900 801.0000 1.0000
34.1000 808.0000 1.0000
34.1100 839.0000 1.0000
34.1200 804.0000 1.0000
34.1300 831.0000 1.0000
34.1400 798.0000 1.0000
34.1500 856.0000 1.0000
34.1600 844.0000 1.0000
34.1700 813.0000 1.0000
34.1800 815.0000 1.0000
34.1900 809.0000 1.0000
34.2000 855.0000 1.0000
34.2100 756.0000 1.0000
34.2200 789.0000 1.0000
34.2300 811.0000 1.0000
34.2400 827.0000 1.0000
34.2500 793.0000 1.0000
34.2600 783.0000 1.0000
34.2700 778.0000 1.0000
34.2800 739.0000 1.0000
34.2900 733.0000 1.0000
34.3000 764.0000 1.0000
34.3100 808.0000 1.0000
34.3200 803.0000 1.0000
34.3300 787.0000 1.0000
34.3400 831.0000 1.0000
34.3500 772.0000 1.0000
34.3600 735.0000 1.0000
34.3700 777.0000 1.0000
34.3800 770.0000 1.0000
34.3900 771.0000 1.0000
34.4000 748.0000 1.0000
34.4100 768.0000 1.0000
34.4200 753.0000 1.0000
34.4300 764.0000 1.0000
34.4400 748.0000 1.0000
34.4500 745.0000 1.0000
34.4600 805.0000 1.0000
34.4700 762.0000 1.0000
34.4800 791.0000 1.0000
34.4900 710.0000 1.0000
34.5000 780.0000 1.0000
34.5100 746.0000 1.0000
34.5200 750.0000 1.0000
34.5300 701.0000 1.0000
34.5400 761.0000 1.0000
34.5500 767.0000 1.0000
34.5600 759.0000 1.0000
34.5700 751.0000 1.0000
34.5800 731.0000 1.0000
34.5900 725.0000 1.0000
34.6000 750.0000 1.0000
34.6100 693.0000 1.0000
34.6200 732.0000 1.0000
34.6300 716.0000 1.0000
34.6400 770.0000 1.0000
34.6500 775.0000 1.0000
34.6600 769.0000 1.0000
34.6700 714.0000 1.0000
34.6800 763.0000 1.0000
34.6900 776.0000 1.0000
34.7000 725.0000 1.0000
34.7100 749.0000 1.0000
34.7200 722.0000 1.0000
34.7300 736.0000 1.0000
34.7400 702.0000 1.0000
34.7500 766.0000 1.0000
34.7600 744.0000 1.0000
34.7700 771.0000 1.0000
34.7800 748.0000 1.0000
34.7900 744.0000 1.0000
34.8000 764.0000 1.0000
34.8100 721.0000 1.0000
34.8200 704.0000 1.0000
34.8300 707.0000 1.0000
34.8400 761.0000 1.0000
34.8500 704.0000 1.0000
34.8600 736.0000 1.0000
34.8700 732.0000 1.0000
34.8800 737.0000 1.0000
34.8900 733.0000 1.0000
34.9000 715.0000 1.0000
34.9100 707.0000 1.0000
34.9200 732.0000 1.0000
34.9300 710.0000 1.0000
34.9400 755.0000 1.0000
34.9500 770.0000 1.0000
34.9600 721.0000 1.0000
34.9700 710.0000 1.0000
34.9800 704.0000 1.0000
34.9900 758.0000 1.0000
35.0000 760.0000 1.0000
35.0100 725.0000 1.0000
35.0200 716.0000 1.0000
35.0300 725.0000 1.0000
35.0400 718.0000 1.0000
35.0500 654.0000 1.0000
35.0600 725.0000 1.0000
35.0700 697.0000 1.0000
35.0800 700.0000 1.0000
35.0900 747.0000 1.0000
35.1000 713.0000 1.0000
35.1100 708.0000 1.0000
35.1200 773.0000 1.0000
35.1300 718.0000 1.0000
35.1400 707.0000 1.0000
35.1500 693.0000 1.0000
35.1600 689.0000 1.0000
35.1700 698.0000 1.0000
35.1800 693.0000 1.0000
35.1900 718.0000 1.0000
35.2000 700.0000 1.0000
35.2100 733.0000 1.0000
35.2200 687.0000 1.0000
35.2300 710.0000 1.0000
35.2400 742.0000 1.0000
35.2500 740.0000 1.0000
35.2600 742.0000 1.0000
35.2700 749.0000 1.0000
35.2800 742.0000 1.0000
35.2900 745.0000 1.0000
35.3000 784.0000 1.0000
35.3100 707.0000 1.0000
35.3200 752.0000 1.0000
35.3300 791.0000 1.0000
35.3400 777.0000 1.0000
35.3500 787.0000 1.0000
35.3600 765.0000 1.0000
35.3700 779.0000 1.0000
35.3800 808.0000 1.0000
35.3900 779.0000 1.0000
35.4000 825.0000 1.0000
35.4100 848.0000 1.0000
35.4200 865.0000 1.0000
35.4300 853.0000 1.0000
35.4400 871.0000 1.0000
35.4500 905.0000 1.0000
35.4600 866.0000 1.0000
35.4700 929.0000 1.0000
35.4800 991.0000 1.0000
35.4900 1027.0000 1.0000
35.5000 1027.0000 1.0000
35.5100 1123.0000 1.0000
35.5200 1175.0000 1.0000
35.5300 1141.0000 1.0000
35.5400 1221.0000 1.0000
35.5500 1310.0000 1.0000
35.5600 1305.0000 1.0000
35.5700 1346.0000 1.0000
35.5800 1302.0000 1.0000
35.5900 1371.0000 1.0000
35.6000 1310.0000 1.0000
35.6100 1312.0000 1.0000
35.6200 1251.0000 1.0000
35.6300 1252.0000 1.0000
35.6400 1213.0000 1.0000
35.6500 1186.0000 1.0000
35.6600 1146.0000 1.0000
35.6700 1114.0000 1.0000
35.6800 1075.0000 1.0000
35.6900 1083.0000 1.0000
35.7000 1016.0000 1.0000
35.7100 982.0000 1.0000
35.7200 961.0000 1.0000
35.7300 893.0000 1.0000
35.7400 859.0000 1.0000
35.7500 885.0000 1.0000
35.7600 801.0000 1.0000
35.7700 811.0000 1.0000
35.7800 781.0000 1.0000
35.7900 748.0000 1.0000
35.8000 712.0000 1.0000
35.8100 775.0000 1.0000
35.8200 724.0000 1.0000
35.8300 700.0000 1.0000
35.8400 721.0000 1.0000
35.8500 715.0000 1.0000
35.8600 746.0000 1.0000
35.8700 678.0000 1.0000
35.8800 690.0000 1.0000
35.8900 666.0000 1.0000
35.9000 683.0000 1.0000
35.9100 684.0000 1.0000
35.9200 676.0000 1.0000
35.9300 689.0000 1.0000
35.9400 704.0000 1.0000
35.9500 669.0000 1.0000
35.9600 685.0000 1.0000
35.9700 678.0000 1.0000
35.9800 685.0000 1.0000
35.9900 642.0000 1.0000
36.0000 664.0000 1.0000
36.0100 654.0000 1.0000
36.0200 679.0000 1.0000
36.0300 683.0000 1.0000
36.0400 682.0000 1.0000
36.0500 699.0000 1.0000
36.0600 695.0000 1.0000
36.0700 659.0000 1.0000
36.0800 671.0000 1.0000
36.0900 688.0000 1.0000
36.1000 682.0000 1.0000
36.1100 629.0000 1.0000
36.1200 648.0000 1.0000
36.1300 665.0000 1.0000
36.1400 668.0000 1.0000
36.1500 679.0000 1.0000
36.1600 669.0000 1.0000
36.1700 697.0000 1.0000
36.1800 660.0000 1.0000
36.1900 689.0000 1.0000
36.2000 672.0000 1.0000
36.2100 643.0000 1.0000
36.2200 663.0000 1.0000
36.2300 622.0000 1.0000
36.2400 622.0000 1.0000
36.2500 684.0000 1.0000
36.2600 687.0000 1.0000
36.2700 687.0000 1.0000
36.2800 638.0000 1.0000
36.2900 662.0000 1.0000
36.3000 715.0000 1.0000
36.3100 637.0000 1.0000
36.3200 669.0000 1.0000
36.3300 709.0000 1.0000
36.3400 678.0000 1.0000
36.3500 707.0000 1.0000
36.3600 698.0000 1.0000
36.3700 710.0000 1.0000
36.3800 646.0000 1.0000
36.3900 657.0000 1.0000
36.4000 672.0000 1.0000
36.4100 693.0000 1.0000
36.4200 708.0000 1.0000
36.4300 626.0000 1.0000
36.4400 615.0000 1.0000
36.4500 642.0000 1.0000
36.4600 632.0000 1.0000
36.4700 648.0000 1.0000
36.4800 676.0000 1.0000
36.4900 628.0000 1.0000
36.5000 608.0000 1.0000
36.5100 684.0000 1.0000
36.5200 670.0000 1.0000
36.5300 672.0000 1.0000
36.5400 684.0000 1.0000
36.5500 679.0000 1.0000
36.5600 672.0000 1.0000
36.5700 628.0000 1.0000
36.5800 666.0000 1.0000
36.5900 694.0000 1.0000
36.6000 718.0000 1.0000
36.6100 682.0000 1.0000
36.6200 643.0000 1.0000
36.6300 645.0000 1.0000
36.6400 667.0000 1.0000
36.6500 647.0000 1.0000
36.6600 679.0000 1.0000
36.6700 668.0000 1.0000
36.6800 649.0000 1.0000
36.6900 657.0000 1.0000
36.7000 606.0000 1.0000
36.7100 656.0000 1.0000
36.7200 677.0000 1.0000
36.7300 691.0000 1.0000
36.7400 648.0000 1.0000
36.7500 683.0000 1.0000
36.7600 672.0000 1.0000
36.7700 665.0000 1.0000
36.7800 685.0000 1.0000
36.7900 666.0000 1.0000
36.8000 639.0000 1.0000
36.8100 627.0000 1.0000
36.8200 651.0000 1.0000
36.8300 658.0000 1.0000
36.8400 649.0000 1.0000
36.8500 675.0000 1.0000
36.8600 652.0000 1.0000
36.8700 648.0000 1.0000
36.8800 696.0000 1.0000
36.8900 648.0000 1.0000
36.9000 668.0000 1.0000
36.9100 692.0000 1.0000
36.9200 683.0000 1.0000
36.9300 647.0000 1.0000
36.9400 645.0000 1.0000
36.9500 696.0000 1.0000
36.9600 658.0000 1.0000
36.9700 685.0000 1.0000
36.9800 653.0000 1.0000
36.9900 703.0000 1.0000
37.0000 650.0000 1.0000
37.0100 663.0000 1.0000
37.0200 634.0000 1.0000
37.0300 670.0000 1.0000
37.0400 641.0000 1.0000
37.0500 649.0000 1.0000
37.0600 693.0000 1.0000
37.0700 676.0000 1.0000
37.0800 693.0000 1.0000
37.0900 696.0000 1.0000
37.1000 703.0000 1.0000
37.1100 664.0000 1.0000
37.1200 712.0000 1.0000
37.1300 701.0000 1.0000
37.1400 667.0000 1.0000
37.1500 674.0000 1.0000
37.1600 706.0000 1.0000
37.1700 707.0000 1.0000
37.1800 713.0000 1.0000
37.1900 704.0000 1.0000
37.2000 720.0000 1.0000
37.2100 699.0000 1.0000
37.2200 713.0000 1.0000
37.2300 742.0000 1.0000
37.2400 724.0000 1.0000
37.2500 693.0000 1.0000
37.2600 698.0000 1.0000
37.2700 723.0000 1.0000
37.2800 736.0000 1.0000
37.2900 735.0000 1.0000
37.3000 753.0000 1.0000
37.3100 733.0000 1.0000
37.3200 734.0000 1.0000
37.3300 792.0000 1.0000
37.3400 812.0000 1.0000
37.3500 766.0000 1.0000
37.3600 802.0000 1.0000
37.3700 878.0000 1.0000
37.3800 892.0000 1.0000
37.3900 931.0000 1.0000
37.4000 926.0000 1.0000
37.4100 935.0000 1.0000
37.4200 983.0000 1.0000
37.4300 956.0000 1.0000
37.4400 1003.0000 1.0000
37.4500 1033.0000 1.0000
37.4600 1051.0000 1.0000
37.4700 1077.0000 1.0000
37.4800 1125.0000 1.0000
37.4900 1216.0000 1.0000
37.5000 1260.0000 1.0000
37.5100 1290.0000 1.0000
37.5200 1366.0000 1.0000
37.5300 1438.0000 1.0000
37.5400 1558.0000 1.0000
37.5500 1632.0000 1.0000
37.5600 1707.0000 1.0000
37.5700 1819.0000 1.0000
37.5800 1921.0000 1.0000
37.5900 2024.0000 1.0000
37.6000 2153.0000 1.0000
37.6100 2297.0000 1.0000
37.6200 2477.0000 1.0000
37.6300 2550.0000 1.0000
37.6400 2780.0000 1.0000
37.6500 2875.0000 1.0000
37.6600 2977.0000 1.0000
37.6700 3091.0000 1.0000
37.6800 3163.0000 1.0000
37.6900 3282.0000 1.0000
37.7000 3213.0000 1.0000
37.7100 3338.0000 1.0000
37.7200 3421.0000 1.0000
37.7300 3399.0000 1.0000
37.7400 3331.0000 1.0000
37.7500 3152.0000 1.0000
37.7600 3148.0000 1.0000
37.7700 3093.0000 1.0000
37.7800 2852.0000 1.0000
37.7900 2830.0000 1.0000
37.8000 2796.0000 1.0000
37.8100 2676.0000 1.0000
37.8200 2487.0000 1.0000
37.8300 2394.0000 1.0000
37.8400 2200.0000 1.0000
37.8500 2100.0000 1.0000
37.8600 1931.0000 1.0000
37.8700 1840.0000 1.0000
37.8800 1720.0000 1.0000
37.8900 1650.0000 1.0000
37.9000 1548.0000 1.0000
37.9100 1425.0000 1.0000
37.9200 1403.0000 1.0000
37.9300 1357.0000 1.0000
37.9400 1269.0000 1.0000
37.9500 1169.0000 1.0000
37.9600 1132.0000 1.0000
37.9700 1095.0000 1.0000
37.9800 969.0000 1.0000
37.9900 973.0000 1.0000
38.0000 948.0000 1.0000
38.0100 943.0000 1.0000
38.0200 896.0000 1.0000
38.0300 915.0000 1.0000
38.0400 863.0000 1.0000
38.0500 871.0000 1.0000
38.0600 814.0000 1.0000
38.0700 757.0000 1.0000
38.0800 759.0000 1.0000
38.0900 766.0000 1.0000
38.1000 742.0000 1.0000
38.1100 705.0000 1.0000
38.1200 726.0000 1.0000
38.1300 737.0000 1.0000
38.1400 705.0000 1.0000
38.1500 654.0000 1.0000
38.1600 694.0000 1.0000
38.1700 686.0000 1.0000
38.1800 706.0000 1.0000
38.1900 671.0000 1.0000
38.2000 694.0000 1.0000
38.2100 664.0000 1.0000
38.2200 607.0000 1.0000
38.2300 713.0000 1.0000
38.2400 655.0000 1.0000
38.2500 626.0000 1.0000
38.2600 658.0000 1.0000
38.2700 690.0000 1.0000
38.2800 687.0000 1.0000
38.2900 645.0000 1.0000
38.3000 655.0000 1.0000
38.3100 602.0000 1.0000
38.3200 614.0000 1.0000
38.3300 608.0000 1.0000
38.3400 635.0000 1.0000
38.3500 646.0000 1.0000
38.3600 634.0000 1.0000
38.3700 621.0000 1.0000
38.3800 616.0000 1.0000
38.3900 606.0000 1.0000
38.4000 621.0000 1.0000
38.4100 638.0000 1.0000
38.4200 639.0000 1.0000
38.4300 634.0000 1.0000
38.4400 629.0000 1.0000
38.4500 611.0000 1.0000
38.4600 645.0000 1.0000
38.4700 616.0000 1.0000
38.4800 593.0000 1.0000
38.4900 629.0000 1.0000
38.5000 649.0000 1.0000
38.5100 610.0000 1.0000
38.5200 593.0000 1.0000
38.5300 639.0000 1.0000
38.5400 608.0000 1.0000
38.5500 667.0000 1.0000
38.5600 594.0000 1.0000
38.5700 602.0000 1.0000
38.5800 620.0000 1.0000
38.5900 631.0000 1.0000
38.6000 613.0000 1.0000
38.6100 602.0000 1.0000
38.6200 653.0000 1.0000
38.6300 608.0000 1.0000
38.6400 615.0000 1.0000
38.6500 652.0000 1.0000
38.6600 632.0000 1.0000
38.6700 639.0000 1.0000
38.6800 637.0000 1.0000
38.6900 627.0000 1.0000
38.7000 639.0000 1.0000
38.7100 679.0000 1.0000
38.7200 647.0000 1.0000
38.7300 647.0000 1.0000
38.7400 615.0000 1.0000
38.7500 651.0000 1.0000
38.7600 643.0000 1.0000
38.7700 647.0000 1.0000
38.7800 657.0000 1.0000
38.7900 644.0000 1.0000
38.8000 644.0000 1.0000
38.8100 678.0000 1.0000
38.8200 627.0000 1.0000
38.8300 624.0000 1.0000
38.8400 590.0000 1.0000
38.8500 650.0000 1.0000
38.8600 621.0000 1.0000
38.8700 638.0000 1.0000
38.8800 651.0000 1.0000
38.8900 604.0000 1.0000
38.9000 605.0000 1.0000
38.9100 605.0000 1.0000
38.9200 600.0000 1.0000
38.9300 624.0000 1.0000
38.9400 610.0000 1.0000
38.9500 637.0000 1.0000
38.9600 628.0000 1.0000
38.9700 627.0000 1.0000
38.9800 591.0000 1.0000
38.9900 595.0000 1.0000
39.0000 599.0000 1.0000
39.0100 591.0000 1.0000
39.0200 587.0000 1.0000
39.0300 618.0000 1.0000
39.0400 625.0000 1.0000
39.0500 601.0000 1.0000
39.0600 658.0000 1.0000
39.0700 631.0000 1.0000
39.0800 587.0000 1.0000
39.0900 601.0000 1.0000
39.1000 594.0000 1.0000
39.1100 617.0000 1.0000
39.1200 614.0000 1.0000
39.1300 581.0000 1.0000
39.1400 588.0000 1.0000
39.1500 605.0000 1.0000
39.1600 560.0000 1.0000
39.1700 620.0000 1.0000
39.1800 627.0000 1.0000
39.1900 554.0000 1.0000
39.2000 574.0000 1.0000
39.2100 620.0000 1.0000
39.2200 607.0000 1.0000
39.2300 586.0000 1.0000
39.2400 622.0000 1.0000
39.2500 586.0000 1.0000
39.2600 579.0000 1.0000
39.2700 580.0000 1.0000
39.2800 590.0000 1.0000
39.2900 657.0000 1.0000
39.3000 633.0000 1.0000
39.3100 573.0000 1.0000
39.3200 587.0000 1.0000
39.3300 558.0000 1.0000
39.3400 575.0000 1.0000
39.3500 595.0000 1.0000
39.3600 594.0000 1.0000
39.3700 581.0000 1.0000
39.3800 571.0000 1.0000
39.3900 582.0000 1.0000
39.4000 594.0000 1.0000
39.4100 606.0000 1.0000
39.4200 567.0000 1.0000
39.4300 576.0000 1.0000
39.4400 603.0000 1.0000
39.4500 614.0000 1.0000
39.4600 632.0000 1.0000
39.4700 554.0000 1.0000
39.4800 621.0000 1.0000
39.4900 575.0000 1.0000
39.5000 585.0000 1.0000
39.5100 570.0000 1.0000
39.5200 597.0000 1.0000
39.5300 613.0000 1.0000
39.5400 581.0000 1.0000
39.5500 592.0000 1.0000
39.5600 578.0000 1.0000
39.5700 569.0000 1.0000
39.5800 604.0000 1.0000
39.5900 569.0000 1.0000
39.6000 576.0000 1.0000
39.6100 583.0000 1.0000
39.6200 585.0000 1.0000
39.6300 550.0000 1.0000
39.6400 572.0000 1.0000
39.6500 569.0000 1.0000
39.6600 569.0000 1.0000
39.6700 570.0000 1.0000
39.6800 563.0000 1.0000
39.6900 599.0000 1.0000
39.7000 560.0000 1.0000
39.7100 570.0000 1.0000
39.7200 559.0000 1.0000
39.7300 596.0000 1.0000
39.7400 575.0000 1.0000
39.7500 551.0000 1.0000
39.7600 541.0000 1.0000
39.7700 583.0000 1.0000
39.7800 550.0000 1.0000
39.7900 522.0000 1.0000
39.8000 552.0000 1.0000
39.8100 548.0000 1.0000
39.8200 553.0000 1.0000
39.8300 560.0000 1.0000
39.8400 546.0000 1.0000
39.8500 555.0000 1.0000
39.8600 577.0000 1.0000
39.8700 551.0000 1.0000
39.8800 556.0000 1.0000
39.8900 599.0000 1.0000
39.9000 550.0000 1.0000
39.9100 575.0000 1.0000
39.9200 530.0000 1.0000
39.9300 569.0000 1.0000
39.9400 563.0000 1.0000
39.9500 549.0000 1.0000
39.9600 579.0000 1.0000
39.9700 552.0000 1.0000
39.9800 554.0000 1.0000
39.9900 548.0000 1.0000
40.0000 586.0000 1.0000
40.0100 563.0000 1.0000
40.0200 548.0000 1.0000
40.0300 562.0000 1.0000
40.0400 549.0000 1.0000
40.0500 523.0000 1.0000
40.0600 568.0000 1.0000
40.0700 598.0000 1.0000
40.0800 608.0000 1.0000
40.0900 573.0000 1.0000
40.1000 555.0000 1.0000
40.1100 568.0000 1.0000
40.1200 556.0000 1.0000
40.1300 530.0000 1.0000
40.1400 570.0000 1.0000
40.1500 555.0000 1.0000
40.1600 544.0000 1.0000
40.1700 598.0000 1.0000
40.1800 535.0000 1.0000
40.1900 536.0000 1.0000
40.2000 522.0000 1.0000
40.2100 546.0000 1.0000
40.2200 591.0000 1.0000
40.2300 563.0000 1.0000
40.2400 556.0000 1.0000
40.2500 573.0000 1.0000
40.2600 568.0000 1.0000
40.2700 573.0000 1.0000
40.2800 531.0000 1.0000
40.2900 547.0000 1.0000
40.3000 575.0000 1.0000
40.3100 570.0000 1.0000
40.3200 587.0000 1.0000
40.3300 526.0000 1.0000
40.3400 556.0000 1.0000
40.3500 554.0000 1.0000
40.3600 565.0000 1.0000
40.3700 533.0000 1.0000
40.3800 538.0000 1.0000
40.3900 550.0000 1.0000
40.4000 561.0000 1.0000
40.4100 551.0000 1.0000
40.4200 562.0000 1.0000
40.4300 576.0000 1.0000
40.4400 563.0000 1.0000
40.4500 560.0000 1.0000
40.4600 564.0000 1.0000
40.4700 522.0000 1.0000
40.4800 557.0000 1.0000
40.4900 573.0000 1.0000
40.5000 569.0000 1.0000
40.5100 550.0000 1.0000
40.5200 558.0000 1.0000
40.5300 571.0000 1.0000
40.5400 599.0000 1.0000
40.5500 567.0000 1.0000
40.5600 562.0000 1.0000
40.5700 549.0000 1.0000
40.5800 573.0000 1.0000
40.5900 528.0000 1.0000
40.6000 576.0000 1.0000
40.6100 560.0000 1.0000
40.6200 565.0000 1.0000
40.6300 582.0000 1.0000
40.6400 579.0000 1.0000
40.6500 593.0000 1.0000
40.6600 580.0000 1.0000
40.6700 581.0000 1.0000
40.6800 561.0000 1.0000
40.6900 610.0000 1.0000
40.7000 588.0000 1.0000
40.7100 635.0000 1.0000
40.7200 603.0000 1.0000
40.7300 649.0000 1.0000
40.7400 640.0000 1.0000
40.7500 615.0000 1.0000
40.7600 613.0000 1.0000
40.7700 653.0000 1.0000
40.7800 646.0000 1.0000
40.7900 632.0000 1.0000
40.8000 675.0000 1.0000
40.8100 682.0000 1.0000
40.8200 654.0000 1.0000
40.8300 649.0000 1.0000
40.8400 656.0000 1.0000
40.8500 690.0000 1.0000
40.8600 665.0000 1.0000
40.8700 636.0000 1.0000
40.8800 618.0000 1.0000
40.8900 652.0000 1.0000
40.9000 594.0000 1.0000
40.9100 605.0000 1.0000
40.9200 637.0000 1.0000
40.9300 605.0000 1.0000
40.9400 605.0000 1.0000
40.9500 661.0000 1.0000
40.9600 623.0000 1.0000
40.9700 621.0000 1.0000
40.9800 589.0000 1.0000
40.9900 610.0000 1.0000
41.0000 563.0000 1.0000
41.0100 563.0000 1.0000
41.0200 576.0000 1.0000
41.0300 545.0000 1.0000
41.0400 548.0000 1.0000
41.0500 552.0000 1.0000
41.0600 575.0000 1.0000
41.0700 562.0000 1.0000
41.0800 577.0000 1.0000
41.0900 600.0000 1.0000
41.1000 532.0000 1.0000
41.1100 568.0000 1.0000
41.1200 565.0000 1.0000
41.1300 541.0000 1.0000
41.1400 571.0000 1.0000
41.1500 512.0000 1.0000
41.1600 522.0000 1.0000
41.1700 548.0000 1.0000
41.1800 554.0000 1.0000
41.1900 550.0000 1.0000
41.2000 546.0000 1.0000
41.2100 549.0000 1.0000
41.2200 558.0000 1.0000
41.2300 570.0000 1.0000
41.2400 560.0000 1.0000
41.2500 563.0000 1.0000
41.2600 530.0000 1.0000
41.2700 578.0000 1.0000
41.2800 538.0000 1.0000
41.2900 569.0000 1.0000
41.3000 592.0000 1.0000
41.3100 554.0000 1.0000
41.3200 560.0000 1.0000
41.3300 527.0000 1.0000
41.3400 552.0000 1.0000
41.3500 552.0000 1.0000
41.3600 533.0000 1.0000
41.3700 551.0000 1.0000
41.3800 556.0000 1.0000
41.3900 564.0000 1.0000
41.4000 565.0000 1.0000
41.4100 548.0000 1.0000
41.4200 524.0000 1.0000
41.4300 587.0000 1.0000
41.4400 559.0000 1.0000
41.4500 557.0000 1.0000
41.4600 538.0000 1.0000
41.4700 550.0000 1.0000
41.4800 588.0000 1.0000
41.4900 589.0000 1.0000
41.5000 566.0000 1.0000
41.5100 544.0000 1.0000
41.5200 530.0000 1.0000
41.5300 554.0000 1.0000
41.5400 514.0000 1.0000
41.5500 585.0000 1.0000
41.5600 560.0000 1.0000
41.5700 563.0000 1.0000
41.5800 521.0000 1.0000
41.5900 528.0000 1.0000
41.6000 520.0000 1.0000
41.6100 534.0000 1.0000
41.6200 537.0000 1.0000
41.6300 541.0000 1.0000
41.6400 527.0000 1.0000
41.6500 553.0000 1.0000
41.6600 549.0000 1.0000
41.6700 533.0000 1.0000
41.6800 544.0000 1.0000
41.6900 522.0000 1.0000
41.7000 515.0000 1.0000
41.7100 565.0000 1.0000
41.7200 548.0000 1.0000
41.7300 544.0000 1.0000
41.7400 535.0000 1.0000
41.7500 485.0000 1.0000
41.7600 526.0000 1.0000
41.7700 548.0000 1.0000
41.7800 552.0000 1.0000
41.7900 556.0000 1.0000
41.8000 566.0000 1.0000
41.8100 498.0000 1.0000
41.8200 562.0000 1.0000
41.8300 572.0000 1.0000
41.8400 528.0000 1.0000
41.8500 527.0000 1.0000
41.8600 562.0000 1.0000
41.8700 541.0000 1.0000
41.8800 537.0000 1.0000
41.8900 566.0000 1.0000
41.9000 500.0000 1.0000
41.9100 547.0000 1.0000
41.9200 539.0000 1.0000
41.9300 544.0000 1.0000
41.9400 565.0000 1.0000
41.9500 544.0000 1.0000
41.9600 575.0000 1.0000
41.9700 530.0000 1.0000
41.9800 562.0000 1.0000
41.9900 541.0000 1.0000
42.0000 532.0000 1.0000
42.0100 526.0000 1.0000
42.0200 583.0000 1.0000
42.0300 564.0000 1.0000
42.0400 566.0000 1.0000
42.0500 577.0000 1.0000
42.0600 516.0000 1.0000
42.0700 495.0000 1.0000
42.0800 529.0000 1.0000
42.0900 514.0000 1.0000
42.1000 527.0000 1.0000
42.1100 516.0000 1.0000
42.1200 562.0000 1.0000
42.1300 523.0000 1.0000
42.1400 547.0000 1.0000
42.1500 574.0000 1.0000
42.1600 546.0000 1.0000
42.1700 547.0000 1.0000
42.1800 562.0000 1.0000
42.1900 574.0000 1.0000
42.2000 570.0000 1.0000
42.2100 580.0000 1.0000
42.2200 546.0000 1.0000
42.2300 580.0000 1.0000
42.2400 573.0000 1.0000
42.2500 572.0000 1.0000
42.2600 544.0000 1.0000
42.2700 596.0000 1.0000
42.2800 561.0000 1.0000
42.2900 597.0000 1.0000
42.3000 572.0000 1.0000
42.3100 538.0000 1.0000
42.3200 591.0000 1.0000
42.3300 601.0000 1.0000
42.3400 598.0000 1.0000
42.3500 589.0000 1.0000
42.3600 598.0000 1.0000
42.3700 560.0000 1.0000
42.3800 552.0000 1.0000
42.3900 570.0000 1.0000
42.4000 606.0000 1.0000
42.4100 614.0000 1.0000
42.4200 568.0000 1.0000
42.4300 576.0000 1.0000
42.4400 599.0000 1.0000
42.4500 543.0000 1.0000
42.4600 571.0000 1.0000
42.4700 585.0000 1.0000
42.4800 585.0000 1.0000
42.4900 583.0000 1.0000
42.5000 614.0000 1.0000
42.5100 566.0000 1.0000
42.5200 577.0000 1.0000
42.5300 580.0000 1.0000
42.5400 557.0000 1.0000
42.5500 592.0000 1.0000
42.5600 573.0000 1.0000
42.5700 536.0000 1.0000
42.5800 550.0000 1.0000
42.5900 603.0000 1.0000
42.6000 548.0000 1.0000
42.6100 565.0000 1.0000
42.6200 584.0000 1.0000
42.6300 540.0000 1.0000
42.6400 527.0000 1.0000
42.6500 557.0000 1.0000
42.6600 549.0000 1.0000
42.6700 564.0000 1.0000
42.6800 545.0000 1.0000
42.6900 569.0000 1.0000
42.7000 526.0000 1.0000
42.7100 494.0000 1.0000
42.7200 521.0000 1.0000
42.7300 565.0000 1.0000
42.7400 556.0000 1.0000
42.7500 524.0000 1.0000
42.7600 527.0000 1.0000
42.7700 551.0000 1.0000
42.7800 540.0000 1.0000
42.7900 521.0000 1.0000
42.8000 519.0000 1.0000
42.8100 475.0000 1.0000
42.8200 537.0000 1.0000
42.8300 535.0000 1.0000
42.8400 519.0000 1.0000
42.8500 579.0000 1.0000
42.8600 555.0000 1.0000
42.8700 550.0000 1.0000
42.8800 536.0000 1.0000
42.8900 520.0000 1.0000
42.9000 501.0000 1.0000
42.9100 521.0000 1.0000
42.9200 533.0000 1.0000
42.9300 533.0000 1.0000
42.9400 528.0000 1.0000
42.9500 524.0000 1.0000
42.9600 512.0000 1.0000
42.9700 500.0000 1.0000
42.9800 509.0000 1.0000
42.9900 556.0000 1.0000
43.0000 530.0000 1.0000
43.0100 503.0000 1.0000
43.0200 537.0000 1.0000
43.0300 523.0000 1.0000
43.0400 526.0000 1.0000
43.0500 501.0000 1.0000
43.0600 536.0000 1.0000
43.0700 553.0000 1.0000
43.0800 549.0000 1.0000
43.0900 563.0000 1.0000
43.1000 543.0000 1.0000
43.1100 494.0000 1.0000
43.1200 504.0000 1.0000
43.1300 548.0000 1.0000
43.1400 515.0000 1.0000
43.1500 516.0000 1.0000
43.1600 514.0000 1.0000
43.1700 509.0000 1.0000
43.1800 520.0000 1.0000
43.1900 512.0000 1.0000
43.2000 531.0000 1.0000
43.2100 514.0000 1.0000
43.2200 511.0000 1.0000
43.2300 517.0000 1.0000
43.2400 494.0000 1.0000
43.2500 537.0000 1.0000
43.2600 528.0000 1.0000
43.2700 514.0000 1.0000
43.2800 521.0000 1.0000
43.2900 538.0000 1.0000
43.3000 522.0000 1.0000
43.3100 485.0000 1.0000
43.3200 517.0000 1.0000
43.3300 558.0000 1.0000
43.3400 554.0000 1.0000
43.3500 537.0000 1.0000
43.3600 534.0000 1.0000
43.3700 542.0000 1.0000
43.3800 521.0000 1.0000
43.3900 566.0000 1.0000
43.4000 567.0000 1.0000
43.4100 544.0000 1.0000
43.4200 551.0000 1.0000
43.4300 548.0000 1.0000
43.4400 506.0000 1.0000
43.4500 532.0000 1.0000
43.4600 547.0000 1.0000
43.4700 586.0000 1.0000
43.4800 542.0000 1.0000
43.4900 518.0000 1.0000
43.5000 529.0000 1.0000
43.5100 556.0000 1.0000
43.5200 563.0000 1.0000
43.5300 546.0000 1.0000
43.5400 517.0000 1.0000
43.5500 529.0000 1.0000
43.5600 530.0000 1.0000
43.5700 530.0000 1.0000
43.5800 526.0000 1.0000
43.5900 556.0000 1.0000
43.6000 554.0000 1.0000
43.6100 528.0000 1.0000
43.6200 555.0000 1.0000
43.6300 544.0000 1.0000
43.6400 575.0000 1.0000
43.6500 541.0000 1.0000
43.6600 544.0000 1.0000
43.6700 515.0000 1.0000
43.6800 536.0000 1.0000
43.6900 493.0000 1.0000
43.7000 534.0000 1.0000
43.7100 524.0000 1.0000
43.7200 513.0000 1.0000
43.7300 533.0000 1.0000
43.7400 561.0000 1.0000
43.7500 513.0000 1.0000
43.7600 526.0000 1.0000
43.7700 495.0000 1.0000
43.7800 495.0000 1.0000
43.7900 512.0000 1.0000
43.8000 528.0000 1.0000
43.8100 517.0000 1.0000
43.8200 509.0000 1.0000
43.8300 486.0000 1.0000
43.8400 482.0000 1.0000
43.8500 488.0000 1.0000
43.8600 506.0000 1.0000
43.8700 515.0000 1.0000
43.8800 549.0000 1.0000
43.8900 536.0000 1.0000
43.9000 524.0000 1.0000
43.9100 523.0000 1.0000
43.9200 554.0000 1.0000
43.9300 499.0000 1.0000
43.9400 496.0000 1.0000
43.9500 544.0000 1.0000
43.9600 504.0000 1.0000
43.9700 518.0000 1.0000
43.9800 478.0000 1.0000
43.9900 503.0000 1.0000
44.0000 493.0000 1.0000
44.0100 487.0000 1.0000
44.0200 522.0000 1.0000
44.0300 526.0000 1.0000
44.0400 519.0000 1.0000
44.0500 522.0000 1.0000
44.0600 529.0000 1.0000
44.0700 540.0000 1.0000
44.0800 528.0000 1.0000
44.0900 516.0000 1.0000
44.1000 501.0000 1.0000
44.1100 514.0000 1.0000
44.1200 528.0000 1.0000
44.1300 539.0000 1.0000
44.1400 498.0000 1.0000
44.1500 534.0000 1.0000
44.1600 512.0000 1.0000
44.1700 506.0000 1.0000
44.1800 513.0000 1.0000
44.1900 558.0000 1.0000
44.2000 507.0000 1.0000
44.2100 528.0000 1.0000
44.2200 546.0000 1.0000
44.2300 537.0000 1.0000
44.2400 540.0000 1.0000
44.2500 526.0000 1.0000
44.2600 505.0000 1.0000
44.2700 530.0000 1.0000
44.2800 515.0000 1.0000
44.2900 496.0000 1.0000
44.3000 513.0000 1.0000
44.3100 532.0000 1.0000
44.3200 512.0000 1.0000
44.3300 489.0000 1.0000
44.3400 507.0000 1.0000
44.3500 532.0000 1.0000
44.3600 494.0000 1.0000
44.3700 536.0000 1.0000
44.3800 481.0000 1.0000
44.3900 522.0000 1.0000
44.4000 540.0000 1.0000
44.4100 513.0000 1.0000
44.4200 508.0000 1.0000
44.4300 462.0000 1.0000
44.4400 488.0000 1.0000
44.4500 533.0000 1.0000
44.4600 501.0000 1.0000
44.4700 498.0000 1.0000
44.4800 511.0000 1.0000
44.4900 484.0000 1.0000
44.5000 493.0000 1.0000
44.5100 547.0000 1.0000
44.5200 546.0000 1.0000
44.5300 487.0000 1.0000
44.5400 524.0000 1.0000
44.5500 510.0000 1.0000
44.5600 521.0000 1.0000
44.5700 504.0000 1.0000
44.5800 496.0000 1.0000
44.5900 492.0000 1.0000
44.6000 533.0000 1.0000
44.6100 481.0000 1.0000
44.6200 489.0000 1.0000
44.6300 541.0000 1.0000
44.6400 513.0000 1.0000
44.6500 505.0000 1.0000
44.6600 518.0000 1.0000
44.6700 512.0000 1.0000
44.6800 528.0000 1.0000
44.6900 527.0000 1.0000
44.7000 562.0000 1.0000
44.7100 533.0000 1.0000
44.7200 493.0000 1.0000
44.7300 499.0000 1.0000
44.7400 535.0000 1.0000
44.7500 527.0000 1.0000
44.7600 518.0000 1.0000
44.7700 529.0000 1.0000
44.7800 513.0000 1.0000
44.7900 519.0000 1.0000
44.8000 496.0000 1.0000
44.8100 500.0000 1.0000
44.8200 511.0000 1.0000
44.8300 497.0000 1.0000
44.8400 514.0000 1.0000
44.8500 530.0000 1.0000
44.8600 547.0000 1.0000
44.8700 506.0000 1.0000
44.8800 529.0000 1.0000
44.8900 479.0000 1.0000
44.9000 510.0000 1.0000
44.9100 505.0000 1.0000
44.9200 508.0000 1.0000
44.9300 510.0000 1.0000
44.9400 526.0000 1.0000
44.9500 458.0000 1.0000
44.9600 484.0000 1.0000
44.9700 471.0000 1.0000
44.9800 500.0000 1.0000
44.9900 495.0000 1.0000
45.0000 499.0000 1.0000
45.0100 477.0000 1.0000
45.0200 487.0000 1.0000
45.0300 474.0000 1.0000
45.0400 482.0000 1.0000
45.0500 501.0000 1.0000
45.0600 443.0000 1.0000
45.0700 499.0000 1.0000
45.0800 520.0000 1.0000
45.0900 483.0000 1.0000
45.1000 480.0000 1.0000
45.1100 500.0000 1.0000
45.1200 499.0000 1.0000
45.1300 496.0000 1.0000
45.1400 485.0000 1.0000
45.1500 490.0000 1.0000
45.1600 508.0000 1.0000
45.1700 491.0000 1.0000
45.1800 470.0000 1.0000
45.1900 499.0000 1.0000
45.2000 470.0000 1.0000
45.2100 479.0000 1.0000
45.2200 509.0000 1.0000
45.2300 529.0000 1.0000
45.2400 495.0000 1.0000
45.2500 528.0000 1.0000
45.2600 514.0000 1.0000
45.2700 486.0000 1.0000
45.2800 496.0000 1.0000
45.2900 474.0000 1.0000
45.3000 512.0000 1.0000
45.3100 494.0000 1.0000
45.3200 509.0000 1.0000
45.3300 512.0000 1.0000
45.3400 524.0000 1.0000
45.3500 491.0000 1.0000
45.3600 511.0000 1.0000
45.3700 508.0000 1.0000
45.3800 498.0000 1.0000
45.3900 519.0000 1.0000
45.4000 500.0000 1.0000
45.4100 499.0000 1.0000
45.4200 515.0000 1.0000
45.4300 474.0000 1.0000
45.4400 481.0000 1.0000
45.4500 507.0000 1.0000
45.4600 517.0000 1.0000
45.4700 503.0000 1.0000
45.4800 500.0000 1.0000
45.4900 493.0000 1.0000
45.5000 478.0000 1.0000
45.5100 481.0000 1.0000
45.5200 498.0000 1.0000
45.5300 494.0000 1.0000
45.5400 519.0000 1.0000
45.5500 505.0000 1.0000
45.5600 489.0000 1.0000
45.5700 523.0000 1.0000
45.5800 501.0000 1.0000
45.5900 468.0000 1.0000
45.6000 461.0000 1.0000
45.6100 484.0000 1.0000
45.6200 508.0000 1.0000
45.6300 472.0000 1.0000
45.6400 463.0000 1.0000
45.6500 505.0000 1.0000
45.6600 524.0000 1.0000
45.6700 517.0000 1.0000
45.6800 490.0000 1.0000
45.6900 540.0000 1.0000
45.7000 505.0000 1.0000
45.7100 484.0000 1.0000
45.7200 524.0000 1.0000
45.7300 508.0000 1.0000
45.7400 482.0000 1.0000
45.7500 507.0000 1.0000
45.7600 472.0000 1.0000
45.7700 490.0000 1.0000
45.7800 486.0000 1.0000
45.7900 485.0000 1.0000
45.8000 490.0000 1.0000
45.8100 492.0000 1.0000
45.8200 480.0000 1.0000
45.8300 507.0000 1.0000
45.8400 496.0000 1.0000
45.8500 493.0000 1.0000
45.8600 508.0000 1.0000
45.8700 521.0000 1.0000
45.8800 529.0000 1.0000
45.8900 487.0000 1.0000
45.9000 496.0000 1.0000
45.9100 498.0000 1.0000
45.9200 496.0000 1.0000
45.9300 482.0000 1.0000
45.9400 495.0000 1.0000
45.9500 504.0000 1.0000
45.9600 421.0000 1.0000
45.9700 470.0000 1.0000
45.9800 504.0000 1.0000
45.9900 484.0000 1.0000
46.0000 481.0000 1.0000
46.0100 479.0000 1.0000
46.0200 506.0000 1.0000
46.0300 507.0000 1.0000
46.0400 501.0000 1.0000
46.0500 442.0000 1.0000
46.0600 456.0000 1.0000
46.0700 531.0000 1.0000
46.0800 532.0000 1.0000
46.0900 524.0000 1.0000
46.1000 516.0000 1.0000
46.1100 480.0000 1.0000
46.1200 486.0000 1.0000
46.1300 500.0000 1.0000
46.1400 512.0000 1.0000
46.1500 526.0000 1.0000
46.1600 485.0000 1.0000
46.1700 483.0000 1.0000
46.1800 503.0000 1.0000
46.1900 491.0000 1.0000
46.2000 487.0000 1.0000
46.2100 527.0000 1.0000
46.2200 495.0000 1.0000
46.2300 495.0000 1.0000
46.2400 506.0000 1.0000
46.2500 497.0000 1.0000
46.2600 514.0000 1.0000
46.2700 513.0000 1.0000
46.2800 507.0000 1.0000
46.2900 467.0000 1.0000
46.3000 495.0000 1.0000
46.3100 474.0000 1.0000
46.3200 484.0000 1.0000
46.3300 469.0000 1.0000
46.3400 464.0000 1.0000
46.3500 490.0000 1.0000
46.3600 523.0000 1.0000
46.3700 508.0000 1.0000
46.3800 508.0000 1.0000
46.3900 523.0000 1.0000
46.4000 482.0000 1.0000
46.4100 490.0000 1.0000
46.4200 481.0000 1.0000
46.4300 505.0000 1.0000
46.4400 455.0000 1.0000
46.4500 496.0000 1.0000
46.4600 506.0000 1.0000
46.4700 499.0000 1.0000
46.4800 481.0000 1.0000
46.4900 490.0000 1.0000
46.5000 485.0000 1.0000
46.5100 483.0000 1.0000
46.5200 471.0000 1.0000
46.5300 468.0000 1.0000
46.5400 474.0000 1.0000
46.5500 463.0000 1.0000
46.5600 475.0000 1.0000
46.5700 452.0000 1.0000
46.5800 491.0000 1.0000
46.5900 520.0000 1.0000
46.6000 507.0000 1.0000
46.6100 459.0000 1.0000
46.6200 471.0000 1.0000
46.6300 473.0000 1.0000
46.6400 477.0000 1.0000
46.6500 502.0000 1.0000
46.6600 488.0000 1.0000
46.6700 472.0000 1.0000
46.6800 451.0000 1.0000
46.6900 470.0000 1.0000
46.7000 470.0000 1.0000
46.7100 491.0000 1.0000
46.7200 508.0000 1.0000
46.7300 481.0000 1.0000
46.7400 489.0000 1.0000
46.7500 497.0000 1.0000
46.7600 488.0000 1.0000
46.7700 480.0000 1.0000
46.7800 462.0000 1.0000
46.7900 467.0000 1.0000
46.8000 457.0000 1.0000
46.8100 490.0000 1.0000
46.8200 472.0000 1.0000
46.8300 458.0000 1.0000
46.8400 495.0000 1.0000
46.8500 468.0000 1.0000
46.8600 491.0000 1.0000
46.8700 506.0000 1.0000
46.8800 477.0000 1.0000
46.8900 469.0000 1.0000
46.9000 505.0000 1.0000
46.9100 496.0000 1.0000
46.9200 477.0000 1.0000
46.9300 478.0000 1.0000
46.9400 475.0000 1.0000
46.9500 467.0000 1.0000
46.9600 483.0000 1.0000
46.9700 484.0000 1.0000
46.9800 515.0000 1.0000
46.9900 486.0000 1.0000
47.0000 488.0000 1.0000
47.0100 472.0000 1.0000
47.0200 461.0000 1.0000
47.0300 471.0000 1.0000
47.0400 448.0000 1.0000
47.0500 490.0000 1.0000
47.0600 505.0000 1.0000
47.0700 489.0000 1.0000
47.0800 500.0000 1.0000
47.0900 450.0000 1.0000
47.1000 464.0000 1.0000
47.1100 453.0000 1.0000
47.1200 468.0000 1.0000
47.1300 479.0000 1.0000
47.1400 495.0000 1.0000
47.1500 510.0000 1.0000
47.1600 458.0000 1.0000
47.1700 462.0000 1.0000
47.1800 493.0000 1.0000
47.1900 481.0000 1.0000
47.2000 457.0000 1.0000
47.2100 486.0000 1.0000
47.2200 484.0000 1.0000
47.2300 484.0000 1.0000
47.2400 489.0000 1.0000
47.2500 463.0000 1.0000
47.2600 494.0000 1.0000
47.2700 509.0000 1.0000
47.2800 515.0000 1.0000
47.2900 504.0000 1.0000
47.3000 479.0000 1.0000
47.3100 484.0000 1.0000
47.3200 475.0000 1.0000
47.3300 497.0000 1.0000
47.3400 495.0000 1.0000
47.3500 469.0000 1.0000
47.3600 497.0000 1.0000
47.3700 499.0000 1.0000
47.3800 478.0000 1.0000
47.3900 501.0000 1.0000
47.4000 492.0000 1.0000
47.4100 493.0000 1.0000
47.4200 443.0000 1.0000
47.4300 462.0000 1.0000
47.4400 476.0000 1.0000
47.4500 453.0000 1.0000
47.4600 500.0000 1.0000
47.4700 486.0000 1.0000
47.4800 480.0000 1.0000
47.4900 474.0000 1.0000
47.5000 465.0000 1.0000
47.5100 467.0000 1.0000
47.5200 475.0000 1.0000
47.5300 449.0000 1.0000
47.5400 466.0000 1.0000
47.5500 481.0000 1.0000
47.5600 442.0000 1.0000
47.5700 448.0000 1.0000
47.5800 437.0000 1.0000
47.5900 476.0000 1.0000
47.6000 513.0000 1.0000
47.6100 448.0000 1.0000
47.6200 450.0000 1.0000
47.6300 491.0000 1.0000
47.6400 477.0000 1.0000
47.6500 451.0000 1.0000
47.6600 462.0000 1.0000
47.6700 462.0000 1.0000
47.6800 470.0000 1.0000
47.6900 512.0000 1.0000
47.7000 503.0000 1.0000
47.7100 511.0000 1.0000
47.7200 470.0000 1.0000
47.7300 496.0000 1.0000
47.7400 437.0000 1.0000
47.7500 455.0000 1.0000
47.7600 479.0000 1.0000
47.7700 454.0000 1.0000
47.7800 495.0000 1.0000
47.7900 468.0000 1.0000
47.8000 448.0000 1.0000
47.8100 455.0000 1.0000
47.8200 456.0000 1.0000
47.8300 453.0000 1.0000
47.8400 507.0000 1.0000
47.8500 475.0000 1.0000
47.8600 480.0000 1.0000
47.8700 460.0000 1.0000
47.8800 445.0000 1.0000
47.8900 451.0000 1.0000
47.9000 439.0000 1.0000
47.9100 486.0000 1.0000
47.9200 487.0000 1.0000
47.9300 446.0000 1.0000
47.9400 472.0000 1.0000
47.9500 451.0000 1.0000
47.9600 461.0000 1.0000
47.9700 460.0000 1.0000
47.9800 485.0000 1.0000
47.9900 480.0000 1.0000
48.0000 473.0000 1.0000
48.0100 480.0000 1.0000
48.0200 480.0000 1.0000
48.0300 473.0000 1.0000
48.0400 476.0000 1.0000
48.0500 497.0000 1.0000
48.0600 487.0000 1.0000
48.0700 459.0000 1.0000
48.0800 474.0000 1.0000
48.0900 466.0000 1.0000
48.1000 484.0000 1.0000
48.1100 476.0000 1.0000
48.1200 453.0000 1.0000
48.1300 443.0000 1.0000
48.1400 470.0000 1.0000
48.1500 452.0000 1.0000
48.1600 464.0000 1.0000
48.1700 485.0000 1.0000
48.1800 489.0000 1.0000
48.1900 480.0000 1.0000
48.2000 441.0000 1.0000
48.2100 442.0000 1.0000
48.2200 479.0000 1.0000
48.2300 481.0000 1.0000
48.2400 469.0000 1.0000
48.2500 448.0000 1.0000
48.2600 462.0000 1.0000
48.2700 446.0000 1.0000
48.2800 457.0000 1.0000
48.2900 456.0000 1.0000
48.3000 470.0000 1.0000
48.3100 489.0000 1.0000
48.3200 475.0000 1.0000
48.3300 455.0000 1.0000
48.3400 461.0000 1.0000
48.3500 465.0000 1.0000
48.3600 516.0000 1.0000
48.3700 471.0000 1.0000
48.3800 481.0000 1.0000
48.3900 458.0000 1.0000
48.4000 469.0000 1.0000
48.4100 506.0000 1.0000
48.4200 495.0000 1.0000
48.4300 475.0000 1.0000
48.4400 446.0000 1.0000
48.4500 469.0000 1.0000
48.4600 476.0000 1.0000
48.4700 477.0000 1.0000
48.4800 512.0000 1.0000
48.4900 481.0000 1.0000
48.5000 457.0000 1.0000
48.5100 452.0000 1.0000
48.5200 451.0000 1.0000
48.5300 472.0000 1.0000
48.5400 456.0000 1.0000
48.5500 455.0000 1.0000
48.5600 460.0000 1.0000
48.5700 472.0000 1.0000
48.5800 494.0000 1.0000
48.5900 544.0000 1.0000
48.6000 479.0000 1.0000
48.6100 461.0000 1.0000
48.6200 498.0000 1.0000
48.6300 452.0000 1.0000
48.6400 450.0000 1.0000
48.6500 462.0000 1.0000
48.6600 420.0000 1.0000
48.6700 436.0000 1.0000
48.6800 490.0000 1.0000
48.6900 470.0000 1.0000
48.7000 467.0000 1.0000
48.7100 482.0000 1.0000
48.7200 469.0000 1.0000
48.7300 448.0000 1.0000
48.7400 485.0000 1.0000
48.7500 477.0000 1.0000
48.7600 489.0000 1.0000
48.7700 503.0000 1.0000
48.7800 491.0000 1.0000
48.7900 495.0000 1.0000
48.8000 469.0000 1.0000
48.8100 488.0000 1.0000
48.8200 452.0000 1.0000
48.8300 463.0000 1.0000
48.8400 503.0000 1.0000
48.8500 485.0000 1.0000
48.8600 507.0000 1.0000
48.8700 478.0000 1.0000
48.8800 479.0000 1.0000
48.8900 466.0000 1.0000
48.9000 486.0000 1.0000
48.9100 443.0000 1.0000
48.9200 451.0000 1.0000
48.9300 478.0000 1.0000
48.9400 481.0000 1.0000
48.9500 477.0000 1.0000
48.9600 450.0000 1.0000
48.9700 492.0000 1.0000
48.9800 445.0000 1.0000
48.9900 465.0000 1.0000
49.0000 463.0000 1.0000
49.0100 486.0000 1.0000
49.0200 459.0000 1.0000
49.0300 441.0000 1.0000
49.0400 442.0000 1.0000
49.0500 475.0000 1.0000
49.0600 470.0000 1.0000
49.0700 454.0000 1.0000
49.0800 463.0000 1.0000
49.0900 494.0000 1.0000
49.1000 486.0000 1.0000
49.1100 455.0000 1.0000
49.1200 474.0000 1.0000
49.1300 495.0000 1.0000
49.1400 484.0000 1.0000
49.1500 492.0000 1.0000
49.1600 482.0000 1.0000
49.1700 485.0000 1.0000
49.1800 456.0000 1.0000
49.1900 455.0000 1.0000
49.2000 506.0000 1.0000
49.2100 489.0000 1.0000
49.2200 516.0000 1.0000
49.2300 477.0000 1.0000
49.2400 518.0000 1.0000
49.2500 519.0000 1.0000
49.2600 473.0000 1.0000
49.2700 495.0000 1.0000
49.2800 509.0000 1.0000
49.2900 500.0000 1.0000
49.3000 502.0000 1.0000
49.3100 546.0000 1.0000
49.3200 526.0000 1.0000
49.3300 537.0000 1.0000
49.3400 536.0000 1.0000
49.3500 568.0000 1.0000
49.3600 591.0000 1.0000
49.3700 566.0000 1.0000
49.3800 593.0000 1.0000
49.3900 629.0000 1.0000
49.4000 632.0000 1.0000
49.4100 575.0000 1.0000
49.4200 635.0000 1.0000
49.4300 570.0000 1.0000
49.4400 561.0000 1.0000
49.4500 569.0000 1.0000
49.4600 584.0000 1.0000
49.4700 599.0000 1.0000
49.4800 584.0000 1.0000
49.4900 547.0000 1.0000
49.5000 599.0000 1.0000
49.5100 547.0000 1.0000
49.5200 573.0000 1.0000
49.5300 559.0000 1.0000
49.5400 581.0000 1.0000
49.5500 542.0000 1.0000
49.5600 518.0000 1.0000
49.5700 528.0000 1.0000
49.5800 521.0000 1.0000
49.5900 511.0000 1.0000
49.6000 518.0000 1.0000
49.6100 496.0000 1.0000
49.6200 503.0000 1.0000
49.6300 503.0000 1.0000
49.6400 488.0000 1.0000
49.6500 466.0000 1.0000
49.6600 474.0000 1.0000
49.6700 476.0000 1.0000
49.6800 488.0000 1.0000
49.6900 499.0000 1.0000
49.7000 495.0000 1.0000
49.7100 470.0000 1.0000
49.7200 480.0000 1.0000
49.7300 489.0000 1.0000
49.7400 471.0000 1.0000
49.7500 495.0000 1.0000
49.7600 500.0000 1.0000
49.7700 474.0000 1.0000
49.7800 494.0000 1.0000
49.7900 464.0000 1.0000
49.8000 479.0000 1.0000
49.8100 474.0000 1.0000
49.8200 440.0000 1.0000
49.8300 476.0000 1.0000
49.8400 470.0000 1.0000
49.8500 466.0000 1.0000
49.8600 451.0000 1.0000
49.8700 465.0000 1.0000
49.8800 444.0000 1.0000
49.8900 462.0000 1.0000
49.9000 454.0000 1.0000
49.9100 478.0000 1.0000
49.9200 466.0000 1.0000
49.9300 495.0000 1.0000
49.9400 514.0000 1.0000
49.9500 475.0000 1.0000
49.9600 479.0000 1.0000
49.9700 436.0000 1.0000
49.9800 458.0000 1.0000
49.9900 508.0000 1.0000
50.0000 484.0000 1.0000
50.0100 472.0000 1.0000
50.0200 461.0000 1.0000
50.0300 486.0000 1.0000
50.0400 446.0000 1.0000
50.0500 471.0000 1.0000
50.0600 477.0000 1.0000
50.0700 472.0000 1.0000
50.0800 486.0000 1.0000
50.0900 464.0000 1.0000
50.1000 474.0000 1.0000
50.1100 489.0000 1.0000
50.1200 489.0000 1.0000
50.1300 474.0000 1.0000
50.1400 473.0000 1.0000
50.1500 499.0000 1.0000
50.1600 482.0000 1.0000
50.1700 494.0000 1.0000
50.1800 486.0000 1.0000
50.1900 503.0000 1.0000
50.2000 492.0000 1.0000
50.2100 450.0000 1.0000
50.2200 461.0000 1.0000
50.2300 478.0000 1.0000
50.2400 454.0000 1.0000
50.2500 453.0000 1.0000
50.2600 434.0000 1.0000
50.2700 453.0000 1.0000
50.2800 477.0000 1.0000
50.2900 464.0000 1.0000
50.3000 452.0000 1.0000
50.3100 484.0000 1.0000
50.3200 482.0000 1.0000
50.3300 486.0000 1.0000
50.3400 471.0000 1.0000
50.3500 480.0000 1.0000
50.3600 479.0000 1.0000
50.3700 463.0000 1.0000
50.3800 513.0000 1.0000
50.3900 465.0000 1.0000
50.4000 460.0000 1.0000
50.4100 479.0000 1.0000
50.4200 494.0000 1.0000
50.4300 447.0000 1.0000
50.4400 455.0000 1.0000
50.4500 477.0000 1.0000
50.4600 477.0000 1.0000
50.4700 441.0000 1.0000
50.4800 468.0000 1.0000
50.4900 467.0000 1.0000
50.5000 496.0000 1.0000
50.5100 484.0000 1.0000
50.5200 489.0000 1.0000
50.5300 457.0000 1.0000
50.5400 436.0000 1.0000
50.5500 448.0000 1.0000
50.5600 469.0000 1.0000
50.5700 463.0000 1.0000
50.5800 496.0000 1.0000
50.5900 469.0000 1.0000
50.6000 478.0000 1.0000
50.6100 499.0000 1.0000
50.6200 485.0000 1.0000
50.6300 439.0000 1.0000
50.6400 422.0000 1.0000
50.6500 463.0000 1.0000
50.6600 458.0000 1.0000
50.6700 515.0000 1.0000
50.6800 495.0000 1.0000
50.6900 463.0000 1.0000
50.7000 521.0000 1.0000
50.7100 471.0000 1.0000
50.7200 451.0000 1.0000
50.7300 452.0000 1.0000
50.7400 504.0000 1.0000
50.7500 457.0000 1.0000
50.7600 449.0000 1.0000
50.7700 493.0000 1.0000
50.7800 500.0000 1.0000
50.7900 468.0000 1.0000
50.8000 483.0000 1.0000
50.8100 518.0000 1.0000
50.8200 491.0000 1.0000
50.8300 492.0000 1.0000
50.8400 479.0000 1.0000
50.8500 475.0000 1.0000
50.8600 501.0000 1.0000
50.8700 472.0000 1.0000
50.8800 456.0000 1.0000
50.8900 476.0000 1.0000
50.9000 502.0000 1.0000
50.9100 515.0000 1.0000
50.9200 517.0000 1.0000
50.9300 508.0000 1.0000
50.9400 507.0000 1.0000
50.9500 499.0000 1.0000
50.9600 510.0000 1.0000
50.9700 468.0000 1.0000
50.9800 504.0000 1.0000
50.9900 521.0000 1.0000
51.0000 498.0000 1.0000
51.0100 516.0000 1.0000
51.0200 539.0000 1.0000
51.0300 511.0000 1.0000
51.0400 514.0000 1.0000
51.0500 531.0000 1.0000
51.0600 548.0000 1.0000
51.0700 611.0000 1.0000
51.0800 549.0000 1.0000
51.0900 557.0000 1.0000
51.1000 571.0000 1.0000
51.1100 568.0000 1.0000
51.1200 531.0000 1.0000
51.1300 590.0000 1.0000
51.1400 609.0000 1.0000
51.1500 614.0000 1.0000
51.1600 612.0000 1.0000
51.1700 652.0000 1.0000
51.1800 673.0000 1.0000
51.1900 721.0000 1.0000
51.2000 748.0000 1.0000
51.2100 686.0000 1.0000
51.2200 766.0000 1.0000
51.2300 755.0000 1.0000
51.2400 786.0000 1.0000
51.2500 828.0000 1.0000
51.2600 868.0000 1.0000
51.2700 952.0000 1.0000
51.2800 946.0000 1.0000
51.2900 1043.0000 1.0000
51.3000 1076.0000 1.0000
51.3100 1070.0000 1.0000
51.3200 1167.0000 1.0000
51.3300 1217.0000 1.0000
51.3400 1309.0000 1.0000
51.3500 1370.0000 1.0000
51.3600 1510.0000 1.0000
51.3700 1623.0000 1.0000
51.3800 1732.0000 1.0000
51.3900 1860.0000 1.0000
51.4000 2060.0000 1.0000
51.4100 2234.0000 1.0000
51.4200 2302.0000 1.0000
51.4300 2455.0000 1.0000
51.4400 2616.0000 1.0000
51.4500 2618.0000 1.0000
51.4600 2754.0000 1.0000
51.4700 2889.0000 1.0000
51.4800 2925.0000 1.0000
51.4900 2954.0000 1.0000
51.5000 2933.0000 1.0000
51.5100 2969.0000 1.0000
51.5200 2827.0000 1.0000
51.5300 2791.0000 1.0000
51.5400 2787.0000 1.0000
51.5500 2664.0000 1.0000
51.5600 2584.0000 1.0000
51.5700 2494.0000 1.0000
51.5800 2398.0000 1.0000
51.5900 2320.0000 1.0000
51.6000 2401.0000 1.0000
51.6100 2204.0000 1.0000
51.6200 2162.0000 1.0000
51.6300 2093.0000 1.0000
51.6400 1968.0000 1.0000
51.6500 1954.0000 1.0000
51.6600 1857.0000 1.0000
51.6700 1640.0000 1.0000
51.6800 1552.0000 1.0000
51.6900 1459.0000 1.0000
51.7000 1345.0000 1.0000
51.7100 1293.0000 1.0000
51.7200 1219.0000 1.0000
51.7300 1153.0000 1.0000
51.7400 1070.0000 1.0000
51.7500 1030.0000 1.0000
51.7600 946.0000 1.0000
51.7700 913.0000 1.0000
51.7800 882.0000 1.0000
51.7900 848.0000 1.0000
51.8000 828.0000 1.0000
51.8100 788.0000 1.0000
51.8200 756.0000 1.0000
51.8300 716.0000 1.0000
51.8400 687.0000 1.0000
51.8500 654.0000 1.0000
51.8600 667.0000 1.0000
51.8700 679.0000 1.0000
51.8800 631.0000 1.0000
51.8900 663.0000 1.0000
51.9000 640.0000 1.0000
51.9100 593.0000 1.0000
51.9200 564.0000 1.0000
51.9300 573.0000 1.0000
51.9400 598.0000 1.0000
51.9500 570.0000 1.0000
51.9600 552.0000 1.0000
51.9700 549.0000 1.0000
51.9800 574.0000 1.0000
51.9900 559.0000 1.0000
52.0000 570.0000 1.0000
52.0100 545.0000 1.0000
52.0200 500.0000 1.0000
52.0300 542.0000 1.0000
52.0400 546.0000 1.0000
52.0500 536.0000 1.0000
52.0600 530.0000 1.0000
52.0700 507.0000 1.0000
52.0800 547.0000 1.0000
52.0900 525.0000 1.0000
52.1000 534.0000 1.0000
52.1100 499.0000 1.0000
52.1200 500.0000 1.0000
52.1300 507.0000 1.0000
52.1400 526.0000 1.0000
52.1500 511.0000 1.0000
52.1600 500.0000 1.0000
52.1700 490.0000 1.0000
52.1800 495.0000 1.0000
52.1900 490.0000 1.0000
52.2000 491.0000 1.0000
52.2100 512.0000 1.0000
52.2200 497.0000 1.0000
52.2300 508.0000 1.0000
52.2400 465.0000 1.0000
52.2500 451.0000 1.0000
52.2600 491.0000 1.0000
52.2700 459.0000 1.0000
52.2800 468.0000 1.0000
52.2900 491.0000 1.0000
52.3000 513.0000 1.0000
52.3100 477.0000 1.0000
52.3200 472.0000 1.0000
52.3300 489.0000 1.0000
52.3400 455.0000 1.0000
52.3500 455.0000 1.0000
52.3600 456.0000 1.0000
52.3700 462.0000 1.0000
52.3800 468.0000 1.0000
52.3900 453.0000 1.0000
52.4000 481.0000 1.0000
52.4100 470.0000 1.0000
52.4200 496.0000 1.0000
52.4300 467.0000 1.0000
52.4400 498.0000 1.0000
52.4500 438.0000 1.0000
52.4600 417.0000 1.0000
52.4700 458.0000 1.0000
52.4800 468.0000 1.0000
52.4900 480.0000 1.0000
52.5000 457.0000 1.0000
52.5100 448.0000 1.0000
52.5200 490.0000 1.0000
52.5300 479.0000 1.0000
52.5400 490.0000 1.0000
52.5500 471.0000 1.0000
52.5600 453.0000 1.0000
52.5700 501.0000 1.0000
52.5800 469.0000 1.0000
52.5900 463.0000 1.0000
52.6000 506.0000 1.0000
52.6100 445.0000 1.0000
52.6200 476.0000 1.0000
52.6300 440.0000 1.0000
52.6400 458.0000 1.0000
52.6500 463.0000 1.0000
52.6600 480.0000 1.0000
52.6700 441.0000 1.0000
52.6800 466.0000 1.0000
52.6900 475.0000 1.0000
52.7000 483.0000 1.0000
52.7100 474.0000 1.0000
52.7200 457.0000 1.0000
52.7300 469.0000 1.0000
52.7400 474.0000 1.0000
52.7500 446.0000 1.0000
52.7600 491.0000 1.0000
52.7700 446.0000 1.0000
52.7800 441.0000 1.0000
52.7900 453.0000 1.0000
52.8000 463.0000 1.0000
52.8100 445.0000 1.0000
52.8200 442.0000 1.0000
52.8300 480.0000 1.0000
52.8400 462.0000 1.0000
52.8500 445.0000 1.0000
52.8600 435.0000 1.0000
52.8700 460.0000 1.0000
52.8800 449.0000 1.0000
52.8900 474.0000 1.0000
52.9000 439.0000 1.0000
52.9100 438.0000 1.0000
52.9200 439.0000 1.0000
52.9300 433.0000 1.0000
52.9400 468.0000 1.0000
52.9500 432.0000 1.0000
52.9600 441.0000 1.0000
52.9700 468.0000 1.0000
52.9800 438.0000 1.0000
52.9900 479.0000 1.0000
53.0000 474.0000 1.0000
53.0100 475.0000 1.0000
53.0200 448.0000 1.0000
53.0300 420.0000 1.0000
53.0400 503.0000 1.0000
53.0500 447.0000 1.0000
53.0600 433.0000 1.0000
53.0700 472.0000 1.0000
53.0800 439.0000 1.0000
53.0900 448.0000 1.0000
53.1000 464.0000 1.0000
53.1100 449.0000 1.0000
53.1200 457.0000 1.0000
53.1300 450.0000 1.0000
53.1400 446.0000 1.0000
53.1500 486.0000 1.0000
53.1600 447.0000 1.0000
53.1700 456.0000 1.0000
53.1800 453.0000 1.0000
53.1900 447.0000 1.0000
53.2000 451.0000 1.0000
53.2100 451.0000 1.0000
53.2200 424.0000 1.0000
53.2300 444.0000 1.0000
53.2400 473.0000 1.0000
53.2500 449.0000 1.0000
53.2600 476.0000 1.0000
53.2700 431.0000 1.0000
53.2800 456.0000 1.0000
53.2900 446.0000 1.0000
53.3000 452.0000 1.0000
53.3100 446.0000 1.0000
53.3200 454.0000 1.0000
53.3300 443.0000 1.0000
53.3400 442.0000 1.0000
53.3500 477.0000 1.0000
53.3600 433.0000 1.0000
53.3700 459.0000 1.0000
53.3800 434.0000 1.0000
53.3900 438.0000 1.0000
53.4000 448.0000 1.0000
53.4100 446.0000 1.0000
53.4200 450.0000 1.0000
53.4300 472.0000 1.0000
53.4400 438.0000 1.0000
53.4500 460.0000 1.0000
53.4600 436.0000 1.0000
53.4700 407.0000 1.0000
53.4800 451.0000 1.0000
53.4900 448.0000 1.0000
53.5000 431.0000 1.0000
53.5100 456.0000 1.0000
53.5200 469.0000 1.0000
53.5300 440.0000 1.0000
53.5400 473.0000 1.0000
53.5500 450.0000 1.0000
53.5600 484.0000 1.0000
53.5700 453.0000 1.0000
53.5800 473.0000 1.0000
53.5900 438.0000 1.0000
53.6000 451.0000 1.0000
53.6100 457.0000 1.0000
53.6200 451.0000 1.0000
53.6300 441.0000 1.0000
53.6400 419.0000 1.0000
53.6500 436.0000 1.0000
53.6600 441.0000 1.0000
53.6700 493.0000 1.0000
53.6800 466.0000 1.0000
53.6900 427.0000 1.0000
53.7000 487.0000 1.0000
53.7100 456.0000 1.0000
53.7200 434.0000 1.0000
53.7300 436.0000 1.0000
53.7400 469.0000 1.0000
53.7500 469.0000 1.0000
53.7600 429.0000 1.0000
53.7700 472.0000 1.0000
53.7800 443.0000 1.0000
53.7900 444.0000 1.0000
53.8000 490.0000 1.0000
53.8100 468.0000 1.0000
53.8200 479.0000 1.0000
53.8300 501.0000 1.0000
53.8400 464.0000 1.0000
53.8500 507.0000 1.0000
53.8600 501.0000 1.0000
53.8700 445.0000 1.0000
53.8800 503.0000 1.0000
53.8900 508.0000 1.0000
53.9000 507.0000 1.0000
53.9100 539.0000 1.0000
53.9200 510.0000 1.0000
53.9300 548.0000 1.0000
53.9400 550.0000 1.0000
53.9500 567.0000 1.0000
53.9600 591.0000 1.0000
53.9700 569.0000 1.0000
53.9800 590.0000 1.0000
53.9900 607.0000 1.0000
54.0000 617.0000 1.0000
54.0100 642.0000 1.0000
54.0200 656.0000 1.0000
54.0300 632.0000 1.0000
54.0400 619.0000 1.0000
54.0500 625.0000 1.0000
54.0600 598.0000 1.0000
54.0700 574.0000 1.0000
54.0800 597.0000 1.0000
54.0900 600.0000 1.0000
54.1000 647.0000 1.0000
54.1100 575.0000 1.0000
54.1200 550.0000 1.0000
54.1300 564.0000 1.0000
54.1400 555.0000 1.0000
54.1500 559.0000 1.0000
54.1600 582.0000 1.0000
54.1700 553.0000 1.0000
54.1800 578.0000 1.0000
54.1900 522.0000 1.0000
54.2000 558.0000 1.0000
54.2100 530.0000 1.0000
54.2200 486.0000 1.0000
54.2300 536.0000 1.0000
54.2400 502.0000 1.0000
54.2500 501.0000 1.0000
54.2600 523.0000 1.0000
54.2700 538.0000 1.0000
54.2800 509.0000 1.0000
54.2900 478.0000 1.0000
54.3000 509.0000 1.0000
54.3100 550.0000 1.0000
54.3200 553.0000 1.0000
54.3300 567.0000 1.0000
54.3400 563.0000 1.0000
54.3500 554.0000 1.0000
54.3600 535.0000 1.0000
54.3700 521.0000 1.0000
54.3800 574.0000 1.0000
54.3900 569.0000 1.0000
54.4000 569.0000 1.0000
54.4100 567.0000 1.0000
54.4200 608.0000 1.0000
54.4300 623.0000 1.0000
54.4400 611.0000 1.0000
54.4500 631.0000 1.0000
54.4600 655.0000 1.0000
54.4700 682.0000 1.0000
54.4800 704.0000 1.0000
54.4900 690.0000 1.0000
54.5000 692.0000 1.0000
54.5100 710.0000 1.0000
54.5200 658.0000 1.0000
54.5300 678.0000 1.0000
54.5400 677.0000 1.0000
54.5500 702.0000 1.0000
54.5600 630.0000 1.0000
54.5700 681.0000 1.0000
54.5800 670.0000 1.0000
54.5900 618.0000 1.0000
54.6000 654.0000 1.0000
54.6100 626.0000 1.0000
54.6200 598.0000 1.0000
54.6300 635.0000 1.0000
54.6400 590.0000 1.0000
54.6500 666.0000 1.0000
54.6600 597.0000 1.0000
54.6700 589.0000 1.0000
54.6800 596.0000 1.0000
54.6900 577.0000 1.0000
54.7000 612.0000 1.0000
54.7100 576.0000 1.0000
54.7200 611.0000 1.0000
54.7300 553.0000 1.0000
54.7400 527.0000 1.0000
54.7500 540.0000 1.0000
54.7600 531.0000 1.0000
54.7700 538.0000 1.0000
54.7800 530.0000 1.0000
54.7900 500.0000 1.0000
54.8000 539.0000 1.0000
54.8100 509.0000 1.0000
54.8200 497.0000 1.0000
54.8300 502.0000 1.0000
54.8400 474.0000 1.0000
54.8500 515.0000 1.0000
54.8600 495.0000 1.0000
54.8700 469.0000 1.0000
54.8800 495.0000 1.0000
54.8900 484.0000 1.0000
54.9000 472.0000 1.0000
54.9100 457.0000 1.0000
54.9200 467.0000 1.0000
54.9300 467.0000 1.0000
54.9400 488.0000 1.0000
54.9500 442.0000 1.0000
54.9600 472.0000 1.0000
54.9700 443.0000 1.0000
54.9800 479.0000 1.0000
54.9900 431.0000 1.0000
55.0000 460.0000 1.0000
55.0100 447.0000 1.0000
55.0200 496.0000 1.0000
55.0300 449.0000 1.0000
55.0400 516.0000 1.0000
55.0500 422.0000 1.0000
55.0600 450.0000 1.0000
55.0700 404.0000 1.0000
55.0800 468.0000 1.0000
55.0900 468.0000 1.0000
55.1000 467.0000 1.0000
55.1100 423.0000 1.0000
55.1200 458.0000 1.0000
55.1300 426.0000 1.0000
55.1400 431.0000 1.0000
55.1500 441.0000 1.0000
55.1600 415.0000 1.0000
55.1700 439.0000 1.0000
55.1800 464.0000 1.0000
55.1900 465.0000 1.0000
55.2000 449.0000 1.0000
55.2100 480.0000 1.0000
55.2200 434.0000 1.0000
55.2300 457.0000 1.0000
55.2400 437.0000 1.0000
55.2500 474.0000 1.0000
55.2600 470.0000 1.0000
55.2700 441.0000 1.0000
55.2800 451.0000 1.0000
55.2900 452.0000 1.0000
55.3000 434.0000 1.0000
55.3100 410.0000 1.0000
55.3200 473.0000 1.0000
55.3300 436.0000 1.0000
55.3400 440.0000 1.0000
55.3500 448.0000 1.0000
55.3600 437.0000 1.0000
55.3700 432.0000 1.0000
55.3800 485.0000 1.0000
55.3900 433.0000 1.0000
55.4000 472.0000 1.0000
55.4100 448.0000 1.0000
55.4200 436.0000 1.0000
55.4300 424.0000 1.0000
55.4400 468.0000 1.0000
55.4500 460.0000 1.0000
55.4600 446.0000 1.0000
55.4700 403.0000 1.0000
55.4800 433.0000 1.0000
55.4900 442.0000 1.0000
55.5000 454.0000 1.0000
55.5100 435.0000 1.0000
55.5200 433.0000 1.0000
55.5300 466.0000 1.0000
55.5400 424.0000 1.0000
55.5500 433.0000 1.0000
55.5600 424.0000 1.0000
55.5700 446.0000 1.0000
55.5800 433.0000 1.0000
55.5900 454.0000 1.0000
55.6000 431.0000 1.0000
55.6100 442.0000 1.0000
55.6200 450.0000 1.0000
55.6300 454.0000 1.0000
55.6400 454.0000 1.0000
55.6500 437.0000 1.0000
55.6600 419.0000 1.0000
55.6700 473.0000 1.0000
55.6800 451.0000 1.0000
55.6900 426.0000 1.0000
55.7000 448.0000 1.0000
55.7100 438.0000 1.0000
55.7200 409.0000 1.0000
55.7300 424.0000 1.0000
55.7400 423.0000 1.0000
55.7500 401.0000 1.0000
55.7600 410.0000 1.0000
55.7700 448.0000 1.0000
55.7800 442.0000 1.0000
55.7900 436.0000 1.0000
55.8000 421.0000 1.0000
55.8100 452.0000 1.0000
55.8200 462.0000 1.0000
55.8300 459.0000 1.0000
55.8400 404.0000 1.0000
55.8500 440.0000 1.0000
55.8600 409.0000 1.0000
55.8700 448.0000 1.0000
55.8800 424.0000 1.0000
55.8900 446.0000 1.0000
55.9000 460.0000 1.0000
55.9100 423.0000 1.0000
55.9200 406.0000 1.0000
55.9300 420.0000 1.0000
55.9400 435.0000 1.0000
55.9500 452.0000 1.0000
55.9600 411.0000 1.0000
55.9700 429.0000 1.0000
55.9800 424.0000 1.0000
55.9900 442.0000 1.0000
56.0000 450.0000 1.0000
56.0100 443.0000 1.0000
56.0200 479.0000 1.0000
56.0300 434.0000 1.0000
56.0400 425.0000 1.0000
56.0500 413.0000 1.0000
56.0600 425.0000 1.0000
56.0700 424.0000 1.0000
56.0800 421.0000 1.0000
56.0900 442.0000 1.0000
56.1000 440.0000 1.0000
56.1100 434.0000 1.0000
56.1200 446.0000 1.0000
56.1300 459.0000 1.0000
56.1400 446.0000 1.0000
56.1500 455.0000 1.0000
56.1600 409.0000 1.0000
56.1700 436.0000 1.0000
56.1800 425.0000 1.0000
56.1900 413.0000 1.0000
56.2000 427.0000 1.0000
56.2100 450.0000 1.0000
56.2200 428.0000 1.0000
56.2300 443.0000 1.0000
56.2400 448.0000 1.0000
56.2500 428.0000 1.0000
56.2600 431.0000 1.0000
56.2700 447.0000 1.0000
56.2800 431.0000 1.0000
56.2900 419.0000 1.0000
56.3000 432.0000 1.0000
56.3100 428.0000 1.0000
56.3200 420.0000 1.0000
56.3300 435.0000 1.0000
56.3400 445.0000 1.0000
56.3500 450.0000 1.0000
56.3600 427.0000 1.0000
56.3700 435.0000 1.0000
56.3800 438.0000 1.0000
56.3900 408.0000 1.0000
56.4000 431.0000 1.0000
56.4100 410.0000 1.0000
56.4200 431.0000 1.0000
56.4300 439.0000 1.0000
56.4400 430.0000 1.0000
56.4500 437.0000 1.0000
56.4600 441.0000 1.0000
56.4700 452.0000 1.0000
56.4800 467.0000 1.0000
56.4900 467.0000 1.0000
56.5000 423.0000 1.0000
56.5100 425.0000 1.0000
56.5200 460.0000 1.0000
56.5300 443.0000 1.0000
56.5400 426.0000 1.0000
56.5500 395.0000 1.0000
56.5600 422.0000 1.0000
56.5700 443.0000 1.0000
56.5800 445.0000 1.0000
56.5900 458.0000 1.0000
56.6000 450.0000 1.0000
56.6100 412.0000 1.0000
56.6200 410.0000 1.0000
56.6300 423.0000 1.0000
56.6400 415.0000 1.0000
56.6500 446.0000 1.0000
56.6600 431.0000 1.0000
56.6700 421.0000 1.0000
56.6800 410.0000 1.0000
56.6900 381.0000 1.0000
56.7000 416.0000 1.0000
56.7100 409.0000 1.0000
56.7200 426.0000 1.0000
56.7300 438.0000 1.0000
56.7400 427.0000 1.0000
56.7500 409.0000 1.0000
56.7600 437.0000 1.0000
56.7700 419.0000 1.0000
56.7800 442.0000 1.0000
56.7900 440.0000 1.0000
56.8000 411.0000 1.0000
56.8100 399.0000 1.0000
56.8200 393.0000 1.0000
56.8300 422.0000 1.0000
56.8400 405.0000 1.0000
56.8500 432.0000 1.0000
56.8600 424.0000 1.0000
56.8700 429.0000 1.0000
56.8800 440.0000 1.0000
56.8900 423.0000 1.0000
56.9000 424.0000 1.0000
56.9100 412.0000 1.0000
56.9200 446.0000 1.0000
56.9300 438.0000 1.0000
56.9400 445.0000 1.0000
56.9500 435.0000 1.0000
56.9600 447.0000 1.0000
56.9700 437.0000 1.0000
56.9800 434.0000 1.0000
56.9900 422.0000 1.0000
57.0000 434.0000 1.0000
57.0100 426.0000 1.0000
57.0200 439.0000 1.0000
57.0300 397.0000 1.0000
57.0400 395.0000 1.0000
57.0500 412.0000 1.0000
57.0600 388.0000 1.0000
57.0700 403.0000 1.0000
57.0800 434.0000 1.0000
57.0900 421.0000 1.0000
57.1000 438.0000 1.0000
57.1100 438.0000 1.0000
57.1200 415.0000 1.0000
57.1300 436.0000 1.0000
57.1400 436.0000 1.0000
57.1500 439.0000 1.0000
57.1600 436.0000 1.0000
57.1700 445.0000 1.0000
57.1800 441.0000 1.0000
57.1900 419.0000 1.0000
57.2000 422.0000 1.0000
57.2100 427.0000 1.0000
57.2200 441.0000 1.0000
57.2300 462.0000 1.0000
57.2400 440.0000 1.0000
57.2500 450.0000 1.0000
57.2600 453.0000 1.0000
57.2700 447.0000 1.0000
57.2800 443.0000 1.0000
57.2900 468.0000 1.0000
57.3000 408.0000 1.0000
57.3100 447.0000 1.0000
57.3200 451.0000 1.0000
57.3300 442.0000 1.0000
57.3400 450.0000 1.0000
57.3500 450.0000 1.0000
57.3600 441.0000 1.0000
57.3700 444.0000 1.0000
57.3800 431.0000 1.0000
57.3900 460.0000 1.0000
57.4000 442.0000 1.0000
57.4100 449.0000 1.0000
57.4200 441.0000 1.0000
57.4300 454.0000 1.0000
57.4400 455.0000 1.0000
57.4500 466.0000 1.0000
57.4600 452.0000 1.0000
57.4700 448.0000 1.0000
57.4800 459.0000 1.0000
57.4900 459.0000 1.0000
57.5000 457.0000 1.0000
57.5100 444.0000 1.0000
57.5200 461.0000 1.0000
57.5300 442.0000 1.0000
57.5400 463.0000 1.0000
57.5500 446.0000 1.0000
57.5600 462.0000 1.0000
57.5700 468.0000 1.0000
57.5800 469.0000 1.0000
57.5900 483.0000 1.0000
57.6000 441.0000 1.0000
57.6100 441.0000 1.0000
57.6200 443.0000 1.0000
57.6300 460.0000 1.0000
57.6400 434.0000 1.0000
57.6500 410.0000 1.0000
57.6600 435.0000 1.0000
57.6700 426.0000 1.0000
57.6800 431.0000 1.0000
57.6900 437.0000 1.0000
57.7000 426.0000 1.0000
57.7100 437.0000 1.0000
57.7200 463.0000 1.0000
57.7300 451.0000 1.0000
57.7400 470.0000 1.0000
57.7500 429.0000 1.0000
57.7600 431.0000 1.0000
57.7700 453.0000 1.0000
57.7800 401.0000 1.0000
57.7900 403.0000 1.0000
57.8000 414.0000 1.0000
57.8100 391.0000 1.0000
57.8200 430.0000 1.0000
57.8300 404.0000 1.0000
57.8400 405.0000 1.0000
57.8500 422.0000 1.0000
57.8600 459.0000 1.0000
57.8700 429.0000 1.0000
57.8800 414.0000 1.0000
57.8900 425.0000 1.0000
57.9000 455.0000 1.0000
57.9100 462.0000 1.0000
57.9200 428.0000 1.0000
57.9300 462.0000 1.0000
57.9400 459.0000 1.0000
57.9500 419.0000 1.0000
57.9600 448.0000 1.0000
57.9700 432.0000 1.0000
57.9800 428.0000 1.0000
57.9900 385.0000 1.0000
58.0000 407.0000 1.0000
58.0100 408.0000 1.0000
58.0200 401.0000 1.0000
58.0300 419.0000 1.0000
58.0400 407.0000 1.0000
58.0500 425.0000 1.0000
58.0600 421.0000 1.0000
58.0700 431.0000 1.0000
58.0800 415.0000 1.0000
58.0900 412.0000 1.0000
58.1000 448.0000 1.0000
58.1100 423.0000 1.0000
58.1200 421.0000 1.0000
58.1300 458.0000 1.0000
58.1400 430.0000 1.0000
58.1500 388.0000 1.0000
58.1600 417.0000 1.0000
58.1700 417.0000 1.0000
58.1800 415.0000 1.0000
58.1900 430.0000 1.0000
58.2000 421.0000 1.0000
58.2100 411.0000 1.0000
58.2200 400.0000 1.0000
58.2300 392.0000 1.0000
58.2400 385.0000 1.0000
58.2500 440.0000 1.0000
58.2600 438.0000 1.0000
58.2700 422.0000 1.0000
58.2800 412.0000 1.0000
58.2900 414.0000 1.0000
58.3000 426.0000 1.0000
58.3100 438.0000 1.0000
58.3200 424.0000 1.0000
58.3300 431.0000 1.0000
58.3400 421.0000 1.0000
58.3500 420.0000 1.0000
58.3600 432.0000 1.0000
58.3700 415.0000 1.0000
58.3800 449.0000 1.0000
58.3900 394.0000 1.0000
58.4000 431.0000 1.0000
58.4100 428.0000 1.0000
58.4200 428.0000 1.0000
58.4300 456.0000 1.0000
58.4400 430.0000 1.0000
58.4500 424.0000 1.0000
58.4600 403.0000 1.0000
58.4700 417.0000 1.0000
58.4800 412.0000 1.0000
58.4900 420.0000 1.0000
58.5000 438.0000 1.0000
58.5100 457.0000 1.0000
58.5200 418.0000 1.0000
58.5300 404.0000 1.0000
58.5400 388.0000 1.0000
58.5500 410.0000 1.0000
58.5600 449.0000 1.0000
58.5700 434.0000 1.0000
58.5800 418.0000 1.0000
58.5900 449.0000 1.0000
58.6000 431.0000 1.0000
58.6100 420.0000 1.0000
58.6200 428.0000 1.0000
58.6300 448.0000 1.0000
58.6400 437.0000 1.0000
58.6500 424.0000 1.0000
58.6600 414.0000 1.0000
58.6700 433.0000 1.0000
58.6800 428.0000 1.0000
58.6900 421.0000 1.0000
58.7000 424.0000 1.0000
58.7100 429.0000 1.0000
58.7200 453.0000 1.0000
58.7300 444.0000 1.0000
58.7400 439.0000 1.0000
58.7500 404.0000 1.0000
58.7600 385.0000 1.0000
58.7700 415.0000 1.0000
58.7800 394.0000 1.0000
58.7900 405.0000 1.0000
58.8000 436.0000 1.0000
58.8100 411.0000 1.0000
58.8200 429.0000 1.0000
58.8300 425.0000 1.0000
58.8400 442.0000 1.0000
58.8500 417.0000 1.0000
58.8600 443.0000 1.0000
58.8700 458.0000 1.0000
58.8800 403.0000 1.0000
58.8900 459.0000 1.0000
58.9000 439.0000 1.0000
58.9100 453.0000 1.0000
58.9200 436.0000 1.0000
58.9300 440.0000 1.0000
58.9400 410.0000 1.0000
58.9500 445.0000 1.0000
58.9600 413.0000 1.0000
58.9700 435.0000 1.0000
58.9800 440.0000 1.0000
58.9900 428.0000 1.0000
59.0000 381.0000 1.0000
59.0100 440.0000 1.0000
59.0200 434.0000 1.0000
59.0300 400.0000 1.0000
59.0400 451.0000 1.0000
59.0500 412.0000 1.0000
59.0600 400.0000 1.0000
59.0700 410.0000 1.0000
59.0800 421.0000 1.0000
59.0900 438.0000 1.0000
59.1000 422.0000 1.0000
59.1100 417.0000 1.0000
59.1200 418.0000 1.0000
59.1300 414.0000 1.0000
59.1400 435.0000 1.0000
59.1500 435.0000 1.0000
59.1600 431.0000 1.0000
59.1700 415.0000 1.0000
59.1800 405.0000 1.0000
59.1900 402.0000 1.0000
59.2000 475.0000 1.0000
59.2100 449.0000 1.0000
59.2200 414.0000 1.0000
59.2300 434.0000 1.0000
59.2400 431.0000 1.0000
59.2500 413.0000 1.0000
59.2600 386.0000 1.0000
59.2700 423.0000 1.0000
59.2800 406.0000 1.0000
59.2900 443.0000 1.0000
59.3000 398.0000 1.0000
59.3100 419.0000 1.0000
59.3200 439.0000 1.0000
59.3300 403.0000 1.0000
59.3400 415.0000 1.0000
59.3500 411.0000 1.0000
59.3600 404.0000 1.0000
59.3700 427.0000 1.0000
59.3800 454.0000 1.0000
59.3900 432.0000 1.0000
59.4000 418.0000 1.0000
59.4100 402.0000 1.0000
59.4200 428.0000 1.0000
59.4300 409.0000 1.0000
59.4400 425.0000 1.0000
59.4500 440.0000 1.0000
59.4600 446.0000 1.0000
59.4700 422.0000 1.0000
59.4800 434.0000 1.0000
59.4900 442.0000 1.0000
59.5000 429.0000 1.0000
59.5100 374.0000 1.0000
59.5200 431.0000 1.0000
59.5300 441.0000 1.0000
59.5400 414.0000 1.0000
59.5500 398.0000 1.0000
59.5600 427.0000 1.0000
59.5700 413.0000 1.0000
59.5800 421.0000 1.0000
59.5900 422.0000 1.0000
59.6000 420.0000 1.0000
59.6100 441.0000 1.0000
59.6200 439.0000 1.0000
59.6300 423.0000 1.0000
59.6400 421.0000 1.0000
59.6500 431.0000 1.0000
59.6600 438.0000 1.0000
59.6700 411.0000 1.0000
59.6800 430.0000 1.0000
59.6900 422.0000 1.0000
59.7000 440.0000 1.0000
59.7100 414.0000 1.0000
59.7200 432.0000 1.0000
59.7300 387.0000 1.0000
59.7400 431.0000 1.0000
59.7500 447.0000 1.0000
59.7600 422.0000 1.0000
59.7700 391.0000 1.0000
59.7800 403.0000 1.0000
59.7900 422.0000 1.0000
59.8000 426.0000 1.0000
59.8100 431.0000 1.0000
59.8200 401.0000 1.0000
59.8300 436.0000 1.0000
59.8400 400.0000 1.0000
59.8500 400.0000 1.0000
59.8600 420.0000 1.0000
59.8700 445.0000 1.0000
59.8800 428.0000 1.0000
59.8900 421.0000 1.0000
59.9000 431.0000 1.0000
59.9100 426.0000 1.0000
59.9200 381.0000 1.0000
59.9300 400.0000 1.0000
59.9400 434.0000 1.0000
59.9500 419.0000 1.0000
59.9600 442.0000 1.0000
59.9700 412.0000 1.0000
59.9800 397.0000 1.0000
59.9900 428.0000 1.0000
60.0000 390.0000 1.0000
60.0100 430.0000 1.0000
60.0200 401.0000 1.0000
60.0300 434.0000 1.0000
60.0400 395.0000 1.0000
60.0500 400.0000 1.0000
60.0600 420.0000 1.0000
60.0700 418.0000 1.0000
60.0800 376.0000 1.0000
60.0900 396.0000 1.0000
60.1000 415.0000 1.0000
60.1100 394.0000 1.0000
60.1200 447.0000 1.0000
60.1300 410.0000 1.0000
60.1400 423.0000 1.0000
60.1500 414.0000 1.0000
60.1600 414.0000 1.0000
60.1700 419.0000 1.0000
60.1800 433.0000 1.0000
60.1900 427.0000 1.0000
60.2000 433.0000 1.0000
60.2100 409.0000 1.0000
60.2200 445.0000 1.0000
60.2300 456.0000 1.0000
60.2400 426.0000 1.0000
60.2500 433.0000 1.0000
60.2600 440.0000 1.0000
60.2700 415.0000 1.0000
60.2800 412.0000 1.0000
60.2900 429.0000 1.0000
60.3000 413.0000 1.0000
60.3100 412.0000 1.0000
60.3200 438.0000 1.0000
60.3300 422.0000 1.0000
60.3400 419.0000 1.0000
60.3500 415.0000 1.0000
60.3600 429.0000 1.0000
60.3700 417.0000 1.0000
60.3800 409.0000 1.0000
60.3900 459.0000 1.0000
60.4000 440.0000 1.0000
60.4100 430.0000 1.0000
60.4200 423.0000 1.0000
60.4300 449.0000 1.0000
60.4400 434.0000 1.0000
60.4500 448.0000 1.0000
60.4600 449.0000 1.0000
60.4700 429.0000 1.0000
60.4800 461.0000 1.0000
60.4900 437.0000 1.0000
60.5000 417.0000 1.0000
60.5100 429.0000 1.0000
60.5200 411.0000 1.0000
60.5300 437.0000 1.0000
60.5400 397.0000 1.0000
60.5500 422.0000 1.0000
60.5600 413.0000 1.0000
60.5700 413.0000 1.0000
60.5800 431.0000 1.0000
60.5900 417.0000 1.0000
60.6000 402.0000 1.0000
60.6100 438.0000 1.0000
60.6200 393.0000 1.0000
60.6300 417.0000 1.0000
60.6400 450.0000 1.0000
60.6500 427.0000 1.0000
60.6600 428.0000 1.0000
60.6700 409.0000 1.0000
60.6800 433.0000 1.0000
60.6900 395.0000 1.0000
60.7000 417.0000 1.0000
60.7100 415.0000 1.0000
60.7200 429.0000 1.0000
60.7300 410.0000 1.0000
60.7400 405.0000 1.0000
60.7500 442.0000 1.0000
60.7600 419.0000 1.0000
60.7700 434.0000 1.0000
60.7800 437.0000 1.0000
60.7900 424.0000 1.0000
60.8000 429.0000 1.0000
60.8100 421.0000 1.0000
60.8200 409.0000 1.0000
60.8300 439.0000 1.0000
60.8400 436.0000 1.0000
60.8500 426.0000 1.0000
60.8600 431.0000 1.0000
60.8700 423.0000 1.0000
60.8800 409.0000 1.0000
60.8900 415.0000 1.0000
60.9000 420.0000 1.0000
60.9100 429.0000 1.0000
60.9200 448.0000 1.0000
60.9300 459.0000 1.0000
60.9400 462.0000 1.0000
60.9500 459.0000 1.0000
60.9600 459.0000 1.0000
60.9700 401.0000 1.0000
60.9800 453.0000 1.0000
60.9900 471.0000 1.0000
61.0000 455.0000 1.0000
61.0100 422.0000 1.0000
61.0200 427.0000 1.0000
61.0300 431.0000 1.0000
61.0400 444.0000 1.0000
61.0500 440.0000 1.0000
61.0600 484.0000 1.0000
61.0700 449.0000 1.0000
61.0800 443.0000 1.0000
61.0900 454.0000 1.0000
61.1000 466.0000 1.0000
61.1100 462.0000 1.0000
61.1200 458.0000 1.0000
61.1300 448.0000 1.0000
61.1400 485.0000 1.0000
61.1500 473.0000 1.0000
61.1600 468.0000 1.0000
61.1700 483.0000 1.0000
61.1800 523.0000 1.0000
61.1900 484.0000 1.0000
61.2000 502.0000 1.0000
61.2100 504.0000 1.0000
61.2200 478.0000 1.0000
61.2300 502.0000 1.0000
61.2400 520.0000 1.0000
61.2500 513.0000 1.0000
61.2600 572.0000 1.0000
61.2700 548.0000 1.0000
61.2800 530.0000 1.0000
61.2900 557.0000 1.0000
61.3000 584.0000 1.0000
61.3100 598.0000 1.0000
61.3200 592.0000 1.0000
61.3300 628.0000 1.0000
61.3400 589.0000 1.0000
61.3500 651.0000 1.0000
61.3600 655.0000 1.0000
61.3700 647.0000 1.0000
61.3800 660.0000 1.0000
61.3900 687.0000 1.0000
61.4000 744.0000 1.0000
61.4100 759.0000 1.0000
61.4200 749.0000 1.0000
61.4300 761.0000 1.0000
61.4400 794.0000 1.0000
61.4500 778.0000 1.0000
61.4600 822.0000 1.0000
61.4700 802.0000 1.0000
61.4800 823.0000 1.0000
61.4900 878.0000 1.0000
61.5000 862.0000 1.0000
61.5100 853.0000 1.0000
61.5200 862.0000 1.0000
61.5300 914.0000 1.0000
61.5400 868.0000 1.0000
61.5500 865.0000 1.0000
61.5600 918.0000 1.0000
61.5700 854.0000 1.0000
61.5800 852.0000 1.0000
61.5900 902.0000 1.0000
61.6000 881.0000 1.0000
61.6100 871.0000 1.0000
61.6200 843.0000 1.0000
61.6300 798.0000 1.0000
61.6400 784.0000 1.0000
61.6500 863.0000 1.0000
61.6600 813.0000 1.0000
61.6700 837.0000 1.0000
61.6800 815.0000 1.0000
61.6900 765.0000 1.0000
61.7000 794.0000 1.0000
61.7100 766.0000 1.0000
61.7200 673.0000 1.0000
61.7300 730.0000 1.0000
61.7400 778.0000 1.0000
61.7500 746.0000 1.0000
61.7600 720.0000 1.0000
61.7700 693.0000 1.0000
61.7800 632.0000 1.0000
61.7900 679.0000 1.0000
61.8000 660.0000 1.0000
61.8100 633.0000 1.0000
61.8200 624.0000 1.0000
61.8300 636.0000 1.0000
61.8400 645.0000 1.0000
61.8500 631.0000 1.0000
61.8600 526.0000 1.0000
61.8700 563.0000 1.0000
61.8800 564.0000 1.0000
61.8900 553.0000 1.0000
61.9000 526.0000 1.0000
61.9100 523.0000 1.0000
61.9200 538.0000 1.0000
61.9300 498.0000 1.0000
61.9400 511.0000 1.0000
61.9500 522.0000 1.0000
61.9600 508.0000 1.0000
61.9700 493.0000 1.0000
61.9800 520.0000 1.0000
61.9900 505.0000 1.0000
62.0000 484.0000 1.0000
62.0100 500.0000 1.0000
62.0200 519.0000 1.0000
62.0300 469.0000 1.0000
62.0400 478.0000 1.0000
62.0500 471.0000 1.0000
62.0600 453.0000 1.0000
62.0700 454.0000 1.0000
62.0800 486.0000 1.0000
62.0900 484.0000 1.0000
62.1000 474.0000 1.0000
62.1100 491.0000 1.0000
62.1200 474.0000 1.0000
62.1300 462.0000 1.0000
62.1400 456.0000 1.0000
62.1500 473.0000 1.0000
62.1600 472.0000 1.0000
62.1700 481.0000 1.0000
62.1800 454.0000 1.0000
62.1900 462.0000 1.0000
62.2000 442.0000 1.0000
62.2100 435.0000 1.0000
62.2200 421.0000 1.0000
62.2300 513.0000 1.0000
62.2400 491.0000 1.0000
62.2500 503.0000 1.0000
62.2600 452.0000 1.0000
62.2700 482.0000 1.0000
62.2800 481.0000 1.0000
62.2900 478.0000 1.0000
62.3000 495.0000 1.0000
62.3100 525.0000 1.0000
62.3200 522.0000 1.0000
62.3300 557.0000 1.0000
62.3400 548.0000 1.0000
62.3500 525.0000 1.0000
62.3600 569.0000 1.0000
62.3700 570.0000 1.0000
62.3800 546.0000 1.0000
62.3900 524.0000 1.0000
62.4000 527.0000 1.0000
62.4100 558.0000 1.0000
62.4200 542.0000 1.0000
62.4300 531.0000 1.0000
62.4400 488.0000 1.0000
62.4500 484.0000 1.0000
62.4600 470.0000 1.0000
62.4700 508.0000 1.0000
62.4800 511.0000 1.0000
62.4900 474.0000 1.0000
62.5000 458.0000 1.0000
62.5100 460.0000 1.0000
62.5200 476.0000 1.0000
62.5300 510.0000 1.0000
62.5400 493.0000 1.0000
62.5500 498.0000 1.0000
62.5600 471.0000 1.0000
62.5700 481.0000 1.0000
62.5800 466.0000 1.0000
62.5900 481.0000 1.0000
62.6000 477.0000 1.0000
62.6100 465.0000 1.0000
62.6200 478.0000 1.0000
62.6300 484.0000 1.0000
62.6400 456.0000 1.0000
62.6500 426.0000 1.0000
62.6600 467.0000 1.0000
62.6700 455.0000 1.0000
62.6800 391.0000 1.0000
62.6900 404.0000 1.0000
62.7000 447.0000 1.0000
62.7100 425.0000 1.0000
62.7200 450.0000 1.0000
62.7300 447.0000 1.0000
62.7400 444.0000 1.0000
62.7500 414.0000 1.0000
62.7600 407.0000 1.0000
62.7700 399.0000 1.0000
62.7800 411.0000 1.0000
62.7900 399.0000 1.0000
62.8000 429.0000 1.0000
62.8100 432.0000 1.0000
62.8200 420.0000 1.0000
62.8300 433.0000 1.0000
62.8400 432.0000 1.0000
62.8500 406.0000 1.0000
62.8600 408.0000 1.0000
62.8700 436.0000 1.0000
62.8800 460.0000 1.0000
62.8900 450.0000 1.0000
62.9000 439.0000 1.0000
62.9100 439.0000 1.0000
62.9200 385.0000 1.0000
62.9300 417.0000 1.0000
62.9400 428.0000 1.0000
62.9500 453.0000 1.0000
62.9600 429.0000 1.0000
62.9700 423.0000 1.0000
62.9800 428.0000 1.0000
62.9900 406.0000 1.0000
63.0000 448.0000 1.0000
63.0100 443.0000 1.0000
63.0200 440.0000 1.0000
63.0300 458.0000 1.0000
63.0400 445.0000 1.0000
63.0500 445.0000 1.0000
63.0600 434.0000 1.0000
63.0700 424.0000 1.0000
63.0800 425.0000 1.0000
63.0900 419.0000 1.0000
63.1000 408.0000 1.0000
63.1100 429.0000 1.0000
63.1200 403.0000 1.0000
63.1300 409.0000 1.0000
63.1400 447.0000 1.0000
63.1500 428.0000 1.0000
63.1600 434.0000 1.0000
63.1700 418.0000 1.0000
63.1800 424.0000 1.0000
63.1900 420.0000 1.0000
63.2000 409.0000 1.0000
63.2100 419.0000 1.0000
63.2200 443.0000 1.0000
63.2300 425.0000 1.0000
63.2400 405.0000 1.0000
63.2500 413.0000 1.0000
63.2600 447.0000 1.0000
63.2700 417.0000 1.0000
63.2800 430.0000 1.0000
63.2900 434.0000 1.0000
63.3000 431.0000 1.0000
63.3100 421.0000 1.0000
63.3200 410.0000 1.0000
63.3300 400.0000 1.0000
63.3400 407.0000 1.0000
63.3500 420.0000 1.0000
63.3600 430.0000 1.0000
63.3700 446.0000 1.0000
63.3800 418.0000 1.0000
63.3900 419.0000 1.0000
63.4000 419.0000 1.0000
63.4100 438.0000 1.0000
63.4200 420.0000 1.0000
63.4300 436.0000 1.0000
63.4400 440.0000 1.0000
63.4500 423.0000 1.0000
63.4600 432.0000 1.0000
63.4700 417.0000 1.0000
63.4800 421.0000 1.0000
63.4900 417.0000 1.0000
63.5000 421.0000 1.0000
63.5100 448.0000 1.0000
63.5200 444.0000 1.0000
63.5300 410.0000 1.0000
63.5400 405.0000 1.0000
63.5500 380.0000 1.0000
63.5600 414.0000 1.0000
63.5700 416.0000 1.0000
63.5800 444.0000 1.0000
63.5900 421.0000 1.0000
63.6000 428.0000 1.0000
63.6100 414.0000 1.0000
63.6200 463.0000 1.0000
63.6300 424.0000 1.0000
63.6400 445.0000 1.0000
63.6500 424.0000 1.0000
63.6600 424.0000 1.0000
63.6700 436.0000 1.0000
63.6800 449.0000 1.0000
63.6900 445.0000 1.0000
63.7000 419.0000 1.0000
63.7100 422.0000 1.0000
63.7200 435.0000 1.0000
63.7300 440.0000 1.0000
63.7400 470.0000 1.0000
63.7500 423.0000 1.0000
63.7600 465.0000 1.0000
63.7700 473.0000 1.0000
63.7800 474.0000 1.0000
63.7900 450.0000 1.0000
63.8000 462.0000 1.0000
63.8100 472.0000 1.0000
63.8200 479.0000 1.0000
63.8300 476.0000 1.0000
63.8400 479.0000 1.0000
63.8500 452.0000 1.0000
63.8600 463.0000 1.0000
63.8700 504.0000 1.0000
63.8800 538.0000 1.0000
63.8900 513.0000 1.0000
63.9000 550.0000 1.0000
63.9100 544.0000 1.0000
63.9200 541.0000 1.0000
63.9300 534.0000 1.0000
63.9400 567.0000 1.0000
63.9500 586.0000 1.0000
63.9600 550.0000 1.0000
63.9700 571.0000 1.0000
63.9800 545.0000 1.0000
63.9900 564.0000 1.0000
64.0000 546.0000 1.0000
64.0100 549.0000 1.0000
64.0200 526.0000 1.0000
64.0300 553.0000 1.0000
64.0400 546.0000 1.0000
64.0500 496.0000 1.0000
64.0600 508.0000 1.0000
64.0700 507.0000 1.0000
64.0800 498.0000 1.0000
64.0900 499.0000 1.0000
64.1000 548.0000 1.0000
64.1100 512.0000 1.0000
64.1200 528.0000 1.0000
64.1300 547.0000 1.0000
64.1400 522.0000 1.0000
64.1500 521.0000 1.0000
64.1600 494.0000 1.0000
64.1700 521.0000 1.0000
64.1800 494.0000 1.0000
64.1900 461.0000 1.0000
64.2000 459.0000 1.0000
64.2100 440.0000 1.0000
64.2200 465.0000 1.0000
64.2300 443.0000 1.0000
64.2400 504.0000 1.0000
64.2500 471.0000 1.0000
64.2600 450.0000 1.0000
64.2700 456.0000 1.0000
64.2800 458.0000 1.0000
64.2900 459.0000 1.0000
64.3000 437.0000 1.0000
64.3100 448.0000 1.0000
64.3200 437.0000 1.0000
64.3300 427.0000 1.0000
64.3400 425.0000 1.0000
64.3500 454.0000 1.0000
64.3600 443.0000 1.0000
64.3700 410.0000 1.0000
64.3800 424.0000 1.0000
64.3900 449.0000 1.0000
64.4000 411.0000 1.0000
64.4100 470.0000 1.0000
64.4200 426.0000 1.0000
64.4300 432.0000 1.0000
64.4400 433.0000 1.0000
64.4500 450.0000 1.0000
64.4600 436.0000 1.0000
64.4700 435.0000 1.0000
64.4800 450.0000 1.0000
64.4900 437.0000 1.0000
64.5000 448.0000 1.0000
64.5100 416.0000 1.0000
64.5200 425.0000 1.0000
64.5300 435.0000 1.0000
64.5400 436.0000 1.0000
64.5500 448.0000 1.0000
64.5600 429.0000 1.0000
64.5700 433.0000 1.0000
64.5800 464.0000 1.0000
64.5900 461.0000 1.0000
64.6000 446.0000 1.0000
64.6100 423.0000 1.0000
64.6200 471.0000 1.0000
64.6300 473.0000 1.0000
64.6400 434.0000 1.0000
64.6500 417.0000 1.0000
64.6600 389.0000 1.0000
64.6700 440.0000 1.0000
64.6800 441.0000 1.0000
64.6900 429.0000 1.0000
64.7000 439.0000 1.0000
64.7100 428.0000 1.0000
64.7200 377.0000 1.0000
64.7300 443.0000 1.0000
64.7400 435.0000 1.0000
64.7500 438.0000 1.0000
64.7600 436.0000 1.0000
64.7700 451.0000 1.0000
64.7800 447.0000 1.0000
64.7900 443.0000 1.0000
64.8000 420.0000 1.0000
64.8100 444.0000 1.0000
64.8200 439.0000 1.0000
64.8300 455.0000 1.0000
64.8400 447.0000 1.0000
64.8500 470.0000 1.0000
64.8600 447.0000 1.0000
64.8700 433.0000 1.0000
64.8800 444.0000 1.0000
64.8900 420.0000 1.0000
64.9000 466.0000 1.0000
64.9100 440.0000 1.0000
64.9200 449.0000 1.0000
64.9300 423.0000 1.0000
64.9400 430.0000 1.0000
64.9500 464.0000 1.0000
64.9600 430.0000 1.0000
64.9700 454.0000 1.0000
64.9800 422.0000 1.0000
64.9900 446.0000 1.0000
65.0000 457.0000 1.0000
65.0100 449.0000 1.0000
65.0200 461.0000 1.0000
65.0300 468.0000 1.0000
65.0400 482.0000 1.0000
65.0500 461.0000 1.0000
65.0600 436.0000 1.0000
65.0700 453.0000 1.0000
65.0800 494.0000 1.0000
65.0900 520.0000 1.0000
65.1000 507.0000 1.0000
65.1100 531.0000 1.0000
65.1200 501.0000 1.0000
65.1300 488.0000 1.0000
65.1400 521.0000 1.0000
65.1500 538.0000 1.0000
65.1600 508.0000 1.0000
65.1700 523.0000 1.0000
65.1800 514.0000 1.0000
65.1900 522.0000 1.0000
65.2000 550.0000 1.0000
65.2100 520.0000 1.0000
65.2200 568.0000 1.0000
65.2300 580.0000 1.0000
65.2400 566.0000 1.0000
65.2500 585.0000 1.0000
65.2600 578.0000 1.0000
65.2700 594.0000 1.0000
65.2800 622.0000 1.0000
65.2900 672.0000 1.0000
65.3000 658.0000 1.0000
65.3100 739.0000 1.0000
65.3200 742.0000 1.0000
65.3300 776.0000 1.0000
65.3400 753.0000 1.0000
65.3500 834.0000 1.0000
65.3600 845.0000 1.0000
65.3700 845.0000 1.0000
65.3800 947.0000 1.0000
65.3900 959.0000 1.0000
65.4000 1013.0000 1.0000
65.4100 1051.0000 1.0000
65.4200 1115.0000 1.0000
65.4300 1132.0000 1.0000
65.4400 1241.0000 1.0000
65.4500 1303.0000 1.0000
65.4600 1304.0000 1.0000
65.4700 1371.0000 1.0000
65.4800 1375.0000 1.0000
65.4900 1428.0000 1.0000
65.5000 1423.0000 1.0000
65.5100 1400.0000 1.0000
65.5200 1473.0000 1.0000
65.5300 1460.0000 1.0000
65.5400 1499.0000 1.0000
65.5500 1475.0000 1.0000
65.5600 1442.0000 1.0000
65.5700 1456.0000 1.0000
65.5800 1443.0000 1.0000
65.5900 1428.0000 1.0000
65.6000 1422.0000 1.0000
65.6100 1311.0000 1.0000
65.6200 1355.0000 1.0000
65.6300 1350.0000 1.0000
65.6400 1325.0000 1.0000
65.6500 1265.0000 1.0000
65.6600 1252.0000 1.0000
65.6700 1222.0000 1.0000
65.6800 1185.0000 1.0000
65.6900 1234.0000 1.0000
65.7000 1215.0000 1.0000
65.7100 1163.0000 1.0000
65.7200 1117.0000 1.0000
65.7300 1084.0000 1.0000
65.7400 1099.0000 1.0000
65.7500 1034.0000 1.0000
65.7600 978.0000 1.0000
65.7700 942.0000 1.0000
65.7800 921.0000 1.0000
65.7900 901.0000 1.0000
65.8000 791.0000 1.0000
65.8100 804.0000 1.0000
65.8200 813.0000 1.0000
65.8300 767.0000 1.0000
65.8400 716.0000 1.0000
65.8500 712.0000 1.0000
65.8600 726.0000 1.0000
65.8700 670.0000 1.0000
65.8800 663.0000 1.0000
65.8900 660.0000 1.0000
65.9000 654.0000 1.0000
65.9100 570.0000 1.0000
65.9200 604.0000 1.0000
65.9300 585.0000 1.0000
65.9400 582.0000 1.0000
65.9500 548.0000 1.0000
65.9600 532.0000 1.0000
65.9700 531.0000 1.0000
65.9800 552.0000 1.0000
65.9900 507.0000 1.0000
66.0000 528.0000 1.0000
66.0100 552.0000 1.0000
66.0200 496.0000 1.0000
66.0300 497.0000 1.0000
66.0400 480.0000 1.0000
66.0500 480.0000 1.0000
66.0600 504.0000 1.0000
66.0700 479.0000 1.0000
66.0800 431.0000 1.0000
66.0900 457.0000 1.0000
66.1000 467.0000 1.0000
66.1100 448.0000 1.0000
66.1200 459.0000 1.0000
66.1300 450.0000 1.0000
66.1400 500.0000 1.0000
66.1500 469.0000 1.0000
66.1600 435.0000 1.0000
66.1700 421.0000 1.0000
66.1800 427.0000 1.0000
66.1900 441.0000 1.0000
66.2000 438.0000 1.0000
66.2100 444.0000 1.0000
66.2200 416.0000 1.0000
66.2300 421.0000 1.0000
66.2400 437.0000 1.0000
66.2500 432.0000 1.0000
66.2600 451.0000 1.0000
66.2700 418.0000 1.0000
66.2800 399.0000 1.0000
66.2900 426.0000 1.0000
66.3000 456.0000 1.0000
66.3100 406.0000 1.0000
66.3200 434.0000 1.0000
66.3300 396.0000 1.0000
66.3400 435.0000 1.0000
66.3500 434.0000 1.0000
66.3600 434.0000 1.0000
66.3700 418.0000 1.0000
66.3800 414.0000 1.0000
66.3900 398.0000 1.0000
66.4000 417.0000 1.0000
66.4100 405.0000 1.0000
66.4200 422.0000 1.0000
66.4300 439.0000 1.0000
66.4400 409.0000 1.0000
66.4500 418.0000 1.0000
66.4600 418.0000 1.0000
66.4700 427.0000 1.0000
66.4800 399.0000 1.0000
66.4900 417.0000 1.0000
66.5000 407.0000 1.0000
66.5100 412.0000 1.0000
66.5200 376.0000 1.0000
66.5300 402.0000 1.0000
66.5400 444.0000 1.0000
66.5500 398.0000 1.0000
66.5600 368.0000 1.0000
66.5700 405.0000 1.0000
66.5800 396.0000 1.0000
66.5900 378.0000 1.0000
66.6000 364.0000 1.0000
66.6100 369.0000 1.0000
66.6200 409.0000 1.0000
66.6300 408.0000 1.0000
66.6400 428.0000 1.0000
66.6500 413.0000 1.0000
66.6600 385.0000 1.0000
66.6700 394.0000 1.0000
66.6800 412.0000 1.0000
66.6900 409.0000 1.0000
66.7000 403.0000 1.0000
66.7100 401.0000 1.0000
66.7200 391.0000 1.0000
66.7300 383.0000 1.0000
66.7400 411.0000 1.0000
66.7500 423.0000 1.0000
66.7600 389.0000 1.0000
66.7700 383.0000 1.0000
66.7800 404.0000 1.0000
66.7900 404.0000 1.0000
66.8000 377.0000 1.0000
66.8100 393.0000 1.0000
66.8200 426.0000 1.0000
66.8300 395.0000 1.0000
66.8400 406.0000 1.0000
66.8500 395.0000 1.0000
66.8600 414.0000 1.0000
66.8700 411.0000 1.0000
66.8800 390.0000 1.0000
66.8900 420.0000 1.0000
66.9000 382.0000 1.0000
66.9100 397.0000 1.0000
66.9200 400.0000 1.0000
66.9300 390.0000 1.0000
66.9400 404.0000 1.0000
66.9500 430.0000 1.0000
66.9600 382.0000 1.0000
66.9700 394.0000 1.0000
66.9800 394.0000 1.0000
66.9900 376.0000 1.0000
67.0000 380.0000 1.0000
67.0100 363.0000 1.0000
67.0200 420.0000 1.0000
67.0300 398.0000 1.0000
67.0400 411.0000 1.0000
67.0500 372.0000 1.0000
67.0600 376.0000 1.0000
67.0700 395.0000 1.0000
67.0800 378.0000 1.0000
67.0900 385.0000 1.0000
67.1000 401.0000 1.0000
67.1100 383.0000 1.0000
67.1200 420.0000 1.0000
67.1300 416.0000 1.0000
67.1400 379.0000 1.0000
67.1500 400.0000 1.0000
67.1600 416.0000 1.0000
67.1700 391.0000 1.0000
67.1800 377.0000 1.0000
67.1900 395.0000 1.0000
67.2000 406.0000 1.0000
67.2100 398.0000 1.0000
67.2200 382.0000 1.0000
67.2300 376.0000 1.0000
67.2400 375.0000 1.0000
67.2500 380.0000 1.0000
67.2600 424.0000 1.0000
67.2700 377.0000 1.0000
67.2800 397.0000 1.0000
67.2900 404.0000 1.0000
67.3000 391.0000 1.0000
67.3100 408.0000 1.0000
67.3200 418.0000 1.0000
67.3300 395.0000 1.0000
67.3400 370.0000 1.0000
67.3500 403.0000 1.0000
67.3600 398.0000 1.0000
67.3700 357.0000 1.0000
67.3800 410.0000 1.0000
67.3900 390.0000 1.0000
67.4000 394.0000 1.0000
67.4100 406.0000 1.0000
67.4200 385.0000 1.0000
67.4300 349.0000 1.0000
67.4400 385.0000 1.0000
67.4500 378.0000 1.0000
67.4600 391.0000 1.0000
67.4700 414.0000 1.0000
67.4800 364.0000 1.0000
67.4900 391.0000 1.0000
67.5000 390.0000 1.0000
67.5100 410.0000 1.0000
67.5200 371.0000 1.0000
67.5300 354.0000 1.0000
67.5400 379.0000 1.0000
67.5500 369.0000 1.0000
67.5600 351.0000 1.0000
67.5700 391.0000 1.0000
67.5800 410.0000 1.0000
67.5900 395.0000 1.0000
67.6000 376.0000 1.0000
67.6100 409.0000 1.0000
67.6200 393.0000 1.0000
67.6300 398.0000 1.0000
67.6400 378.0000 1.0000
67.6500 395.0000 1.0000
67.6600 401.0000 1.0000
67.6700 391.0000 1.0000
67.6800 388.0000 1.0000
67.6900 374.0000 1.0000
67.7000 394.0000 1.0000
67.7100 372.0000 1.0000
67.7200 382.0000 1.0000
67.7300 378.0000 1.0000
67.7400 390.0000 1.0000
67.7500 371.0000 1.0000
67.7600 383.0000 1.0000
67.7700 392.0000 1.0000
67.7800 399.0000 1.0000
67.7900 393.0000 1.0000
67.8000 395.0000 1.0000
67.8100 383.0000 1.0000
67.8200 374.0000 1.0000
67.8300 371.0000 1.0000
67.8400 382.0000 1.0000
67.8500 359.0000 1.0000
67.8600 394.0000 1.0000
67.8700 393.0000 1.0000
67.8800 379.0000 1.0000
67.8900 361.0000 1.0000
67.9000 384.0000 1.0000
67.9100 374.0000 1.0000
67.9200 393.0000 1.0000
67.9300 365.0000 1.0000
67.9400 375.0000 1.0000
67.9500 389.0000 1.0000
67.9600 412.0000 1.0000
67.9700 420.0000 1.0000
67.9800 416.0000 1.0000
67.9900 383.0000 1.0000
68.0000 367.0000 1.0000
68.0100 371.0000 1.0000
68.0200 404.0000 1.0000
68.0300 421.0000 1.0000
68.0400 391.0000 1.0000
68.0500 381.0000 1.0000
68.0600 384.0000 1.0000
68.0700 370.0000 1.0000
68.0800 359.0000 1.0000
68.0900 382.0000 1.0000
68.1000 378.0000 1.0000
68.1100 383.0000 1.0000
68.1200 366.0000 1.0000
68.1300 401.0000 1.0000
68.1400 376.0000 1.0000
68.1500 355.0000 1.0000
68.1600 362.0000 1.0000
68.1700 367.0000 1.0000
68.1800 372.0000 1.0000
68.1900 379.0000 1.0000
68.2000 358.0000 1.0000
68.2100 404.0000 1.0000
68.2200 350.0000 1.0000
68.2300 374.0000 1.0000
68.2400 390.0000 1.0000
68.2500 363.0000 1.0000
68.2600 394.0000 1.0000
68.2700 409.0000 1.0000
68.2800 379.0000 1.0000
68.2900 380.0000 1.0000
68.3000 379.0000 1.0000
68.3100 382.0000 1.0000
68.3200 376.0000 1.0000
68.3300 383.0000 1.0000
68.3400 404.0000 1.0000
68.3500 363.0000 1.0000
68.3600 364.0000 1.0000
68.3700 387.0000 1.0000
68.3800 388.0000 1.0000
68.3900 385.0000 1.0000
68.4000 347.0000 1.0000
68.4100 364.0000 1.0000
68.4200 398.0000 1.0000
68.4300 391.0000 1.0000
68.4400 337.0000 1.0000
68.4500 403.0000 1.0000
68.4600 404.0000 1.0000
68.4700 357.0000 1.0000
68.4800 379.0000 1.0000
68.4900 375.0000 1.0000
68.5000 362.0000 1.0000
68.5100 382.0000 1.0000
68.5200 368.0000 1.0000
68.5300 360.0000 1.0000
68.5400 382.0000 1.0000
68.5500 398.0000 1.0000
68.5600 397.0000 1.0000
68.5700 372.0000 1.0000
68.5800 403.0000 1.0000
68.5900 351.0000 1.0000
68.6000 376.0000 1.0000
68.6100 384.0000 1.0000
68.6200 374.0000 1.0000
68.6300 382.0000 1.0000
68.6400 404.0000 1.0000
68.6500 396.0000 1.0000
68.6600 357.0000 1.0000
68.6700 381.0000 1.0000
68.6800 376.0000 1.0000
68.6900 386.0000 1.0000
68.7000 363.0000 1.0000
68.7100 368.0000 1.0000
68.7200 389.0000 1.0000
68.7300 371.0000 1.0000
68.7400 374.0000 1.0000
68.7500 355.0000 1.0000
68.7600 361.0000 1.0000
68.7700 385.0000 1.0000
68.7800 380.0000 1.0000
68.7900 369.0000 1.0000
68.8000 399.0000 1.0000
68.8100 378.0000 1.0000
68.8200 381.0000 1.0000
68.8300 393.0000 1.0000
68.8400 410.0000 1.0000
68.8500 385.0000 1.0000
68.8600 384.0000 1.0000
68.8700 371.0000 1.0000
68.8800 369.0000 1.0000
68.8900 394.0000 1.0000
68.9000 401.0000 1.0000
68.9100 379.0000 1.0000
68.9200 399.0000 1.0000
68.9300 353.0000 1.0000
68.9400 381.0000 1.0000
68.9500 390.0000 1.0000
68.9600 401.0000 1.0000
68.9700 356.0000 1.0000
68.9800 386.0000 1.0000
68.9900 357.0000 1.0000
69.0000 382.0000 1.0000
69.0100 418.0000 1.0000
69.0200 369.0000 1.0000
69.0300 372.0000 1.0000
69.0400 351.0000 1.0000
69.0500 383.0000 1.0000
69.0600 355.0000 1.0000
69.0700 352.0000 1.0000
69.0800 345.0000 1.0000
69.0900 375.0000 1.0000
69.1000 370.0000 1.0000
69.1100 400.0000 1.0000
69.1200 350.0000 1.0000
69.1300 366.0000 1.0000
69.1400 359.0000 1.0000
69.1500 378.0000 1.0000
69.1600 355.0000 1.0000
69.1700 368.0000 1.0000
69.1800 344.0000 1.0000
69.1900 348.0000 1.0000
69.2000 376.0000 1.0000
69.2100 384.0000 1.0000
69.2200 355.0000 1.0000
69.2300 362.0000 1.0000
69.2400 398.0000 1.0000
69.2500 361.0000 1.0000
69.2600 372.0000 1.0000
69.2700 365.0000 1.0000
69.2800 368.0000 1.0000
69.2900 351.0000 1.0000
69.3000 342.0000 1.0000
69.3100 382.0000 1.0000
69.3200 370.0000 1.0000
69.3300 339.0000 1.0000
69.3400 378.0000 1.0000
69.3500 399.0000 1.0000
69.3600 392.0000 1.0000
69.3700 370.0000 1.0000
69.3800 370.0000 1.0000
69.3900 345.0000 1.0000
69.4000 378.0000 1.0000
69.4100 394.0000 1.0000
69.4200 365.0000 1.0000
69.4300 390.0000 1.0000
69.4400 384.0000 1.0000
69.4500 379.0000 1.0000
69.4600 358.0000 1.0000
69.4700 380.0000 1.0000
69.4800 389.0000 1.0000
69.4900 406.0000 1.0000
69.5000 366.0000 1.0000
69.5100 364.0000 1.0000
69.5200 347.0000 1.0000
69.5300 356.0000 1.0000
69.5400 367.0000 1.0000
69.5500 379.0000 1.0000
69.5600 353.0000 1.0000
69.5700 380.0000 1.0000
69.5800 385.0000 1.0000
69.5900 371.0000 1.0000
69.6000 353.0000 1.0000
69.6100 407.0000 1.0000
69.6200 364.0000 1.0000
69.6300 373.0000 1.0000
69.6400 364.0000 1.0000
69.6500 396.0000 1.0000
69.6600 380.0000 1.0000
69.6700 353.0000 1.0000
69.6800 369.0000 1.0000
69.6900 394.0000 1.0000
69.7000 367.0000 1.0000
69.7100 396.0000 1.0000
69.7200 383.0000 1.0000
69.7300 382.0000 1.0000
69.7400 375.0000 1.0000
69.7500 370.0000 1.0000
69.7600 384.0000 1.0000
69.7700 403.0000 1.0000
69.7800 372.0000 1.0000
69.7900 355.0000 1.0000
69.8000 388.0000 1.0000
69.8100 352.0000 1.0000
69.8200 372.0000 1.0000
69.8300 385.0000 1.0000
69.8400 336.0000 1.0000
69.8500 381.0000 1.0000
69.8600 370.0000 1.0000
69.8700 378.0000 1.0000
69.8800 380.0000 1.0000
69.8900 402.0000 1.0000
69.9000 360.0000 1.0000
69.9100 387.0000 1.0000
69.9200 366.0000 1.0000
69.9300 355.0000 1.0000
69.9400 345.0000 1.0000
69.9500 363.0000 1.0000
69.9600 347.0000 1.0000
69.9700 355.0000 1.0000
69.9800 386.0000 1.0000
69.9900 371.0000 1.0000
70.0000 362.0000 1.0000
*RAS_INT_END
*RAS_TEMPERATURE_START
*RAS_TEMPERATURE_END
*RAS_DATA_END
