*RAS_DATA_START
*RAS_HEADER_START
*DISP_FMT_X "%.2f"
*DISP_FMT_Y "%.0f"
*DISP_FULLSCALE "15196.0000000000"
*DISP_LINE_COLOR "255.0000000000"
*DISP_LINE_STYLE "0.0000000000"
*DISP_LINE_WIDTH "0.2500000000"
*DISP_NOTE "測定データ-1"
*DISP_OFFSET_Y "0.0000000000"
*DISP_PEAKSEARCH_UNIT_Y "cps"
*DISP_RANGE_BOTTOM "0.0000000000"
*DISP_RANGE_LEFT "20.0000000000"
*DISP_RANGE_LOGCUTOFF "0.0100000000"
*DISP_RANGE_RIGHT "70.0000000000"
*DISP_RANGE_TOP "15196.0000000000"
*DISP_SCALE_MODE_Y "0.0000000000"
*DISP_TAB_NAME "2θ/θ"
*DISP_TITLE_Y "強度"
*DISP_UNIT_Y "cps"
*DISP_WINDOW_NAME "MSG_MACROENGINE"
*FILE_COMMENT " "
*FILE_MD5 ""
*FILE_MEMO " "
*FILE_OPERATOR "Administrator"
*FILE_SAMPLE " "
*FILE_TYPE "RAS_RAW"
*FILE_USERGROUP "システムマネージャ"
*FILE_VERSION "1.0000000000"
*HW_ATTACHMENT_ID "ATT0025"
*HW_ATTACHMENT_NAME "標準|Standard"
*HW_COUNTER_ID-0 "CUT0025"
*HW_COUNTER_ID-1 "CUT0020"
*HW_COUNTER_ID-2 "CUT0020"
*HW_COUNTER_ID-3 "CSL0021"
*HW_COUNTER_ID-4 "CMC0021"
*HW_COUNTER_NAME-0 "D/teX Ultra|D/teX Ultra"
*HW_COUNTER_NAME-1 "None|None"
*HW_COUNTER_NAME-2 "None|None"
*HW_COUNTER_NAME-3 "BBM|BBM"
*HW_COUNTER_NAME-4 "検出器モノクロメータ|Detector monochromator"
*HW_COUNTER_SELECT_NAME "D/teX Ultra|D/teX Ultra"
*HW_GONIOMETER_ID "GON0023"
*HW_GONIOMETER_NAME "SmartLab|SmartLab"
*HW_GONIOMETER_RADIUS-0 "90.0"
*HW_GONIOMETER_RADIUS-1 "114.0"
*HW_GONIOMETER_RADIUS-2 "190.0"
*HW_GONIOMETER_RADIUS-3 "300.0"
*HW_GONIOMETER_RADIUS-4 "187.0"
*HW_GONIOMETER_RADIUS-5 "300.0"
*HW_GONIOMETER_RADIUS-6 "113.0"
*HW_GONIOMETER_RADIUS-7 "331.0"
*HW_I_OPT_ID-0 "CBO0021"
*HW_I_OPT_ID-1 "ICR0023"
*HW_I_OPT_ID-2 "ISL0021"
*HW_I_OPT_ID-3 "ISO0021"
*HW_I_OPT_ID-4 "IAD0021"
*HW_I_OPT_ID-5 "IPR0001"
*HW_I_OPT_NAME-0 "CBOユニット|CBO unit"
*HW_I_OPT_NAME-1 "標準入射光学ユニット|Standard incident optical unit"
*HW_I_OPT_NAME-2 "標準入射スリットボックス|Standard incident slit box"
*HW_I_OPT_NAME-3 "入射平行スリット|Incident parallel slit"
*HW_I_OPT_NAME-4 "長手制限スリット|Length limiting slit"
*HW_I_OPT_NAME-5 "None|None"
*HW_R_ATTENUATER_AUTOMODE "0"
*HW_R_OPT_ID-0 "RSS0021"
*HW_R_OPT_ID-1 "RCR0023"
*HW_R_OPT_ID-2 "RSO0021"
*HW_R_OPT_ID-3 "RRS0021"
*HW_R_OPT_ID-4 "ATN0021"
*HW_R_OPT_ID-5 "RFL0021"
*HW_R_OPT_ID-6 "RAD0021"
*HW_R_OPT_NAME-0 "標準受光スリットボックス1|Standard receiving slit box # 1"
*HW_R_OPT_NAME-1 "標準受光光学ユニット1|Standard receiving unit # 1"
*HW_R_OPT_NAME-2 "標準受光光学ユニット2|Standard receiving optical unit # 2"
*HW_R_OPT_NAME-3 "標準受光スリットボックス2|Standard receiving slit box # 2"
*HW_R_OPT_NAME-4 "標準アッテネータ|Standard Attenuator"
*HW_R_OPT_NAME-5 "Cu Kβ|Cu K-beta"
*HW_R_OPT_NAME-6 "調整用受光スリット|Alignment receiving slit"
*HW_SAMPLE_HOLDER_ID "SMP0023"
*HW_SAMPLE_HOLDER_NAME "標準Zステージ|Standard Z stage"
*HW_XG_CURRENT_MAX "50"
*HW_XG_CURRENT_MIN "2"
*HW_XG_CURRENT_RESOLUTION "1"
*HW_XG_CURRENT_UNIT "mA"
*HW_XG_FOCUS "1mm x 10mm"
*HW_XG_FOCUS_TYPE "Normal"
*HW_XG_ID ""
*HW_XG_NAME "3kW 封入管(ID:1200)|3kW Sealed tube(ID:1200)"
*HW_XG_TARGET_ATOMIC_NUMBER "29.0000000000"
*HW_XG_TARGET_NAME "Cu"
*HW_XG_TYPE "Hermetic"
*HW_XG_VOLTAGE_MAX "60"
*HW_XG_VOLTAGE_MIN "20"
*HW_XG_VOLTAGE_RESOLUTION "1"
*HW_XG_VOLTAGE_UNIT "kV"
*HW_XG_WATT_MAX "1.500"
*HW_XG_WATT_UNIT "kW"
*HW_XG_WAVE_LENGTH_ALPHA1 "1.540593"
*HW_XG_WAVE_LENGTH_ALPHA2 "1.544414"
*HW_XG_WAVE_LENGTH_BETA "1.392250"
*MEAS_COND_AXIS_NAME-0 "2θ/θ"
*MEAS_COND_AXIS_NAME-1 "2θ"
*MEAS_COND_AXIS_NAME-2 "ω"
*MEAS_COND_AXIS_NAME-3 "Z"
*MEAS_COND_AXIS_NAME-4 "2θ/ω"
*MEAS_COND_AXIS_NAME-5 "θs"
*MEAS_COND_AXIS_NAME-6 "θd"
*MEAS_COND_AXIS_NAME-7 "Ts"
*MEAS_COND_AXIS_NAME-8 "CBO選択スリット"
*MEAS_COND_AXIS_NAME-9 "M"
*MEAS_COND_AXIS_NAME-10 "入射平行スリット"
*MEAS_COND_AXIS_NAME-11 "入射スリット"
*MEAS_COND_AXIS_NAME-12 ""
*MEAS_COND_AXIS_NAME-13 "Zs"
*MEAS_COND_AXIS_NAME-14 "入射光学素子"
*MEAS_COND_AXIS_NAME-15 "長手制限スリット"
*MEAS_COND_AXIS_NAME-16 "センタースリット"
*MEAS_COND_AXIS_NAME-17 "フィルター"
*MEAS_COND_AXIS_NAME-18 "受光スリット1"
*MEAS_COND_AXIS_NAME-19 "受光スリット2"
*MEAS_COND_AXIS_NAME-20 "受光光学素子"
*MEAS_COND_AXIS_NAME-21 "受光平行スリット"
*MEAS_COND_AXIS_NAME-22 "調整用受光スリット"
*MEAS_COND_AXIS_NAME-23 ""
*MEAS_COND_AXIS_NAME-24 ""
*MEAS_COND_AXIS_NAME-25 "Zd"
*MEAS_COND_AXIS_NAME-26 "アッテネータ"
*MEAS_COND_AXIS_NAME-27 "検出器モノクロメータ"
*MEAS_COND_AXIS_NAME-28 "モノクロメータスリット"
*MEAS_COND_AXIS_NAME-29 "プライマリビーム"
*MEAS_COND_AXIS_NAME-30 "PHA"
*MEAS_COND_AXIS_NAME_INTERNAL-0 "TwoThetaTheta"
*MEAS_COND_AXIS_NAME_INTERNAL-1 "TwoTheta"
*MEAS_COND_AXIS_NAME_INTERNAL-2 "Omega"
*MEAS_COND_AXIS_NAME_INTERNAL-3 "Z"
*MEAS_COND_AXIS_NAME_INTERNAL-4 "TwoThetaOmega"
*MEAS_COND_AXIS_NAME_INTERNAL-5 "ThetaS"
*MEAS_COND_AXIS_NAME_INTERNAL-6 "ThetaD"
*MEAS_COND_AXIS_NAME_INTERNAL-7 "Ts"
*MEAS_COND_AXIS_NAME_INTERNAL-8 "CBO"
*MEAS_COND_AXIS_NAME_INTERNAL-9 "CBO-M"
*MEAS_COND_AXIS_NAME_INTERNAL-10 "IncidentSollerSlit"
*MEAS_COND_AXIS_NAME_INTERNAL-11 "IncidentSlitBox"
*MEAS_COND_AXIS_NAME_INTERNAL-12 "IncidentSlitBox-_Axis"
*MEAS_COND_AXIS_NAME_INTERNAL-13 "Zs"
*MEAS_COND_AXIS_NAME_INTERNAL-14 "IncidentMonochromator"
*MEAS_COND_AXIS_NAME_INTERNAL-15 "IncidentAxdSlit"
*MEAS_COND_AXIS_NAME_INTERNAL-16 "CenterSlit"
*MEAS_COND_AXIS_NAME_INTERNAL-17 "Filter"
*MEAS_COND_AXIS_NAME_INTERNAL-18 "ReceivingSlitBox1"
*MEAS_COND_AXIS_NAME_INTERNAL-19 "ReceivingSlitBox2"
*MEAS_COND_AXIS_NAME_INTERNAL-20 "ReceivingOptics"
*MEAS_COND_AXIS_NAME_INTERNAL-21 "ReceivingSollerSlit"
*MEAS_COND_AXIS_NAME_INTERNAL-22 "ReceivingAxdSlit"
*MEAS_COND_AXIS_NAME_INTERNAL-23 "ReceivingSlitBox1-_Axis"
*MEAS_COND_AXIS_NAME_INTERNAL-24 "ReceivingSlitBox2-_Axis"
*MEAS_COND_AXIS_NAME_INTERNAL-25 "ReceivingSlitBox2-Zd"
*MEAS_COND_AXIS_NAME_INTERNAL-26 "Attenuator"
*MEAS_COND_AXIS_NAME_INTERNAL-27 "CounterMonochromator"
*MEAS_COND_AXIS_NAME_INTERNAL-28 "CounterSlit"
*MEAS_COND_AXIS_NAME_INTERNAL-29 "IncidentPrimary"
*MEAS_COND_AXIS_NAME_INTERNAL-30 "PHA"
*MEAS_COND_AXIS_NAME_MAGICNO-0 "83951616.0000000000"
*MEAS_COND_AXIS_NAME_MAGICNO-1 "268632064.0000000000"
*MEAS_COND_AXIS_NAME_MAGICNO-2 "268500992.0000000000"
*MEAS_COND_AXIS_NAME_MAGICNO-3 "285278208.0000000000"
*MEAS_COND_AXIS_NAME_MAGICNO-4 "83951616.0000000000"
*MEAS_COND_AXIS_NAME_MAGICNO-5 "131072.0000000000"
*MEAS_COND_AXIS_NAME_MAGICNO-6 "131072.0000000000"
*MEAS_COND_AXIS_NAME_MAGICNO-7 "318898176.0000000000"
*MEAS_COND_AXIS_NAME_MAGICNO-8 "20971521.0000000000"
*MEAS_COND_AXIS_NAME_MAGICNO-9 "285343744.0000000000"
*MEAS_COND_AXIS_NAME_MAGICNO-10 "20971521.0000000000"
*MEAS_COND_AXIS_NAME_MAGICNO-11 "22020097.0000000000"
*MEAS_COND_AXIS_NAME_MAGICNO-12 "25165824.0000000000"
*MEAS_COND_AXIS_NAME_MAGICNO-13 "318898176.0000000000"
*MEAS_COND_AXIS_NAME_MAGICNO-14 "1.0000000000"
*MEAS_COND_AXIS_NAME_MAGICNO-15 "20971521.0000000000"
*MEAS_COND_AXIS_NAME_MAGICNO-16 "20971521.0000000000"
*MEAS_COND_AXIS_NAME_MAGICNO-17 "20971521.0000000000"
*MEAS_COND_AXIS_NAME_MAGICNO-18 "23068673.0000000000"
*MEAS_COND_AXIS_NAME_MAGICNO-19 "23068673.0000000000"
*MEAS_COND_AXIS_NAME_MAGICNO-20 "20971521.0000000000"
*MEAS_COND_AXIS_NAME_MAGICNO-21 "20971521.0000000000"
*MEAS_COND_AXIS_NAME_MAGICNO-22 "20971521.0000000000"
*MEAS_COND_AXIS_NAME_MAGICNO-23 "25165824.0000000000"
*MEAS_COND_AXIS_NAME_MAGICNO-24 "25165824.0000000000"
*MEAS_COND_AXIS_NAME_MAGICNO-25 "285343744.0000000000"
*MEAS_COND_AXIS_NAME_MAGICNO-26 "17301505.0000000000"
*MEAS_COND_AXIS_NAME_MAGICNO-27 "20971521.0000000000"
*MEAS_COND_AXIS_NAME_MAGICNO-28 "20971521.0000000000"
*MEAS_COND_AXIS_NAME_MAGICNO-29 "20971521.0000000000"
*MEAS_COND_AXIS_NAME_MAGICNO-30 "0.0000000000"
*MEAS_COND_AXIS_OFFSET-0 "-"
*MEAS_COND_AXIS_OFFSET-1 "-0.1081000000"
*MEAS_COND_AXIS_OFFSET-2 "0.3758000000"
*MEAS_COND_AXIS_OFFSET-3 "-"
*MEAS_COND_AXIS_OFFSET-4 "-"
*MEAS_COND_AXIS_OFFSET-5 "0.3758000000"
*MEAS_COND_AXIS_OFFSET-6 "-0.4839000000"
*MEAS_COND_AXIS_OFFSET-7 "-"
*MEAS_COND_AXIS_OFFSET-8 "-"
*MEAS_COND_AXIS_OFFSET-9 "-"
*MEAS_COND_AXIS_OFFSET-10 "-"
*MEAS_COND_AXIS_OFFSET-11 "-"
*MEAS_COND_AXIS_OFFSET-12 "-"
*MEAS_COND_AXIS_OFFSET-13 "-"
*MEAS_COND_AXIS_OFFSET-14 "-"
*MEAS_COND_AXIS_OFFSET-15 "-"
*MEAS_COND_AXIS_OFFSET-16 "-"
*MEAS_COND_AXIS_OFFSET-17 "-"
*MEAS_COND_AXIS_OFFSET-18 "-"
*MEAS_COND_AXIS_OFFSET-19 "-"
*MEAS_COND_AXIS_OFFSET-20 "-"
*MEAS_COND_AXIS_OFFSET-21 "-"
*MEAS_COND_AXIS_OFFSET-22 "-"
*MEAS_COND_AXIS_OFFSET-23 "-"
*MEAS_COND_AXIS_OFFSET-24 "-"
*MEAS_COND_AXIS_OFFSET-25 "-"
*MEAS_COND_AXIS_OFFSET-26 "-"
*MEAS_COND_AXIS_OFFSET-27 "-"
*MEAS_COND_AXIS_OFFSET-28 "-"
*MEAS_COND_AXIS_OFFSET-29 "-"
*MEAS_COND_AXIS_OFFSET-30 "-"
*MEAS_COND_AXIS_POSITION-0 "0.0000000000"
*MEAS_COND_AXIS_POSITION-1 "0.0000000000"
*MEAS_COND_AXIS_POSITION-2 "0.0000000000"
*MEAS_COND_AXIS_POSITION-3 "-0.5500000000"
*MEAS_COND_AXIS_POSITION-4 "0.0000000000"
*MEAS_COND_AXIS_POSITION-5 "0.0000000000"
*MEAS_COND_AXIS_POSITION-6 "0.0000000000"
*MEAS_COND_AXIS_POSITION-7 "-0.4278800000"
*MEAS_COND_AXIS_POSITION-8 "BB"
*MEAS_COND_AXIS_POSITION-9 "0.0000000000"
*MEAS_COND_AXIS_POSITION-10 "Soller_slit_5.0deg"
*MEAS_COND_AXIS_POSITION-11 "2/3deg"
*MEAS_COND_AXIS_POSITION-12 "2.2088000000"
*MEAS_COND_AXIS_POSITION-13 "-0.4140600000"
*MEAS_COND_AXIS_POSITION-14 "0.0000000000"
*MEAS_COND_AXIS_POSITION-15 "10.0mm"
*MEAS_COND_AXIS_POSITION-16 "None"
*MEAS_COND_AXIS_POSITION-17 "Cu_K-beta"
*MEAS_COND_AXIS_POSITION-18 "13.000mm"
*MEAS_COND_AXIS_POSITION-19 "13.000mm"
*MEAS_COND_AXIS_POSITION-20 "No_unit"
*MEAS_COND_AXIS_POSITION-21 "Soller_slit_5.0deg"
*MEAS_COND_AXIS_POSITION-22 "None"
*MEAS_COND_AXIS_POSITION-23 "13.0000000000"
*MEAS_COND_AXIS_POSITION-24 "13.0000000000"
*MEAS_COND_AXIS_POSITION-25 "0.0109400000"
*MEAS_COND_AXIS_POSITION-26 "Open"
*MEAS_COND_AXIS_POSITION-27 "None"
*MEAS_COND_AXIS_POSITION-28 "None"
*MEAS_COND_AXIS_POSITION-29 "None"
*MEAS_COND_AXIS_POSITION-30 "38.0000000000"
*MEAS_COND_AXIS_UNIT-0 "deg"
*MEAS_COND_AXIS_UNIT-1 "deg"
*MEAS_COND_AXIS_UNIT-2 "deg"
*MEAS_COND_AXIS_UNIT-3 "mm"
*MEAS_COND_AXIS_UNIT-4 "deg"
*MEAS_COND_AXIS_UNIT-5 "deg"
*MEAS_COND_AXIS_UNIT-6 "deg"
*MEAS_COND_AXIS_UNIT-7 "mm"
*MEAS_COND_AXIS_UNIT-8 ""
*MEAS_COND_AXIS_UNIT-9 "pulse"
*MEAS_COND_AXIS_UNIT-10 ""
*MEAS_COND_AXIS_UNIT-11 ""
*MEAS_COND_AXIS_UNIT-12 "mm"
*MEAS_COND_AXIS_UNIT-13 "mm"
*MEAS_COND_AXIS_UNIT-14 ""
*MEAS_COND_AXIS_UNIT-15 ""
*MEAS_COND_AXIS_UNIT-16 ""
*MEAS_COND_AXIS_UNIT-17 ""
*MEAS_COND_AXIS_UNIT-18 ""
*MEAS_COND_AXIS_UNIT-19 ""
*MEAS_COND_AXIS_UNIT-20 ""
*MEAS_COND_AXIS_UNIT-21 ""
*MEAS_COND_AXIS_UNIT-22 ""
*MEAS_COND_AXIS_UNIT-23 "mm"
*MEAS_COND_AXIS_UNIT-24 "mm"
*MEAS_COND_AXIS_UNIT-25 "mm"
*MEAS_COND_AXIS_UNIT-26 ""
*MEAS_COND_AXIS_UNIT-27 ""
*MEAS_COND_AXIS_UNIT-28 ""
*MEAS_COND_AXIS_UNIT-29 ""
*MEAS_COND_AXIS_UNIT-30 "div"
*MEAS_COND_COUNTER_CNTLOSS_CORR "0.0000000000"
*MEAS_COND_COUNTER_PHABASE "38.0000000000"
*MEAS_COND_COUNTER_PHAWINDOW "16.0000000000"
*MEAS_COND_COUNTER_PHA_UNIT "div"
*MEAS_COND_COUNTER_TAUDIFF "30.0000000000"
*MEAS_COND_COUNTER_TAUINT "0.0000000000"
*MEAS_COND_IRRADIATION_MODE "OFF"
*MEAS_COND_IRRADIATION_WIDTH ""
*MEAS_COND_OPT_ATTR "集中法"
*MEAS_COND_OPT_NAME "@集中法"
*MEAS_COND_UNSYMMETRIC_MODE "OFF"
*MEAS_COND_XG_CURRENT "30.0000000000"
*MEAS_COND_XG_VOLTAGE "40.0000000000"
*MEAS_COND_XG_WAVE_TYPE "Ka"
*MEAS_DATA_COUNT "5001.0000000000"
*MEAS_SCAN_AXIS_X "2θ/θ"
*MEAS_SCAN_AXIS_X_INTERNAL "TwoThetaTheta"
*MEAS_SCAN_END_TIME "07/20/21 11:19:35"
*MEAS_SCAN_MODE "CONTINUOUS"
*MEAS_SCAN_MONITOR "0"
*MEAS_SCAN_RESOLUTION_X "0.0002"
*MEAS_SCAN_SPEED "1.0"
*MEAS_SCAN_SPEED_UNIT "deg/min"
*MEAS_SCAN_START "20.0000000000"
*MEAS_SCAN_START_TIME "07/20/21 10:26:44"
*MEAS_SCAN_STEP "0.0100000000"
*MEAS_SCAN_STOP "70.0000000000"
*MEAS_SCAN_UNIT_X "deg"
*MEAS_SCAN_UNIT_Y "counts"
*RAS_HEADER_END
*RAS_INT_START
20.0000 1609.0000 1.0000
20.0100 1666.0000 1.0000
20.0200 1657.0000 1.0000
20.0300 1661.0000 1.0000
20.0400 1661.0000 1.0000
20.0500 1635.0000 1.0000
20.0600 1655.0000 1.0000
20.0700 1629.0000 1.0000
20.0800 1674.0000 1.0000
20.0900 1615.0000 1.0000
20.1000 1623.0000 1.0000
20.1100 1580.0000 1.0000
20.1200 1675.0000 1.0000
20.1300 1582.0000 1.0000
20.1400 1649.0000 1.0000
20.1500 1699.0000 1.0000
20.1600 1639.0000 1.0000
20.1700 1628.0000 1.0000
20.1800 1579.0000 1.0000
20.1900 1534.0000 1.0000
20.2000 1638.0000 1.0000
20.2100 1634.0000 1.0000
20.2200 1575.0000 1.0000
20.2300 1625.0000 1.0000
20.2400 1645.0000 1.0000
20.2500 1655.0000 1.0000
20.2600 1563.0000 1.0000
20.2700 1634.0000 1.0000
20.2800 1661.0000 1.0000
20.2900 1681.0000 1.0000
20.3000 1669.0000 1.0000
20.3100 1754.0000 1.0000
20.3200 1716.0000 1.0000
20.3300 1655.0000 1.0000
20.3400 1619.0000 1.0000
20.3500 1619.0000 1.0000
20.3600 1621.0000 1.0000
20.3700 1660.0000 1.0000
20.3800 1647.0000 1.0000
20.3900 1643.0000 1.0000
20.4000 1630.0000 1.0000
20.4100 1678.0000 1.0000
20.4200 1684.0000 1.0000
20.4300 1698.0000 1.0000
20.4400 1643.0000 1.0000
20.4500 1593.0000 1.0000
20.4600 1598.0000 1.0000
20.4700 1695.0000 1.0000
20.4800 1602.0000 1.0000
20.4900 1622.0000 1.0000
20.5000 1668.0000 1.0000
20.5100 1603.0000 1.0000
20.5200 1658.0000 1.0000
20.5300 1671.0000 1.0000
20.5400 1655.0000 1.0000
20.5500 1666.0000 1.0000
20.5600 1616.0000 1.0000
20.5700 1589.0000 1.0000
20.5800 1681.0000 1.0000
20.5900 1614.0000 1.0000
20.6000 1624.0000 1.0000
20.6100 1670.0000 1.0000
20.6200 1589.0000 1.0000
20.6300 1654.0000 1.0000
20.6400 1651.0000 1.0000
20.6500 1655.0000 1.0000
20.6600 1626.0000 1.0000
20.6700 1577.0000 1.0000
20.6800 1599.0000 1.0000
20.6900 1590.0000 1.0000
20.7000 1653.0000 1.0000
20.7100 1651.0000 1.0000
20.7200 1631.0000 1.0000
20.7300 1639.0000 1.0000
20.7400 1611.0000 1.0000
20.7500 1639.0000 1.0000
20.7600 1605.0000 1.0000
20.7700 1601.0000 1.0000
20.7800 1679.0000 1.0000
20.7900 1575.0000 1.0000
20.8000 1612.0000 1.0000
20.8100 1691.0000 1.0000
20.8200 1704.0000 1.0000
20.8300 1638.0000 1.0000
20.8400 1629.0000 1.0000
20.8500 1684.0000 1.0000
20.8600 1642.0000 1.0000
20.8700 1588.0000 1.0000
20.8800 1630.0000 1.0000
20.8900 1617.0000 1.0000
20.9000 1595.0000 1.0000
20.9100 1629.0000 1.0000
20.9200 1696.0000 1.0000
20.9300 1677.0000 1.0000
20.9400 1590.0000 1.0000
20.9500 1637.0000 1.0000
20.9600 1635.0000 1.0000
20.9700 1629.0000 1.0000
20.9800 1588.0000 1.0000
20.9900 1636.0000 1.0000
21.0000 1648.0000 1.0000
21.0100 1714.0000 1.0000
21.0200 1619.0000 1.0000
21.0300 1632.0000 1.0000
21.0400 1613.0000 1.0000
21.0500 1576.0000 1.0000
21.0600 1641.0000 1.0000
21.0700 1620.0000 1.0000
21.0800 1647.0000 1.0000
21.0900 1653.0000 1.0000
21.1000 1670.0000 1.0000
21.1100 1638.0000 1.0000
21.1200 1665.0000 1.0000
21.1300 1633.0000 1.0000
21.1400 1705.0000 1.0000
21.1500 1626.0000 1.0000
21.1600 1618.0000 1.0000
21.1700 1691.0000 1.0000
21.1800 1620.0000 1.0000
21.1900 1582.0000 1.0000
21.2000 1691.0000 1.0000
21.2100 1657.0000 1.0000
21.2200 1668.0000 1.0000
21.2300 1645.0000 1.0000
21.2400 1640.0000 1.0000
21.2500 1622.0000 1.0000
21.2600 1677.0000 1.0000
21.2700 1732.0000 1.0000
21.2800 1615.0000 1.0000
21.2900 1599.0000 1.0000
21.3000 1560.0000 1.0000
21.3100 1705.0000 1.0000
21.3200 1633.0000 1.0000
21.3300 1631.0000 1.0000
21.3400 1591.0000 1.0000
21.3500 1704.0000 1.0000
21.3600 1757.0000 1.0000
21.3700 1658.0000 1.0000
21.3800 1611.0000 1.0000
21.3900 1637.0000 1.0000
21.4000 1624.0000 1.0000
21.4100 1676.0000 1.0000
21.4200 1728.0000 1.0000
21.4300 1646.0000 1.0000
21.4400 1653.0000 1.0000
21.4500 1651.0000 1.0000
21.4600 1654.0000 1.0000
21.4700 1570.0000 1.0000
21.4800 1622.0000 1.0000
21.4900 1597.0000 1.0000
21.5000 1665.0000 1.0000
21.5100 1696.0000 1.0000
21.5200 1619.0000 1.0000
21.5300 1610.0000 1.0000
21.5400 1620.0000 1.0000
21.5500 1628.0000 1.0000
21.5600 1663.0000 1.0000
21.5700 1658.0000 1.0000
21.5800 1683.0000 1.0000
21.5900 1626.0000 1.0000
21.6000 1673.0000 1.0000
21.6100 1546.0000 1.0000
21.6200 1588.0000 1.0000
21.6300 1610.0000 1.0000
21.6400 1634.0000 1.0000
21.6500 1660.0000 1.0000
21.6600 1626.0000 1.0000
21.6700 1639.0000 1.0000
21.6800 1709.0000 1.0000
21.6900 1665.0000 1.0000
21.7000 1592.0000 1.0000
21.7100 1618.0000 1.0000
21.7200 1597.0000 1.0000
21.7300 1659.0000 1.0000
21.7400 1619.0000 1.0000
21.7500 1646.0000 1.0000
21.7600 1641.0000 1.0000
21.7700 1616.0000 1.0000
21.7800 1648.0000 1.0000
21.7900 1643.0000 1.0000
21.8000 1622.0000 1.0000
21.8100 1650.0000 1.0000
21.8200 1643.0000 1.0000
21.8300 1687.0000 1.0000
21.8400 1659.0000 1.0000
21.8500 1673.0000 1.0000
21.8600 1686.0000 1.0000
21.8700 1633.0000 1.0000
21.8800 1687.0000 1.0000
21.8900 1743.0000 1.0000
21.9000 1668.0000 1.0000
21.9100 1692.0000 1.0000
21.9200 1653.0000 1.0000
21.9300 1632.0000 1.0000
21.9400 1591.0000 1.0000
21.9500 1660.0000 1.0000
21.9600 1695.0000 1.0000
21.9700 1670.0000 1.0000
21.9800 1675.0000 1.0000
21.9900 1704.0000 1.0000
22.0000 1648.0000 1.0000
22.0100 1667.0000 1.0000
22.0200 1639.0000 1.0000
22.0300 1644.0000 1.0000
22.0400 1654.0000 1.0000
22.0500 1708.0000 1.0000
22.0600 1605.0000 1.0000
22.0700 1637.0000 1.0000
22.0800 1661.0000 1.0000
22.0900 1690.0000 1.0000
22.1000 1652.0000 1.0000
22.1100 1578.0000 1.0000
22.1200 1668.0000 1.0000
22.1300 1692.0000 1.0000
22.1400 1640.0000 1.0000
22.1500 1616.0000 1.0000
22.1600 1684.0000 1.0000
22.1700 1667.0000 1.0000
22.1800 1658.0000 1.0000
22.1900 1723.0000 1.0000
22.2000 1628.0000 1.0000
22.2100 1598.0000 1.0000
22.2200 1667.0000 1.0000
22.2300 1688.0000 1.0000
22.2400 1680.0000 1.0000
22.2500 1690.0000 1.0000
22.2600 1690.0000 1.0000
22.2700 1675.0000 1.0000
22.2800 1679.0000 1.0000
22.2900 1643.0000 1.0000
22.3000 1666.0000 1.0000
22.3100 1635.0000 1.0000
22.3200 1708.0000 1.0000
22.3300 1686.0000 1.0000
22.3400 1724.0000 1.0000
22.3500 1642.0000 1.0000
22.3600 1679.0000 1.0000
22.3700 1620.0000 1.0000
22.3800 1659.0000 1.0000
22.3900 1675.0000 1.0000
22.4000 1662.0000 1.0000
22.4100 1688.0000 1.0000
22.4200 1646.0000 1.0000
22.4300 1697.0000 1.0000
22.4400 1684.0000 1.0000
22.4500 1693.0000 1.0000
22.4600 1653.0000 1.0000
22.4700 1692.0000 1.0000
22.4800 1660.0000 1.0000
22.4900 1724.0000 1.0000
22.5000 1601.0000 1.0000
22.5100 1677.0000 1.0000
22.5200 1733.0000 1.0000
22.5300 1731.0000 1.0000
22.5400 1696.0000 1.0000
22.5500 1598.0000 1.0000
22.5600 1698.0000 1.0000
22.5700 1671.0000 1.0000
22.5800 1662.0000 1.0000
22.5900 1641.0000 1.0000
22.6000 1665.0000 1.0000
22.6100 1655.0000 1.0000
22.6200 1707.0000 1.0000
22.6300 1641.0000 1.0000
22.6400 1709.0000 1.0000
22.6500 1658.0000 1.0000
22.6600 1687.0000 1.0000
22.6700 1616.0000 1.0000
22.6800 1685.0000 1.0000
22.6900 1677.0000 1.0000
22.7000 1742.0000 1.0000
22.7100 1652.0000 1.0000
22.7200 1687.0000 1.0000
22.7300 1667.0000 1.0000
22.7400 1738.0000 1.0000
22.7500 1687.0000 1.0000
22.7600 1704.0000 1.0000
22.7700 1665.0000 1.0000
22.7800 1669.0000 1.0000
22.7900 1679.0000 1.0000
22.8000 1610.0000 1.0000
22.8100 1715.0000 1.0000
22.8200 1658.0000 1.0000
22.8300 1645.0000 1.0000
22.8400 1677.0000 1.0000
22.8500 1664.0000 1.0000
22.8600 1699.0000 1.0000
22.8700 1626.0000 1.0000
22.8800 1661.0000 1.0000
22.8900 1705.0000 1.0000
22.9000 1625.0000 1.0000
22.9100 1673.0000 1.0000
22.9200 1680.0000 1.0000
22.9300 1697.0000 1.0000
22.9400 1744.0000 1.0000
22.9500 1661.0000 1.0000
22.9600 1638.0000 1.0000
22.9700 1653.0000 1.0000
22.9800 1679.0000 1.0000
22.9900 1718.0000 1.0000
23.0000 1672.0000 1.0000
23.0100 1723.0000 1.0000
23.0200 1728.0000 1.0000
23.0300 1668.0000 1.0000
23.0400 1701.0000 1.0000
23.0500 1658.0000 1.0000
23.0600 1649.0000 1.0000
23.0700 1716.0000 1.0000
23.0800 1748.0000 1.0000
23.0900 1687.0000 1.0000
23.1000 1709.0000 1.0000
23.1100 1648.0000 1.0000
23.1200 1667.0000 1.0000
23.1300 1651.0000 1.0000
23.1400 1642.0000 1.0000
23.1500 1683.0000 1.0000
23.1600 1767.0000 1.0000
23.1700 1681.0000 1.0000
23.1800 1701.0000 1.0000
23.1900 1664.0000 1.0000
23.2000 1714.0000 1.0000
23.2100 1679.0000 1.0000
23.2200 1678.0000 1.0000
23.2300 1744.0000 1.0000
23.2400 1626.0000 1.0000
23.2500 1667.0000 1.0000
23.2600 1731.0000 1.0000
23.2700 1712.0000 1.0000
23.2800 1726.0000 1.0000
23.2900 1674.0000 1.0000
23.3000 1734.0000 1.0000
23.3100 1698.0000 1.0000
23.3200 1709.0000 1.0000
23.3300 1660.0000 1.0000
23.3400 1705.0000 1.0000
23.3500 1671.0000 1.0000
23.3600 1660.0000 1.0000
23.3700 1716.0000 1.0000
23.3800 1675.0000 1.0000
23.3900 1661.0000 1.0000
23.4000 1706.0000 1.0000
23.4100 1679.0000 1.0000
23.4200 1670.0000 1.0000
23.4300 1723.0000 1.0000
23.4400 1699.0000 1.0000
23.4500 1618.0000 1.0000
23.4600 1661.0000 1.0000
23.4700 1735.0000 1.0000
23.4800 1740.0000 1.0000
23.4900 1708.0000 1.0000
23.5000 1657.0000 1.0000
23.5100 1701.0000 1.0000
23.5200 1705.0000 1.0000
23.5300 1673.0000 1.0000
23.5400 1676.0000 1.0000
23.5500 1678.0000 1.0000
23.5600 1703.0000 1.0000
23.5700 1694.0000 1.0000
23.5800 1693.0000 1.0000
23.5900 1712.0000 1.0000
23.6000 1738.0000 1.0000
23.6100 1726.0000 1.0000
23.6200 1677.0000 1.0000
23.6300 1659.0000 1.0000
23.6400 1684.0000 1.0000
23.6500 1682.0000 1.0000
23.6600 1716.0000 1.0000
23.6700 1662.0000 1.0000
23.6800 1692.0000 1.0000
23.6900 1737.0000 1.0000
23.7000 1681.0000 1.0000
23.7100 1706.0000 1.0000
23.7200 1584.0000 1.0000
23.7300 1686.0000 1.0000
23.7400 1626.0000 1.0000
23.7500 1734.0000 1.0000
23.7600 1792.0000 1.0000
23.7700 1756.0000 1.0000
23.7800 1680.0000 1.0000
23.7900 1671.0000 1.0000
23.8000 1672.0000 1.0000
23.8100 1670.0000 1.0000
23.8200 1713.0000 1.0000
23.8300 1693.0000 1.0000
23.8400 1689.0000 1.0000
23.8500 1669.0000 1.0000
23.8600 1668.0000 1.0000
23.8700 1763.0000 1.0000
23.8800 1674.0000 1.0000
23.8900 1667.0000 1.0000
23.9000 1739.0000 1.0000
23.9100 1744.0000 1.0000
23.9200 1762.0000 1.0000
23.9300 1664.0000 1.0000
23.9400 1702.0000 1.0000
23.9500 1756.0000 1.0000
23.9600 1706.0000 1.0000
23.9700 1723.0000 1.0000
23.9800 1684.0000 1.0000
23.9900 1667.0000 1.0000
24.0000 1722.0000 1.0000
24.0100 1689.0000 1.0000
24.0200 1691.0000 1.0000
24.0300 1674.0000 1.0000
24.0400 1699.0000 1.0000
24.0500 1711.0000 1.0000
24.0600 1711.0000 1.0000
24.0700 1693.0000 1.0000
24.0800 1705.0000 1.0000
24.0900 1709.0000 1.0000
24.1000 1720.0000 1.0000
24.1100 1676.0000 1.0000
24.1200 1732.0000 1.0000
24.1300 1678.0000 1.0000
24.1400 1691.0000 1.0000
24.1500 1661.0000 1.0000
24.1600 1721.0000 1.0000
24.1700 1719.0000 1.0000
24.1800 1712.0000 1.0000
24.1900 1770.0000 1.0000
24.2000 1777.0000 1.0000
24.2100 1701.0000 1.0000
24.2200 1641.0000 1.0000
24.2300 1728.0000 1.0000
24.2400 1697.0000 1.0000
24.2500 1668.0000 1.0000
24.2600 1729.0000 1.0000
24.2700 1651.0000 1.0000
24.2800 1691.0000 1.0000
24.2900 1702.0000 1.0000
24.3000 1691.0000 1.0000
24.3100 1687.0000 1.0000
24.3200 1737.0000 1.0000
24.3300 1760.0000 1.0000
24.3400 1714.0000 1.0000
24.3500 1684.0000 1.0000
24.3600 1678.0000 1.0000
24.3700 1708.0000 1.0000
24.3800 1779.0000 1.0000
24.3900 1704.0000 1.0000
24.4000 1663.0000 1.0000
24.4100 1711.0000 1.0000
24.4200 1672.0000 1.0000
24.4300 1686.0000 1.0000
24.4400 1657.0000 1.0000
24.4500 1670.0000 1.0000
24.4600 1704.0000 1.0000
24.4700 1644.0000 1.0000
24.4800 1713.0000 1.0000
24.4900 1715.0000 1.0000
24.5000 1709.0000 1.0000
24.5100 1741.0000 1.0000
24.5200 1726.0000 1.0000
24.5300 1633.0000 1.0000
24.5400 1686.0000 1.0000
24.5500 1775.0000 1.0000
24.5600 1818.0000 1.0000
24.5700 1709.0000 1.0000
24.5800 1685.0000 1.0000
24.5900 1731.0000 1.0000
24.6000 1757.0000 1.0000
24.6100 1801.0000 1.0000
24.6200 1769.0000 1.0000
24.6300 1751.0000 1.0000
24.6400 1834.0000 1.0000
24.6500 1834.0000 1.0000
24.6600 1689.0000 1.0000
24.6700 1729.0000 1.0000
24.6800 1790.0000 1.0000
24.6900 1760.0000 1.0000
24.7000 1724.0000 1.0000
24.7100 1723.0000 1.0000
24.7200 1808.0000 1.0000
24.7300 1783.0000 1.0000
24.7400 1787.0000 1.0000
24.7500 1772.0000 1.0000
24.7600 1738.0000 1.0000
24.7700 1751.0000 1.0000
24.7800 1778.0000 1.0000
24.7900 1719.0000 1.0000
24.8000 1793.0000 1.0000
24.8100 1761.0000 1.0000
24.8200 1740.0000 1.0000
24.8300 1756.0000 1.0000
24.8400 1748.0000 1.0000
24.8500 1722.0000 1.0000
24.8600 1733.0000 1.0000
24.8700 1795.0000 1.0000
24.8800 1805.0000 1.0000
24.8900 1774.0000 1.0000
24.9000 1717.0000 1.0000
24.9100 1703.0000 1.0000
24.9200 1744.0000 1.0000
24.9300 1769.0000 1.0000
24.9400 1842.0000 1.0000
24.9500 1789.0000 1.0000
24.9600 1754.0000 1.0000
24.9700 1738.0000 1.0000
24.9800 1713.0000 1.0000
24.9900 1763.0000 1.0000
25.0000 1744.0000 1.0000
25.0100 1784.0000 1.0000
25.0200 1788.0000 1.0000
25.0300 1811.0000 1.0000
25.0400 1742.0000 1.0000
25.0500 1773.0000 1.0000
25.0600 1768.0000 1.0000
25.0700 1807.0000 1.0000
25.0800 1775.0000 1.0000
25.0900 1812.0000 1.0000
25.1000 1791.0000 1.0000
25.1100 1837.0000 1.0000
25.1200 1813.0000 1.0000
25.1300 1786.0000 1.0000
25.1400 1779.0000 1.0000
25.1500 1781.0000 1.0000
25.1600 1782.0000 1.0000
25.1700 1847.0000 1.0000
25.1800 1780.0000 1.0000
25.1900 1800.0000 1.0000
25.2000 1773.0000 1.0000
25.2100 1827.0000 1.0000
25.2200 1784.0000 1.0000
25.2300 1761.0000 1.0000
25.2400 1779.0000 1.0000
25.2500 1817.0000 1.0000
25.2600 1714.0000 1.0000
25.2700 1792.0000 1.0000
25.2800 1835.0000 1.0000
25.2900 1803.0000 1.0000
25.3000 1770.0000 1.0000
25.3100 1684.0000 1.0000
25.3200 1736.0000 1.0000
25.3300 1791.0000 1.0000
25.3400 1753.0000 1.0000
25.3500 1769.0000 1.0000
25.3600 1776.0000 1.0000
25.3700 1711.0000 1.0000
25.3800 1745.0000 1.0000
25.3900 1751.0000 1.0000
25.4000 1777.0000 1.0000
25.4100 1739.0000 1.0000
25.4200 1742.0000 1.0000
25.4300 1812.0000 1.0000
25.4400 1760.0000 1.0000
25.4500 1670.0000 1.0000
25.4600 1741.0000 1.0000
25.4700 1726.0000 1.0000
25.4800 1792.0000 1.0000
25.4900 1745.0000 1.0000
25.5000 1733.0000 1.0000
25.5100 1816.0000 1.0000
25.5200 1753.0000 1.0000
25.5300 1724.0000 1.0000
25.5400 1730.0000 1.0000
25.5500 1669.0000 1.0000
25.5600 1785.0000 1.0000
25.5700 1806.0000 1.0000
25.5800 1844.0000 1.0000
25.5900 1780.0000 1.0000
25.6000 1773.0000 1.0000
25.6100 1665.0000 1.0000
25.6200 1708.0000 1.0000
25.6300 1725.0000 1.0000
25.6400 1758.0000 1.0000
25.6500 1748.0000 1.0000
25.6600 1747.0000 1.0000
25.6700 1741.0000 1.0000
25.6800 1801.0000 1.0000
25.6900 1794.0000 1.0000
25.7000 1769.0000 1.0000
25.7100 1753.0000 1.0000
25.7200 1774.0000 1.0000
25.7300 1722.0000 1.0000
25.7400 1739.0000 1.0000
25.7500 1802.0000 1.0000
25.7600 1826.0000 1.0000
25.7700 1762.0000 1.0000
25.7800 1721.0000 1.0000
25.7900 1760.0000 1.0000
25.8000 1739.0000 1.0000
25.8100 1781.0000 1.0000
25.8200 1738.0000 1.0000
25.8300 1746.0000 1.0000
25.8400 1773.0000 1.0000
25.8500 1745.0000 1.0000
25.8600 1729.0000 1.0000
25.8700 1714.0000 1.0000
25.8800 1783.0000 1.0000
25.8900 1727.0000 1.0000
25.9000 1722.0000 1.0000
25.9100 1694.0000 1.0000
25.9200 1641.0000 1.0000
25.9300 1678.0000 1.0000
25.9400 1702.0000 1.0000
25.9500 1691.0000 1.0000
25.9600 1724.0000 1.0000
25.9700 1739.0000 1.0000
25.9800 1775.0000 1.0000
25.9900 1759.0000 1.0000
26.0000 1787.0000 1.0000
26.0100 1793.0000 1.0000
26.0200 1773.0000 1.0000
26.0300 1800.0000 1.0000
26.0400 1758.0000 1.0000
26.0500 1716.0000 1.0000
26.0600 1778.0000 1.0000
26.0700 1822.0000 1.0000
26.0800 1785.0000 1.0000
26.0900 1738.0000 1.0000
26.1000 1753.0000 1.0000
26.1100 1796.0000 1.0000
26.1200 1808.0000 1.0000
26.1300 1769.0000 1.0000
26.1400 1735.0000 1.0000
26.1500 1767.0000 1.0000
26.1600 1794.0000 1.0000
26.1700 1676.0000 1.0000
26.1800 1690.0000 1.0000
26.1900 1760.0000 1.0000
26.2000 1736.0000 1.0000
26.2100 1750.0000 1.0000
26.2200 1778.0000 1.0000
26.2300 1740.0000 1.0000
26.2400 1629.0000 1.0000
26.2500 1781.0000 1.0000
26.2600 1779.0000 1.0000
26.2700 1763.0000 1.0000
26.2800 1742.0000 1.0000
26.2900 1701.0000 1.0000
26.3000 1785.0000 1.0000
26.3100 1773.0000 1.0000
26.3200 1800.0000 1.0000
26.3300 1759.0000 1.0000
26.3400 1740.0000 1.0000
26.3500 1787.0000 1.0000
26.3600 1824.0000 1.0000
26.3700 1815.0000 1.0000
26.3800 1870.0000 1.0000
26.3900 1804.0000 1.0000
26.4000 1803.0000 1.0000
26.4100 1735.0000 1.0000
26.4200 1847.0000 1.0000
26.4300 1780.0000 1.0000
26.4400 1839.0000 1.0000
26.4500 1835.0000 1.0000
26.4600 1801.0000 1.0000
26.4700 1848.0000 1.0000
26.4800 1794.0000 1.0000
26.4900 1810.0000 1.0000
26.5000 1857.0000 1.0000
26.5100 1767.0000 1.0000
26.5200 1807.0000 1.0000
26.5300 1794.0000 1.0000
26.5400 1788.0000 1.0000
26.5500 1811.0000 1.0000
26.5600 1825.0000 1.0000
26.5700 1816.0000 1.0000
26.5800 1783.0000 1.0000
26.5900 1786.0000 1.0000
26.6000 1934.0000 1.0000
26.6100 1902.0000 1.0000
26.6200 1891.0000 1.0000
26.6300 1822.0000 1.0000
26.6400 1848.0000 1.0000
26.6500 1818.0000 1.0000
26.6600 1877.0000 1.0000
26.6700 1841.0000 1.0000
26.6800 1854.0000 1.0000
26.6900 1855.0000 1.0000
26.7000 1854.0000 1.0000
26.7100 1906.0000 1.0000
26.7200 1837.0000 1.0000
26.7300 1859.0000 1.0000
26.7400 1936.0000 1.0000
26.7500 1893.0000 1.0000
26.7600 1903.0000 1.0000
26.7700 1927.0000 1.0000
26.7800 1833.0000 1.0000
26.7900 1910.0000 1.0000
26.8000 1990.0000 1.0000
26.8100 1944.0000 1.0000
26.8200 2020.0000 1.0000
26.8300 2002.0000 1.0000
26.8400 1934.0000 1.0000
26.8500 1999.0000 1.0000
26.8600 2054.0000 1.0000
26.8700 2021.0000 1.0000
26.8800 2021.0000 1.0000
26.8900 2050.0000 1.0000
26.9000 2082.0000 1.0000
26.9100 2070.0000 1.0000
26.9200 2087.0000 1.0000
26.9300 2144.0000 1.0000
26.9400 2156.0000 1.0000
26.9500 2206.0000 1.0000
26.9600 2292.0000 1.0000
26.9700 2334.0000 1.0000
26.9800 2309.0000 1.0000
26.9900 2329.0000 1.0000
27.0000 2461.0000 1.0000
27.0100 2505.0000 1.0000
27.0200 2560.0000 1.0000
27.0300 2583.0000 1.0000
27.0400 2682.0000 1.0000
27.0500 2770.0000 1.0000
27.0600 2796.0000 1.0000
27.0700 2930.0000 1.0000
27.0800 3069.0000 1.0000
27.0900 3140.0000 1.0000
27.1000 3208.0000 1.0000
27.1100 3388.0000 1.0000
27.1200 3551.0000 1.0000
27.1300 3761.0000 1.0000
27.1400 3928.0000 1.0000
27.1500 4039.0000 1.0000
27.1600 4285.0000 1.0000
27.1700 4550.0000 1.0000
27.1800 4730.0000 1.0000
27.1900 5090.0000 1.0000
27.2000 5438.0000 1.0000
27.2100 5645.0000 1.0000
27.2200 5943.0000 1.0000
27.2300 6123.0000 1.0000
27.2400 6517.0000 1.0000
27.2500 6673.0000 1.0000
27.2600 6961.0000 1.0000
27.2700 7069.0000 1.0000
27.2800 7062.0000 1.0000
27.2900 7015.0000 1.0000
27.3000 7012.0000 1.0000
27.3100 6688.0000 1.0000
27.3200 6614.0000 1.0000
27.3300 6444.0000 1.0000
27.3400 6084.0000 1.0000
27.3500 5798.0000 1.0000
27.3600 5405.0000 1.0000
27.3700 5256.0000 1.0000
27.3800 5064.0000 1.0000
27.3900 4653.0000 1.0000
27.4000 4337.0000 1.0000
27.4100 4207.0000 1.0000
27.4200 4032.0000 1.0000
27.4300 3794.0000 1.0000
27.4400 3649.0000 1.0000
27.4500 3418.0000 1.0000
27.4600 3378.0000 1.0000
27.4700 3257.0000 1.0000
27.4800 3083.0000 1.0000
27.4900 2935.0000 1.0000
27.5000 2829.0000 1.0000
27.5100 2782.0000 1.0000
27.5200 2621.0000 1.0000
27.5300 2658.0000 1.0000
27.5400 2498.0000 1.0000
27.5500 2496.0000 1.0000
27.5600 2489.0000 1.0000
27.5700 2471.0000 1.0000
27.5800 2311.0000 1.0000
27.5900 2249.0000 1.0000
27.6000 2200.0000 1.0000
27.6100 2149.0000 1.0000
27.6200 2193.0000 1.0000
27.6300 2075.0000 1.0000
27.6400 2140.0000 1.0000
27.6500 2047.0000 1.0000
27.6600 2119.0000 1.0000
27.6700 2118.0000 1.0000
27.6800 2018.0000 1.0000
27.6900 1951.0000 1.0000
27.7000 2011.0000 1.0000
27.7100 1945.0000 1.0000
27.7200 1943.0000 1.0000
27.7300 1949.0000 1.0000
27.7400 1852.0000 1.0000
27.7500 1908.0000 1.0000
27.7600 1922.0000 1.0000
27.7700 1821.0000 1.0000
27.7800 1818.0000 1.0000
27.7900 1815.0000 1.0000
27.8000 1859.0000 1.0000
27.8100 1838.0000 1.0000
27.8200 1833.0000 1.0000
27.8300 1794.0000 1.0000
27.8400 1725.0000 1.0000
27.8500 1784.0000 1.0000
27.8600 1830.0000 1.0000
27.8700 1784.0000 1.0000
27.8800 1805.0000 1.0000
27.8900 1786.0000 1.0000
27.9000 1798.0000 1.0000
27.9100 1771.0000 1.0000
27.9200 1706.0000 1.0000
27.9300 1767.0000 1.0000
27.9400 1780.0000 1.0000
27.9500 1782.0000 1.0000
27.9600 1709.0000 1.0000
27.9700 1743.0000 1.0000
27.9800 1684.0000 1.0000
27.9900 1739.0000 1.0000
28.0000 1689.0000 1.0000
28.0100 1800.0000 1.0000
28.0200 1708.0000 1.0000
28.0300 1700.0000 1.0000
28.0400 1689.0000 1.0000
28.0500 1712.0000 1.0000
28.0600 1713.0000 1.0000
28.0700 1648.0000 1.0000
28.0800 1668.0000 1.0000
28.0900 1774.0000 1.0000
28.1000 1675.0000 1.0000
28.1100 1671.0000 1.0000
28.1200 1687.0000 1.0000
28.1300 1701.0000 1.0000
28.1400 1641.0000 1.0000
28.1500 1654.0000 1.0000
28.1600 1664.0000 1.0000
28.1700 1575.0000 1.0000
28.1800 1625.0000 1.0000
28.1900 1662.0000 1.0000
28.2000 1666.0000 1.0000
28.2100 1623.0000 1.0000
28.2200 1687.0000 1.0000
28.2300 1636.0000 1.0000
28.2400 1733.0000 1.0000
28.2500 1661.0000 1.0000
28.2600 1680.0000 1.0000
28.2700 1685.0000 1.0000
28.2800 1638.0000 1.0000
28.2900 1581.0000 1.0000
28.3000 1612.0000 1.0000
28.3100 1637.0000 1.0000
28.3200 1619.0000 1.0000
28.3300 1626.0000 1.0000
28.3400 1705.0000 1.0000
28.3500 1685.0000 1.0000
28.3600 1645.0000 1.0000
28.3700 1649.0000 1.0000
28.3800 1642.0000 1.0000
28.3900 1632.0000 1.0000
28.4000 1604.0000 1.0000
28.4100 1605.0000 1.0000
28.4200 1597.0000 1.0000
28.4300 1597.0000 1.0000
28.4400 1655.0000 1.0000
28.4500 1641.0000 1.0000
28.4600 1582.0000 1.0000
28.4700 1669.0000 1.0000
28.4800 1594.0000 1.0000
28.4900 1588.0000 1.0000
28.5000 1590.0000 1.0000
28.5100 1601.0000 1.0000
28.5200 1586.0000 1.0000
28.5300 1597.0000 1.0000
28.5400 1527.0000 1.0000
28.5500 1553.0000 1.0000
28.5600 1609.0000 1.0000
28.5700 1560.0000 1.0000
28.5800 1624.0000 1.0000
28.5900 1519.0000 1.0000
28.6000 1589.0000 1.0000
28.6100 1594.0000 1.0000
28.6200 1548.0000 1.0000
28.6300 1568.0000 1.0000
28.6400 1629.0000 1.0000
28.6500 1638.0000 1.0000
28.6600 1552.0000 1.0000
28.6700 1553.0000 1.0000
28.6800 1507.0000 1.0000
28.6900 1610.0000 1.0000
28.7000 1578.0000 1.0000
28.7100 1603.0000 1.0000
28.7200 1565.0000 1.0000
28.7300 1581.0000 1.0000
28.7400 1563.0000 1.0000
28.7500 1531.0000 1.0000
28.7600 1589.0000 1.0000
28.7700 1561.0000 1.0000
28.7800 1555.0000 1.0000
28.7900 1554.0000 1.0000
28.8000 1587.0000 1.0000
28.8100 1561.0000 1.0000
28.8200 1593.0000 1.0000
28.8300 1557.0000 1.0000
28.8400 1545.0000 1.0000
28.8500 1611.0000 1.0000
28.8600 1526.0000 1.0000
28.8700 1593.0000 1.0000
28.8800 1510.0000 1.0000
28.8900 1496.0000 1.0000
28.9000 1495.0000 1.0000
28.9100 1578.0000 1.0000
28.9200 1541.0000 1.0000
28.9300 1567.0000 1.0000
28.9400 1577.0000 1.0000
28.9500 1591.0000 1.0000
28.9600 1568.0000 1.0000
28.9700 1545.0000 1.0000
28.9800 1574.0000 1.0000
28.9900 1535.0000 1.0000
29.0000 1510.0000 1.0000
29.0100 1559.0000 1.0000
29.0200 1610.0000 1.0000
29.0300 1558.0000 1.0000
29.0400 1516.0000 1.0000
29.0500 1506.0000 1.0000
29.0600 1539.0000 1.0000
29.0700 1558.0000 1.0000
29.0800 1541.0000 1.0000
29.0900 1526.0000 1.0000
29.1000 1524.0000 1.0000
29.1100 1466.0000 1.0000
29.1200 1546.0000 1.0000
29.1300 1527.0000 1.0000
29.1400 1515.0000 1.0000
29.1500 1525.0000 1.0000
29.1600 1504.0000 1.0000
29.1700 1521.0000 1.0000
29.1800 1521.0000 1.0000
29.1900 1487.0000 1.0000
29.2000 1507.0000 1.0000
29.2100 1521.0000 1.0000
29.2200 1540.0000 1.0000
29.2300 1488.0000 1.0000
29.2400 1543.0000 1.0000
29.2500 1606.0000 1.0000
29.2600 1524.0000 1.0000
29.2700 1500.0000 1.0000
29.2800 1529.0000 1.0000
29.2900 1587.0000 1.0000
29.3000 1546.0000 1.0000
29.3100 1522.0000 1.0000
29.3200 1557.0000 1.0000
29.3300 1548.0000 1.0000
29.3400 1488.0000 1.0000
29.3500 1551.0000 1.0000
29.3600 1441.0000 1.0000
29.3700 1439.0000 1.0000
29.3800 1513.0000 1.0000
29.3900 1522.0000 1.0000
29.4000 1464.0000 1.0000
29.4100 1448.0000 1.0000
29.4200 1542.0000 1.0000
29.4300 1487.0000 1.0000
29.4400 1505.0000 1.0000
29.4500 1583.0000 1.0000
29.4600 1470.0000 1.0000
29.4700 1508.0000 1.0000
29.4800 1528.0000 1.0000
29.4900 1509.0000 1.0000
29.5000 1495.0000 1.0000
29.5100 1514.0000 1.0000
29.5200 1475.0000 1.0000
29.5300 1597.0000 1.0000
29.5400 1495.0000 1.0000
29.5500 1507.0000 1.0000
29.5600 1532.0000 1.0000
29.5700 1506.0000 1.0000
29.5800 1524.0000 1.0000
29.5900 1479.0000 1.0000
29.6000 1542.0000 1.0000
29.6100 1450.0000 1.0000
29.6200 1421.0000 1.0000
29.6300 1499.0000 1.0000
29.6400 1445.0000 1.0000
29.6500 1457.0000 1.0000
29.6600 1443.0000 1.0000
29.6700 1476.0000 1.0000
29.6800 1513.0000 1.0000
29.6900 1503.0000 1.0000
29.7000 1518.0000 1.0000
29.7100 1475.0000 1.0000
29.7200 1473.0000 1.0000
29.7300 1440.0000 1.0000
29.7400 1541.0000 1.0000
29.7500 1512.0000 1.0000
29.7600 1483.0000 1.0000
29.7700 1404.0000 1.0000
29.7800 1508.0000 1.0000
29.7900 1447.0000 1.0000
29.8000 1482.0000 1.0000
29.8100 1463.0000 1.0000
29.8200 1465.0000 1.0000
29.8300 1460.0000 1.0000
29.8400 1458.0000 1.0000
29.8500 1460.0000 1.0000
29.8600 1462.0000 1.0000
29.8700 1535.0000 1.0000
29.8800 1547.0000 1.0000
29.8900 1450.0000 1.0000
29.9000 1454.0000 1.0000
29.9100 1540.0000 1.0000
29.9200 1480.0000 1.0000
29.9300 1434.0000 1.0000
29.9400 1492.0000 1.0000
29.9500 1434.0000 1.0000
29.9600 1501.0000 1.0000
29.9700 1436.0000 1.0000
29.9800 1467.0000 1.0000
29.9900 1454.0000 1.0000
30.0000 1494.0000 1.0000
30.0100 1459.0000 1.0000
30.0200 1375.0000 1.0000
30.0300 1442.0000 1.0000
30.0400 1483.0000 1.0000
30.0500 1440.0000 1.0000
30.0600 1434.0000 1.0000
30.0700 1431.0000 1.0000
30.0800 1400.0000 1.0000
30.0900 1543.0000 1.0000
30.1000 1459.0000 1.0000
30.1100 1484.0000 1.0000
30.1200 1465.0000 1.0000
30.1300 1506.0000 1.0000
30.1400 1464.0000 1.0000
30.1500 1487.0000 1.0000
30.1600 1468.0000 1.0000
30.1700 1394.0000 1.0000
30.1800 1478.0000 1.0000
30.1900 1506.0000 1.0000
30.2000 1453.0000 1.0000
30.2100 1480.0000 1.0000
30.2200 1441.0000 1.0000
30.2300 1426.0000 1.0000
30.2400 1488.0000 1.0000
30.2500 1465.0000 1.0000
30.2600 1465.0000 1.0000
30.2700 1398.0000 1.0000
30.2800 1476.0000 1.0000
30.2900 1397.0000 1.0000
30.3000 1429.0000 1.0000
30.3100 1418.0000 1.0000
30.3200 1438.0000 1.0000
30.3300 1438.0000 1.0000
30.3400 1516.0000 1.0000
30.3500 1513.0000 1.0000
30.3600 1436.0000 1.0000
30.3700 1466.0000 1.0000
30.3800 1410.0000 1.0000
30.3900 1429.0000 1.0000
30.4000 1459.0000 1.0000
30.4100 1470.0000 1.0000
30.4200 1413.0000 1.0000
30.4300 1430.0000 1.0000
30.4400 1443.0000 1.0000
30.4500 1409.0000 1.0000
30.4600 1430.0000 1.0000
30.4700 1430.0000 1.0000
30.4800 1432.0000 1.0000
30.4900 1384.0000 1.0000
30.5000 1466.0000 1.0000
30.5100 1407.0000 1.0000
30.5200 1367.0000 1.0000
30.5300 1354.0000 1.0000
30.5400 1422.0000 1.0000
30.5500 1377.0000 1.0000
30.5600 1374.0000 1.0000
30.5700 1433.0000 1.0000
30.5800 1452.0000 1.0000
30.5900 1414.0000 1.0000
30.6000 1427.0000 1.0000
30.6100 1439.0000 1.0000
30.6200 1421.0000 1.0000
30.6300 1330.0000 1.0000
30.6400 1418.0000 1.0000
30.6500 1446.0000 1.0000
30.6600 1421.0000 1.0000
30.6700 1432.0000 1.0000
30.6800 1434.0000 1.0000
30.6900 1449.0000 1.0000
30.7000 1407.0000 1.0000
30.7100 1403.0000 1.0000
30.7200 1395.0000 1.0000
30.7300 1473.0000 1.0000
30.7400 1425.0000 1.0000
30.7500 1432.0000 1.0000
30.7600 1412.0000 1.0000
30.7700 1430.0000 1.0000
30.7800 1417.0000 1.0000
30.7900 1493.0000 1.0000
30.8000 1438.0000 1.0000
30.8100 1414.0000 1.0000
30.8200 1389.0000 1.0000
30.8300 1426.0000 1.0000
30.8400 1363.0000 1.0000
30.8500 1412.0000 1.0000
30.8600 1444.0000 1.0000
30.8700 1438.0000 1.0000
30.8800 1376.0000 1.0000
30.8900 1424.0000 1.0000
30.9000 1406.0000 1.0000
30.9100 1320.0000 1.0000
30.9200 1348.0000 1.0000
30.9300 1427.0000 1.0000
30.9400 1382.0000 1.0000
30.9500 1393.0000 1.0000
30.9600 1388.0000 1.0000
30.9700 1376.0000 1.0000
30.9800 1380.0000 1.0000
30.9900 1417.0000 1.0000
31.0000 1398.0000 1.0000
31.0100 1354.0000 1.0000
31.0200 1389.0000 1.0000
31.0300 1357.0000 1.0000
31.0400 1379.0000 1.0000
31.0500 1439.0000 1.0000
31.0600 1431.0000 1.0000
31.0700 1376.0000 1.0000
31.0800 1390.0000 1.0000
31.0900 1489.0000 1.0000
31.1000 1392.0000 1.0000
31.1100 1455.0000 1.0000
31.1200 1351.0000 1.0000
31.1300 1394.0000 1.0000
31.1400 1437.0000 1.0000
31.1500 1398.0000 1.0000
31.1600 1429.0000 1.0000
31.1700 1428.0000 1.0000
31.1800 1445.0000 1.0000
31.1900 1397.0000 1.0000
31.2000 1394.0000 1.0000
31.2100 1352.0000 1.0000
31.2200 1435.0000 1.0000
31.2300 1318.0000 1.0000
31.2400 1371.0000 1.0000
31.2500 1391.0000 1.0000
31.2600 1392.0000 1.0000
31.2700 1339.0000 1.0000
31.2800 1389.0000 1.0000
31.2900 1386.0000 1.0000
31.3000 1341.0000 1.0000
31.3100 1399.0000 1.0000
31.3200 1420.0000 1.0000
31.3300 1335.0000 1.0000
31.3400 1362.0000 1.0000
31.3500 1361.0000 1.0000
31.3600 1358.0000 1.0000
31.3700 1330.0000 1.0000
31.3800 1355.0000 1.0000
31.3900 1346.0000 1.0000
31.4000 1368.0000 1.0000
31.4100 1419.0000 1.0000
31.4200 1389.0000 1.0000
31.4300 1368.0000 1.0000
31.4400 1362.0000 1.0000
31.4500 1374.0000 1.0000
31.4600 1323.0000 1.0000
31.4700 1365.0000 1.0000
31.4800 1390.0000 1.0000
31.4900 1399.0000 1.0000
31.5000 1451.0000 1.0000
31.5100 1407.0000 1.0000
31.5200 1333.0000 1.0000
31.5300 1371.0000 1.0000
31.5400 1358.0000 1.0000
31.5500 1375.0000 1.0000
31.5600 1378.0000 1.0000
31.5700 1279.0000 1.0000
31.5800 1311.0000 1.0000
31.5900 1342.0000 1.0000
31.6000 1264.0000 1.0000
31.6100 1311.0000 1.0000
31.6200 1381.0000 1.0000
31.6300 1358.0000 1.0000
31.6400 1339.0000 1.0000
31.6500 1375.0000 1.0000
31.6600 1317.0000 1.0000
31.6700 1306.0000 1.0000
31.6800 1388.0000 1.0000
31.6900 1382.0000 1.0000
31.7000 1362.0000 1.0000
31.7100 1339.0000 1.0000
31.7200 1352.0000 1.0000
31.7300 1324.0000 1.0000
31.7400 1364.0000 1.0000
31.7500 1331.0000 1.0000
31.7600 1338.0000 1.0000
31.7700 1351.0000 1.0000
31.7800 1389.0000 1.0000
31.7900 1352.0000 1.0000
31.8000 1363.0000 1.0000
31.8100 1369.0000 1.0000
31.8200 1339.0000 1.0000
31.8300 1366.0000 1.0000
31.8400 1373.0000 1.0000
31.8500 1359.0000 1.0000
31.8600 1399.0000 1.0000
31.8700 1367.0000 1.0000
31.8800 1395.0000 1.0000
31.8900 1345.0000 1.0000
31.9000 1390.0000 1.0000
31.9100 1399.0000 1.0000
31.9200 1426.0000 1.0000
31.9300 1487.0000 1.0000
31.9400 1390.0000 1.0000
31.9500 1355.0000 1.0000
31.9600 1378.0000 1.0000
31.9700 1372.0000 1.0000
31.9800 1384.0000 1.0000
31.9900 1398.0000 1.0000
32.0000 1451.0000 1.0000
32.0100 1447.0000 1.0000
32.0200 1364.0000 1.0000
32.0300 1370.0000 1.0000
32.0400 1382.0000 1.0000
32.0500 1400.0000 1.0000
32.0600 1315.0000 1.0000
32.0700 1393.0000 1.0000
32.0800 1437.0000 1.0000
32.0900 1385.0000 1.0000
32.1000 1370.0000 1.0000
32.1100 1337.0000 1.0000
32.1200 1358.0000 1.0000
32.1300 1377.0000 1.0000
32.1400 1275.0000 1.0000
32.1500 1337.0000 1.0000
32.1600 1362.0000 1.0000
32.1700 1323.0000 1.0000
32.1800 1325.0000 1.0000
32.1900 1351.0000 1.0000
32.2000 1398.0000 1.0000
32.2100 1310.0000 1.0000
32.2200 1283.0000 1.0000
32.2300 1297.0000 1.0000
32.2400 1345.0000 1.0000
32.2500 1340.0000 1.0000
32.2600 1341.0000 1.0000
32.2700 1355.0000 1.0000
32.2800 1336.0000 1.0000
32.2900 1307.0000 1.0000
32.3000 1331.0000 1.0000
32.3100 1330.0000 1.0000
32.3200 1309.0000 1.0000
32.3300 1338.0000 1.0000
32.3400 1323.0000 1.0000
32.3500 1274.0000 1.0000
32.3600 1290.0000 1.0000
32.3700 1425.0000 1.0000
32.3800 1333.0000 1.0000
32.3900 1303.0000 1.0000
32.4000 1289.0000 1.0000
32.4100 1269.0000 1.0000
32.4200 1294.0000 1.0000
32.4300 1272.0000 1.0000
32.4400 1325.0000 1.0000
32.4500 1289.0000 1.0000
32.4600 1259.0000 1.0000
32.4700 1300.0000 1.0000
32.4800 1336.0000 1.0000
32.4900 1404.0000 1.0000
32.5000 1330.0000 1.0000
32.5100 1294.0000 1.0000
32.5200 1265.0000 1.0000
32.5300 1286.0000 1.0000
32.5400 1346.0000 1.0000
32.5500 1359.0000 1.0000
32.5600 1293.0000 1.0000
32.5700 1290.0000 1.0000
32.5800 1256.0000 1.0000
32.5900 1285.0000 1.0000
32.6000 1363.0000 1.0000
32.6100 1365.0000 1.0000
32.6200 1308.0000 1.0000
32.6300 1317.0000 1.0000
32.6400 1257.0000 1.0000
32.6500 1277.0000 1.0000
32.6600 1305.0000 1.0000
32.6700 1314.0000 1.0000
32.6800 1313.0000 1.0000
32.6900 1290.0000 1.0000
32.7000 1297.0000 1.0000
32.7100 1265.0000 1.0000
32.7200 1360.0000 1.0000
32.7300 1330.0000 1.0000
32.7400 1361.0000 1.0000
32.7500 1298.0000 1.0000
32.7600 1337.0000 1.0000
32.7700 1278.0000 1.0000
32.7800 1288.0000 1.0000
32.7900 1321.0000 1.0000
32.8000 1274.0000 1.0000
32.8100 1376.0000 1.0000
32.8200 1339.0000 1.0000
32.8300 1322.0000 1.0000
32.8400 1319.0000 1.0000
32.8500 1298.0000 1.0000
32.8600 1306.0000 1.0000
32.8700 1287.0000 1.0000
32.8800 1237.0000 1.0000
32.8900 1225.0000 1.0000
32.9000 1276.0000 1.0000
32.9100 1243.0000 1.0000
32.9200 1303.0000 1.0000
32.9300 1339.0000 1.0000
32.9400 1279.0000 1.0000
32.9500 1266.0000 1.0000
32.9600 1261.0000 1.0000
32.9700 1219.0000 1.0000
32.9800 1269.0000 1.0000
32.9900 1269.0000 1.0000
33.0000 1304.0000 1.0000
33.0100 1251.0000 1.0000
33.0200 1305.0000 1.0000
33.0300 1283.0000 1.0000
33.0400 1247.0000 1.0000
33.0500 1271.0000 1.0000
33.0600 1322.0000 1.0000
33.0700 1307.0000 1.0000
33.0800 1261.0000 1.0000
33.0900 1201.0000 1.0000
33.1000 1256.0000 1.0000
33.1100 1239.0000 1.0000
33.1200 1257.0000 1.0000
33.1300 1251.0000 1.0000
33.1400 1259.0000 1.0000
33.1500 1245.0000 1.0000
33.1600 1255.0000 1.0000
33.1700 1208.0000 1.0000
33.1800 1214.0000 1.0000
33.1900 1223.0000 1.0000
33.2000 1249.0000 1.0000
33.2100 1278.0000 1.0000
33.2200 1285.0000 1.0000
33.2300 1234.0000 1.0000
33.2400 1239.0000 1.0000
33.2500 1296.0000 1.0000
33.2600 1272.0000 1.0000
33.2700 1214.0000 1.0000
33.2800 1300.0000 1.0000
33.2900 1257.0000 1.0000
33.3000 1236.0000 1.0000
33.3100 1237.0000 1.0000
33.3200 1226.0000 1.0000
33.3300 1266.0000 1.0000
33.3400 1279.0000 1.0000
33.3500 1274.0000 1.0000
33.3600 1246.0000 1.0000
33.3700 1267.0000 1.0000
33.3800 1246.0000 1.0000
33.3900 1236.0000 1.0000
33.4000 1233.0000 1.0000
33.4100 1298.0000 1.0000
33.4200 1248.0000 1.0000
33.4300 1272.0000 1.0000
33.4400 1231.0000 1.0000
33.4500 1220.0000 1.0000
33.4600 1267.0000 1.0000
33.4700 1271.0000 1.0000
33.4800 1261.0000 1.0000
33.4900 1244.0000 1.0000
33.5000 1269.0000 1.0000
33.5100 1253.0000 1.0000
33.5200 1280.0000 1.0000
33.5300 1303.0000 1.0000
33.5400 1289.0000 1.0000
33.5500 1324.0000 1.0000
33.5600 1287.0000 1.0000
33.5700 1293.0000 1.0000
33.5800 1299.0000 1.0000
33.5900 1302.0000 1.0000
33.6000 1288.0000 1.0000
33.6100 1277.0000 1.0000
33.6200 1257.0000 1.0000
33.6300 1289.0000 1.0000
33.6400 1312.0000 1.0000
33.6500 1279.0000 1.0000
33.6600 1288.0000 1.0000
33.6700 1245.0000 1.0000
33.6800 1243.0000 1.0000
33.6900 1311.0000 1.0000
33.7000 1350.0000 1.0000
33.7100 1320.0000 1.0000
33.7200 1297.0000 1.0000
33.7300 1272.0000 1.0000
33.7400 1267.0000 1.0000
33.7500 1340.0000 1.0000
33.7600 1259.0000 1.0000
33.7700 1365.0000 1.0000
33.7800 1375.0000 1.0000
33.7900 1371.0000 1.0000
33.8000 1370.0000 1.0000
33.8100 1337.0000 1.0000
33.8200 1328.0000 1.0000
33.8300 1338.0000 1.0000
33.8400 1337.0000 1.0000
33.8500 1341.0000 1.0000
33.8600 1389.0000 1.0000
33.8700 1316.0000 1.0000
33.8800 1365.0000 1.0000
33.8900 1362.0000 1.0000
33.9000 1382.0000 1.0000
33.9100 1338.0000 1.0000
33.9200 1396.0000 1.0000
33.9300 1367.0000 1.0000
33.9400 1395.0000 1.0000
33.9500 1378.0000 1.0000
33.9600 1407.0000 1.0000
33.9700 1374.0000 1.0000
33.9800 1396.0000 1.0000
33.9900 1425.0000 1.0000
34.0000 1387.0000 1.0000
34.0100 1395.0000 1.0000
34.0200 1434.0000 1.0000
34.0300 1382.0000 1.0000
34.0400 1464.0000 1.0000
34.0500 1425.0000 1.0000
34.0600 1406.0000 1.0000
34.0700 1376.0000 1.0000
34.0800 1375.0000 1.0000
34.0900 1419.0000 1.0000
34.1000 1408.0000 1.0000
34.1100 1517.0000 1.0000
34.1200 1472.0000 1.0000
34.1300 1422.0000 1.0000
34.1400 1459.0000 1.0000
34.1500 1472.0000 1.0000
34.1600 1485.0000 1.0000
34.1700 1427.0000 1.0000
34.1800 1471.0000 1.0000
34.1900 1533.0000 1.0000
34.2000 1488.0000 1.0000
34.2100 1568.0000 1.0000
34.2200 1609.0000 1.0000
34.2300 1556.0000 1.0000
34.2400 1571.0000 1.0000
34.2500 1618.0000 1.0000
34.2600 1621.0000 1.0000
34.2700 1659.0000 1.0000
34.2800 1761.0000 1.0000
34.2900 1756.0000 1.0000
34.3000 1746.0000 1.0000
34.3100 1871.0000 1.0000
34.3200 1899.0000 1.0000
34.3300 2006.0000 1.0000
34.3400 2030.0000 1.0000
34.3500 2096.0000 1.0000
34.3600 2134.0000 1.0000
34.3700 2253.0000 1.0000
34.3800 2338.0000 1.0000
34.3900 2421.0000 1.0000
34.4000 2519.0000 1.0000
34.4100 2622.0000 1.0000
34.4200 2715.0000 1.0000
34.4300 2722.0000 1.0000
34.4400 2772.0000 1.0000
34.4500 2869.0000 1.0000
34.4600 2850.0000 1.0000
34.4700 2813.0000 1.0000
34.4800 2921.0000 1.0000
34.4900 2896.0000 1.0000
34.5000 2855.0000 1.0000
34.5100 2899.0000 1.0000
34.5200 2823.0000 1.0000
34.5300 2600.0000 1.0000
34.5400 2575.0000 1.0000
34.5500 2624.0000 1.0000
34.5600 2471.0000 1.0000
34.5700 2392.0000 1.0000
34.5800 2332.0000 1.0000
34.5900 2196.0000 1.0000
34.6000 2160.0000 1.0000
34.6100 2084.0000 1.0000
34.6200 2048.0000 1.0000
34.6300 1917.0000 1.0000
34.6400 1921.0000 1.0000
34.6500 1869.0000 1.0000
34.6600 1759.0000 1.0000
34.6700 1768.0000 1.0000
34.6800 1736.0000 1.0000
34.6900 1662.0000 1.0000
34.7000 1707.0000 1.0000
34.7100 1611.0000 1.0000
34.7200 1573.0000 1.0000
34.7300 1525.0000 1.0000
34.7400 1530.0000 1.0000
34.7500 1543.0000 1.0000
34.7600 1475.0000 1.0000
34.7700 1509.0000 1.0000
34.7800 1456.0000 1.0000
34.7900 1453.0000 1.0000
34.8000 1463.0000 1.0000
34.8100 1407.0000 1.0000
34.8200 1432.0000 1.0000
34.8300 1425.0000 1.0000
34.8400 1369.0000 1.0000
34.8500 1403.0000 1.0000
34.8600 1348.0000 1.0000
34.8700 1308.0000 1.0000
34.8800 1311.0000 1.0000
34.8900 1310.0000 1.0000
34.9000 1272.0000 1.0000
34.9100 1280.0000 1.0000
34.9200 1293.0000 1.0000
34.9300 1285.0000 1.0000
34.9400 1254.0000 1.0000
34.9500 1270.0000 1.0000
34.9600 1263.0000 1.0000
34.9700 1241.0000 1.0000
34.9800 1266.0000 1.0000
34.9900 1257.0000 1.0000
35.0000 1199.0000 1.0000
35.0100 1208.0000 1.0000
35.0200 1214.0000 1.0000
35.0300 1215.0000 1.0000
35.0400 1211.0000 1.0000
35.0500 1197.0000 1.0000
35.0600 1210.0000 1.0000
35.0700 1191.0000 1.0000
35.0800 1198.0000 1.0000
35.0900 1215.0000 1.0000
35.1000 1193.0000 1.0000
35.1100 1238.0000 1.0000
35.1200 1173.0000 1.0000
35.1300 1203.0000 1.0000
35.1400 1210.0000 1.0000
35.1500 1140.0000 1.0000
35.1600 1160.0000 1.0000
35.1700 1167.0000 1.0000
35.1800 1239.0000 1.0000
35.1900 1187.0000 1.0000
35.2000 1179.0000 1.0000
35.2100 1143.0000 1.0000
35.2200 1132.0000 1.0000
35.2300 1162.0000 1.0000
35.2400 1121.0000 1.0000
35.2500 1156.0000 1.0000
35.2600 1180.0000 1.0000
35.2700 1175.0000 1.0000
35.2800 1148.0000 1.0000
35.2900 1184.0000 1.0000
35.3000 1154.0000 1.0000
35.3100 1118.0000 1.0000
35.3200 1179.0000 1.0000
35.3300 1154.0000 1.0000
35.3400 1144.0000 1.0000
35.3500 1132.0000 1.0000
35.3600 1162.0000 1.0000
35.3700 1144.0000 1.0000
35.3800 1208.0000 1.0000
35.3900 1087.0000 1.0000
35.4000 1126.0000 1.0000
35.4100 1190.0000 1.0000
35.4200 1133.0000 1.0000
35.4300 1123.0000 1.0000
35.4400 1124.0000 1.0000
35.4500 1147.0000 1.0000
35.4600 1123.0000 1.0000
35.4700 1168.0000 1.0000
35.4800 1119.0000 1.0000
35.4900 1123.0000 1.0000
35.5000 1162.0000 1.0000
35.5100 1129.0000 1.0000
35.5200 1103.0000 1.0000
35.5300 1128.0000 1.0000
35.5400 1173.0000 1.0000
35.5500 1138.0000 1.0000
35.5600 1113.0000 1.0000
35.5700 1105.0000 1.0000
35.5800 1082.0000 1.0000
35.5900 1119.0000 1.0000
35.6000 1098.0000 1.0000
35.6100 1086.0000 1.0000
35.6200 1095.0000 1.0000
35.6300 1114.0000 1.0000
35.6400 1113.0000 1.0000
35.6500 1107.0000 1.0000
35.6600 1080.0000 1.0000
35.6700 1072.0000 1.0000
35.6800 1083.0000 1.0000
35.6900 1108.0000 1.0000
35.7000 1125.0000 1.0000
35.7100 1149.0000 1.0000
35.7200 1093.0000 1.0000
35.7300 1084.0000 1.0000
35.7400 1094.0000 1.0000
35.7500 1081.0000 1.0000
35.7600 1122.0000 1.0000
35.7700 1072.0000 1.0000
35.7800 1078.0000 1.0000
35.7900 1012.0000 1.0000
35.8000 1099.0000 1.0000
35.8100 1055.0000 1.0000
35.8200 1072.0000 1.0000
35.8300 1092.0000 1.0000
35.8400 1092.0000 1.0000
35.8500 1125.0000 1.0000
35.8600 1146.0000 1.0000
35.8700 1073.0000 1.0000
35.8800 1071.0000 1.0000
35.8900 1056.0000 1.0000
35.9000 1097.0000 1.0000
35.9100 1073.0000 1.0000
35.9200 1027.0000 1.0000
35.9300 1113.0000 1.0000
35.9400 1146.0000 1.0000
35.9500 1160.0000 1.0000
35.9600 1162.0000 1.0000
35.9700 1122.0000 1.0000
35.9800 1135.0000 1.0000
35.9900 1075.0000 1.0000
36.0000 1061.0000 1.0000
36.0100 1105.0000 1.0000
36.0200 1104.0000 1.0000
36.0300 1118.0000 1.0000
36.0400 1178.0000 1.0000
36.0500 1163.0000 1.0000
36.0600 1140.0000 1.0000
36.0700 1153.0000 1.0000
36.0800 1154.0000 1.0000
36.0900 1164.0000 1.0000
36.1000 1137.0000 1.0000
36.1100 1176.0000 1.0000
36.1200 1141.0000 1.0000
36.1300 1168.0000 1.0000
36.1400 1199.0000 1.0000
36.1500 1239.0000 1.0000
36.1600 1188.0000 1.0000
36.1700 1308.0000 1.0000
36.1800 1258.0000 1.0000
36.1900 1188.0000 1.0000
36.2000 1263.0000 1.0000
36.2100 1243.0000 1.0000
36.2200 1293.0000 1.0000
36.2300 1255.0000 1.0000
36.2400 1335.0000 1.0000
36.2500 1323.0000 1.0000
36.2600 1363.0000 1.0000
36.2700 1328.0000 1.0000
36.2800 1415.0000 1.0000
36.2900 1379.0000 1.0000
36.3000 1425.0000 1.0000
36.3100 1455.0000 1.0000
36.3200 1461.0000 1.0000
36.3300 1551.0000 1.0000
36.3400 1475.0000 1.0000
36.3500 1567.0000 1.0000
36.3600 1508.0000 1.0000
36.3700 1529.0000 1.0000
36.3800 1592.0000 1.0000
36.3900 1558.0000 1.0000
36.4000 1543.0000 1.0000
36.4100 1529.0000 1.0000
36.4200 1543.0000 1.0000
36.4300 1522.0000 1.0000
36.4400 1554.0000 1.0000
36.4500 1531.0000 1.0000
36.4600 1470.0000 1.0000
36.4700 1438.0000 1.0000
36.4800 1483.0000 1.0000
36.4900 1424.0000 1.0000
36.5000 1410.0000 1.0000
36.5100 1372.0000 1.0000
36.5200 1347.0000 1.0000
36.5300 1395.0000 1.0000
36.5400 1275.0000 1.0000
36.5500 1278.0000 1.0000
36.5600 1220.0000 1.0000
36.5700 1321.0000 1.0000
36.5800 1262.0000 1.0000
36.5900 1228.0000 1.0000
36.6000 1220.0000 1.0000
36.6100 1153.0000 1.0000
36.6200 1178.0000 1.0000
36.6300 1104.0000 1.0000
36.6400 1096.0000 1.0000
36.6500 1128.0000 1.0000
36.6600 1141.0000 1.0000
36.6700 1103.0000 1.0000
36.6800 1089.0000 1.0000
36.6900 1118.0000 1.0000
36.7000 1083.0000 1.0000
36.7100 1103.0000 1.0000
36.7200 1123.0000 1.0000
36.7300 1089.0000 1.0000
36.7400 1053.0000 1.0000
36.7500 1063.0000 1.0000
36.7600 1082.0000 1.0000
36.7700 1063.0000 1.0000
36.7800 1041.0000 1.0000
36.7900 1022.0000 1.0000
36.8000 1045.0000 1.0000
36.8100 1047.0000 1.0000
36.8200 1030.0000 1.0000
36.8300 1084.0000 1.0000
36.8400 1090.0000 1.0000
36.8500 1049.0000 1.0000
36.8600 1017.0000 1.0000
36.8700 991.0000 1.0000
36.8800 1035.0000 1.0000
36.8900 1080.0000 1.0000
36.9000 1068.0000 1.0000
36.9100 984.0000 1.0000
36.9200 1000.0000 1.0000
36.9300 1031.0000 1.0000
36.9400 1003.0000 1.0000
36.9500 1013.0000 1.0000
36.9600 997.0000 1.0000
36.9700 1022.0000 1.0000
36.9800 1063.0000 1.0000
36.9900 1068.0000 1.0000
37.0000 1002.0000 1.0000
37.0100 1044.0000 1.0000
37.0200 960.0000 1.0000
37.0300 988.0000 1.0000
37.0400 1040.0000 1.0000
37.0500 995.0000 1.0000
37.0600 991.0000 1.0000
37.0700 1040.0000 1.0000
37.0800 1044.0000 1.0000
37.0900 1006.0000 1.0000
37.1000 1067.0000 1.0000
37.1100 1017.0000 1.0000
37.1200 1032.0000 1.0000
37.1300 979.0000 1.0000
37.1400 1016.0000 1.0000
37.1500 1028.0000 1.0000
37.1600 1036.0000 1.0000
37.1700 1013.0000 1.0000
37.1800 1057.0000 1.0000
37.1900 1021.0000 1.0000
37.2000 1041.0000 1.0000
37.2100 1076.0000 1.0000
37.2200 1008.0000 1.0000
37.2300 1051.0000 1.0000
37.2400 1031.0000 1.0000
37.2500 1049.0000 1.0000
37.2600 1057.0000 1.0000
37.2700 1035.0000 1.0000
37.2800 1004.0000 1.0000
37.2900 1048.0000 1.0000
37.3000 1027.0000 1.0000
37.3100 974.0000 1.0000
37.3200 1051.0000 1.0000
37.3300 1036.0000 1.0000
37.3400 1006.0000 1.0000
37.3500 1038.0000 1.0000
37.3600 996.0000 1.0000
37.3700 1008.0000 1.0000
37.3800 1065.0000 1.0000
37.3900 1032.0000 1.0000
37.4000 1036.0000 1.0000
37.4100 1022.0000 1.0000
37.4200 1058.0000 1.0000
37.4300 1046.0000 1.0000
37.4400 959.0000 1.0000
37.4500 1013.0000 1.0000
37.4600 993.0000 1.0000
37.4700 995.0000 1.0000
37.4800 1022.0000 1.0000
37.4900 1024.0000 1.0000
37.5000 1043.0000 1.0000
37.5100 1033.0000 1.0000
37.5200 982.0000 1.0000
37.5300 1014.0000 1.0000
37.5400 1004.0000 1.0000
37.5500 1017.0000 1.0000
37.5600 991.0000 1.0000
37.5700 1011.0000 1.0000
37.5800 998.0000 1.0000
37.5900 1022.0000 1.0000
37.6000 1062.0000 1.0000
37.6100 991.0000 1.0000
37.6200 980.0000 1.0000
37.6300 1030.0000 1.0000
37.6400 1003.0000 1.0000
37.6500 1006.0000 1.0000
37.6600 1012.0000 1.0000
37.6700 989.0000 1.0000
37.6800 999.0000 1.0000
37.6900 992.0000 1.0000
37.7000 1059.0000 1.0000
37.7100 1027.0000 1.0000
37.7200 1007.0000 1.0000
37.7300 1042.0000 1.0000
37.7400 1049.0000 1.0000
37.7500 1024.0000 1.0000
37.7600 1046.0000 1.0000
37.7700 1039.0000 1.0000
37.7800 1045.0000 1.0000
37.7900 1034.0000 1.0000
37.8000 1030.0000 1.0000
37.8100 1002.0000 1.0000
37.8200 1024.0000 1.0000
37.8300 1000.0000 1.0000
37.8400 1027.0000 1.0000
37.8500 1075.0000 1.0000
37.8600 1056.0000 1.0000
37.8700 1046.0000 1.0000
37.8800 1057.0000 1.0000
37.8900 1062.0000 1.0000
37.9000 1061.0000 1.0000
37.9100 1077.0000 1.0000
37.9200 1073.0000 1.0000
37.9300 1052.0000 1.0000
37.9400 1030.0000 1.0000
37.9500 1058.0000 1.0000
37.9600 1035.0000 1.0000
37.9700 1066.0000 1.0000
37.9800 1117.0000 1.0000
37.9900 1129.0000 1.0000
38.0000 1127.0000 1.0000
38.0100 1152.0000 1.0000
38.0200 1154.0000 1.0000
38.0300 1152.0000 1.0000
38.0400 1120.0000 1.0000
38.0500 1148.0000 1.0000
38.0600 1149.0000 1.0000
38.0700 1235.0000 1.0000
38.0800 1193.0000 1.0000
38.0900 1180.0000 1.0000
38.1000 1209.0000 1.0000
38.1100 1261.0000 1.0000
38.1200 1277.0000 1.0000
38.1300 1322.0000 1.0000
38.1400 1308.0000 1.0000
38.1500 1370.0000 1.0000
38.1600 1408.0000 1.0000
38.1700 1427.0000 1.0000
38.1800 1468.0000 1.0000
38.1900 1513.0000 1.0000
38.2000 1588.0000 1.0000
38.2100 1623.0000 1.0000
38.2200 1639.0000 1.0000
38.2300 1675.0000 1.0000
38.2400 1731.0000 1.0000
38.2500 1849.0000 1.0000
38.2600 1961.0000 1.0000
38.2700 1997.0000 1.0000
38.2800 2091.0000 1.0000
38.2900 2217.0000 1.0000
38.3000 2322.0000 1.0000
38.3100 2418.0000 1.0000
38.3200 2576.0000 1.0000
38.3300 2743.0000 1.0000
38.3400 2981.0000 1.0000
38.3500 3081.0000 1.0000
38.3600 3345.0000 1.0000
38.3700 3487.0000 1.0000
38.3800 3854.0000 1.0000
38.3900 4062.0000 1.0000
38.4000 4421.0000 1.0000
38.4100 4853.0000 1.0000
38.4200 5176.0000 1.0000
38.4300 5605.0000 1.0000
38.4400 5955.0000 1.0000
38.4500 6251.0000 1.0000
38.4600 6729.0000 1.0000
38.4700 7054.0000 1.0000
38.4800 7275.0000 1.0000
38.4900 7465.0000 1.0000
38.5000 7509.0000 1.0000
38.5100 7568.0000 1.0000
38.5200 7598.0000 1.0000
38.5300 7594.0000 1.0000
38.5400 7418.0000 1.0000
38.5500 7186.0000 1.0000
38.5600 7130.0000 1.0000
38.5700 6912.0000 1.0000
38.5800 6577.0000 1.0000
38.5900 6376.0000 1.0000
38.6000 6119.0000 1.0000
38.6100 5803.0000 1.0000
38.6200 5519.0000 1.0000
38.6300 5057.0000 1.0000
38.6400 4767.0000 1.0000
38.6500 4520.0000 1.0000
38.6600 4089.0000 1.0000
38.6700 4005.0000 1.0000
38.6800 3729.0000 1.0000
38.6900 3468.0000 1.0000
38.7000 3120.0000 1.0000
38.7100 2990.0000 1.0000
38.7200 2827.0000 1.0000
38.7300 2654.0000 1.0000
38.7400 2403.0000 1.0000
38.7500 2313.0000 1.0000
38.7600 2173.0000 1.0000
38.7700 2028.0000 1.0000
38.7800 1986.0000 1.0000
38.7900 1910.0000 1.0000
38.8000 1829.0000 1.0000
38.8100 1740.0000 1.0000
38.8200 1557.0000 1.0000
38.8300 1529.0000 1.0000
38.8400 1465.0000 1.0000
38.8500 1466.0000 1.0000
38.8600 1419.0000 1.0000
38.8700 1348.0000 1.0000
38.8800 1393.0000 1.0000
38.8900 1265.0000 1.0000
38.9000 1233.0000 1.0000
38.9100 1228.0000 1.0000
38.9200 1189.0000 1.0000
38.9300 1151.0000 1.0000
38.9400 1209.0000 1.0000
38.9500 1136.0000 1.0000
38.9600 1143.0000 1.0000
38.9700 1146.0000 1.0000
38.9800 1127.0000 1.0000
38.9900 1100.0000 1.0000
39.0000 1120.0000 1.0000
39.0100 1117.0000 1.0000
39.0200 1084.0000 1.0000
39.0300 1114.0000 1.0000
39.0400 1073.0000 1.0000
39.0500 1078.0000 1.0000
39.0600 1064.0000 1.0000
39.0700 1043.0000 1.0000
39.0800 1031.0000 1.0000
39.0900 1048.0000 1.0000
39.1000 964.0000 1.0000
39.1100 932.0000 1.0000
39.1200 917.0000 1.0000
39.1300 898.0000 1.0000
39.1400 995.0000 1.0000
39.1500 1001.0000 1.0000
39.1600 1001.0000 1.0000
39.1700 981.0000 1.0000
39.1800 1007.0000 1.0000
39.1900 926.0000 1.0000
39.2000 941.0000 1.0000
39.2100 967.0000 1.0000
39.2200 942.0000 1.0000
39.2300 903.0000 1.0000
39.2400 927.0000 1.0000
39.2500 950.0000 1.0000
39.2600 959.0000 1.0000
39.2700 934.0000 1.0000
39.2800 970.0000 1.0000
39.2900 887.0000 1.0000
39.3000 918.0000 1.0000
39.3100 916.0000 1.0000
39.3200 944.0000 1.0000
39.3300 910.0000 1.0000
39.3400 919.0000 1.0000
39.3500 964.0000 1.0000
39.3600 957.0000 1.0000
39.3700 932.0000 1.0000
39.3800 931.0000 1.0000
39.3900 909.0000 1.0000
39.4000 930.0000 1.0000
39.4100 928.0000 1.0000
39.4200 950.0000 1.0000
39.4300 926.0000 1.0000
39.4400 939.0000 1.0000
39.4500 924.0000 1.0000
39.4600 956.0000 1.0000
39.4700 959.0000 1.0000
39.4800 914.0000 1.0000
39.4900 929.0000 1.0000
39.5000 919.0000 1.0000
39.5100 922.0000 1.0000
39.5200 923.0000 1.0000
39.5300 945.0000 1.0000
39.5400 932.0000 1.0000
39.5500 934.0000 1.0000
39.5600 940.0000 1.0000
39.5700 959.0000 1.0000
39.5800 959.0000 1.0000
39.5900 941.0000 1.0000
39.6000 970.0000 1.0000
39.6100 919.0000 1.0000
39.6200 930.0000 1.0000
39.6300 904.0000 1.0000
39.6400 962.0000 1.0000
39.6500 939.0000 1.0000
39.6600 930.0000 1.0000
39.6700 927.0000 1.0000
39.6800 934.0000 1.0000
39.6900 948.0000 1.0000
39.7000 888.0000 1.0000
39.7100 889.0000 1.0000
39.7200 902.0000 1.0000
39.7300 897.0000 1.0000
39.7400 916.0000 1.0000
39.7500 888.0000 1.0000
39.7600 833.0000 1.0000
39.7700 871.0000 1.0000
39.7800 890.0000 1.0000
39.7900 868.0000 1.0000
39.8000 860.0000 1.0000
39.8100 858.0000 1.0000
39.8200 866.0000 1.0000
39.8300 890.0000 1.0000
39.8400 880.0000 1.0000
39.8500 883.0000 1.0000
39.8600 851.0000 1.0000
39.8700 887.0000 1.0000
39.8800 866.0000 1.0000
39.8900 902.0000 1.0000
39.9000 842.0000 1.0000
39.9100 864.0000 1.0000
39.9200 896.0000 1.0000
39.9300 884.0000 1.0000
39.9400 890.0000 1.0000
39.9500 867.0000 1.0000
39.9600 881.0000 1.0000
39.9700 854.0000 1.0000
39.9800 857.0000 1.0000
39.9900 855.0000 1.0000
40.0000 823.0000 1.0000
40.0100 859.0000 1.0000
40.0200 869.0000 1.0000
40.0300 832.0000 1.0000
40.0400 821.0000 1.0000
40.0500 870.0000 1.0000
40.0600 870.0000 1.0000
40.0700 827.0000 1.0000
40.0800 867.0000 1.0000
40.0900 862.0000 1.0000
40.1000 907.0000 1.0000
40.1100 851.0000 1.0000
40.1200 844.0000 1.0000
40.1300 841.0000 1.0000
40.1400 864.0000 1.0000
40.1500 875.0000 1.0000
40.1600 845.0000 1.0000
40.1700 851.0000 1.0000
40.1800 831.0000 1.0000
40.1900 844.0000 1.0000
40.2000 792.0000 1.0000
40.2100 838.0000 1.0000
40.2200 899.0000 1.0000
40.2300 803.0000 1.0000
40.2400 819.0000 1.0000
40.2500 852.0000 1.0000
40.2600 852.0000 1.0000
40.2700 843.0000 1.0000
40.2800 803.0000 1.0000
40.2900 810.0000 1.0000
40.3000 809.0000 1.0000
40.3100 852.0000 1.0000
40.3200 842.0000 1.0000
40.3300 842.0000 1.0000
40.3400 815.0000 1.0000
40.3500 828.0000 1.0000
40.3600 830.0000 1.0000
40.3700 834.0000 1.0000
40.3800 812.0000 1.0000
40.3900 859.0000 1.0000
40.4000 882.0000 1.0000
40.4100 821.0000 1.0000
40.4200 829.0000 1.0000
40.4300 875.0000 1.0000
40.4400 854.0000 1.0000
40.4500 829.0000 1.0000
40.4600 828.0000 1.0000
40.4700 811.0000 1.0000
40.4800 866.0000 1.0000
40.4900 854.0000 1.0000
40.5000 868.0000 1.0000
40.5100 842.0000 1.0000
40.5200 827.0000 1.0000
40.5300 860.0000 1.0000
40.5400 827.0000 1.0000
40.5500 831.0000 1.0000
40.5600 874.0000 1.0000
40.5700 819.0000 1.0000
40.5800 804.0000 1.0000
40.5900 827.0000 1.0000
40.6000 822.0000 1.0000
40.6100 833.0000 1.0000
40.6200 808.0000 1.0000
40.6300 800.0000 1.0000
40.6400 833.0000 1.0000
40.6500 824.0000 1.0000
40.6600 788.0000 1.0000
40.6700 815.0000 1.0000
40.6800 837.0000 1.0000
40.6900 803.0000 1.0000
40.7000 813.0000 1.0000
40.7100 860.0000 1.0000
40.7200 830.0000 1.0000
40.7300 830.0000 1.0000
40.7400 833.0000 1.0000
40.7500 830.0000 1.0000
40.7600 828.0000 1.0000
40.7700 866.0000 1.0000
40.7800 850.0000 1.0000
40.7900 784.0000 1.0000
40.8000 825.0000 1.0000
40.8100 787.0000 1.0000
40.8200 774.0000 1.0000
40.8300 779.0000 1.0000
40.8400 792.0000 1.0000
40.8500 818.0000 1.0000
40.8600 857.0000 1.0000
40.8700 833.0000 1.0000
40.8800 832.0000 1.0000
40.8900 824.0000 1.0000
40.9000 852.0000 1.0000
40.9100 812.0000 1.0000
40.9200 799.0000 1.0000
40.9300 797.0000 1.0000
40.9400 810.0000 1.0000
40.9500 857.0000 1.0000
40.9600 800.0000 1.0000
40.9700 846.0000 1.0000
40.9800 820.0000 1.0000
40.9900 805.0000 1.0000
41.0000 795.0000 1.0000
41.0100 866.0000 1.0000
41.0200 810.0000 1.0000
41.0300 797.0000 1.0000
41.0400 780.0000 1.0000
41.0500 801.0000 1.0000
41.0600 867.0000 1.0000
41.0700 825.0000 1.0000
41.0800 840.0000 1.0000
41.0900 825.0000 1.0000
41.1000 810.0000 1.0000
41.1100 813.0000 1.0000
41.1200 795.0000 1.0000
41.1300 875.0000 1.0000
41.1400 819.0000 1.0000
41.1500 815.0000 1.0000
41.1600 811.0000 1.0000
41.1700 803.0000 1.0000
41.1800 835.0000 1.0000
41.1900 812.0000 1.0000
41.2000 819.0000 1.0000
41.2100 823.0000 1.0000
41.2200 794.0000 1.0000
41.2300 832.0000 1.0000
41.2400 834.0000 1.0000
41.2500 833.0000 1.0000
41.2600 803.0000 1.0000
41.2700 806.0000 1.0000
41.2800 819.0000 1.0000
41.2900 837.0000 1.0000
41.3000 834.0000 1.0000
41.3100 870.0000 1.0000
41.3200 782.0000 1.0000
41.3300 809.0000 1.0000
41.3400 784.0000 1.0000
41.3500 794.0000 1.0000
41.3600 828.0000 1.0000
41.3700 780.0000 1.0000
41.3800 762.0000 1.0000
41.3900 786.0000 1.0000
41.4000 905.0000 1.0000
41.4100 808.0000 1.0000
41.4200 796.0000 1.0000
41.4300 806.0000 1.0000
41.4400 839.0000 1.0000
41.4500 806.0000 1.0000
41.4600 795.0000 1.0000
41.4700 829.0000 1.0000
41.4800 789.0000 1.0000
41.4900 809.0000 1.0000
41.5000 804.0000 1.0000
41.5100 809.0000 1.0000
41.5200 780.0000 1.0000
41.5300 848.0000 1.0000
41.5400 786.0000 1.0000
41.5500 815.0000 1.0000
41.5600 804.0000 1.0000
41.5700 826.0000 1.0000
41.5800 790.0000 1.0000
41.5900 798.0000 1.0000
41.6000 793.0000 1.0000
41.6100 815.0000 1.0000
41.6200 830.0000 1.0000
41.6300 828.0000 1.0000
41.6400 810.0000 1.0000
41.6500 810.0000 1.0000
41.6600 831.0000 1.0000
41.6700 821.0000 1.0000
41.6800 800.0000 1.0000
41.6900 817.0000 1.0000
41.7000 763.0000 1.0000
41.7100 819.0000 1.0000
41.7200 783.0000 1.0000
41.7300 811.0000 1.0000
41.7400 770.0000 1.0000
41.7500 786.0000 1.0000
41.7600 793.0000 1.0000
41.7700 822.0000 1.0000
41.7800 856.0000 1.0000
41.7900 853.0000 1.0000
41.8000 840.0000 1.0000
41.8100 806.0000 1.0000
41.8200 796.0000 1.0000
41.8300 843.0000 1.0000
41.8400 826.0000 1.0000
41.8500 874.0000 1.0000
41.8600 843.0000 1.0000
41.8700 827.0000 1.0000
41.8800 810.0000 1.0000
41.8900 838.0000 1.0000
41.9000 819.0000 1.0000
41.9100 818.0000 1.0000
41.9200 827.0000 1.0000
41.9300 801.0000 1.0000
41.9400 809.0000 1.0000
41.9500 838.0000 1.0000
41.9600 774.0000 1.0000
41.9700 824.0000 1.0000
41.9800 812.0000 1.0000
41.9900 825.0000 1.0000
42.0000 828.0000 1.0000
42.0100 812.0000 1.0000
42.0200 827.0000 1.0000
42.0300 794.0000 1.0000
42.0400 801.0000 1.0000
42.0500 790.0000 1.0000
42.0600 829.0000 1.0000
42.0700 786.0000 1.0000
42.0800 763.0000 1.0000
42.0900 832.0000 1.0000
42.1000 819.0000 1.0000
42.1100 801.0000 1.0000
42.1200 817.0000 1.0000
42.1300 817.0000 1.0000
42.1400 800.0000 1.0000
42.1500 838.0000 1.0000
42.1600 777.0000 1.0000
42.1700 796.0000 1.0000
42.1800 802.0000 1.0000
42.1900 781.0000 1.0000
42.2000 775.0000 1.0000
42.2100 783.0000 1.0000
42.2200 861.0000 1.0000
42.2300 761.0000 1.0000
42.2400 723.0000 1.0000
42.2500 781.0000 1.0000
42.2600 771.0000 1.0000
42.2700 770.0000 1.0000
42.2800 819.0000 1.0000
42.2900 781.0000 1.0000
42.3000 780.0000 1.0000
42.3100 769.0000 1.0000
42.3200 752.0000 1.0000
42.3300 766.0000 1.0000
42.3400 810.0000 1.0000
42.3500 782.0000 1.0000
42.3600 794.0000 1.0000
42.3700 829.0000 1.0000
42.3800 820.0000 1.0000
42.3900 772.0000 1.0000
42.4000 790.0000 1.0000
42.4100 793.0000 1.0000
42.4200 777.0000 1.0000
42.4300 814.0000 1.0000
42.4400 838.0000 1.0000
42.4500 808.0000 1.0000
42.4600 783.0000 1.0000
42.4700 822.0000 1.0000
42.4800 778.0000 1.0000
42.4900 798.0000 1.0000
42.5000 777.0000 1.0000
42.5100 808.0000 1.0000
42.5200 755.0000 1.0000
42.5300 833.0000 1.0000
42.5400 772.0000 1.0000
42.5500 827.0000 1.0000
42.5600 801.0000 1.0000
42.5700 787.0000 1.0000
42.5800 782.0000 1.0000
42.5900 798.0000 1.0000
42.6000 827.0000 1.0000
42.6100 822.0000 1.0000
42.6200 805.0000 1.0000
42.6300 779.0000 1.0000
42.6400 799.0000 1.0000
42.6500 826.0000 1.0000
42.6600 806.0000 1.0000
42.6700 827.0000 1.0000
42.6800 831.0000 1.0000
42.6900 843.0000 1.0000
42.7000 790.0000 1.0000
42.7100 816.0000 1.0000
42.7200 810.0000 1.0000
42.7300 807.0000 1.0000
42.7400 824.0000 1.0000
42.7500 797.0000 1.0000
42.7600 850.0000 1.0000
42.7700 855.0000 1.0000
42.7800 813.0000 1.0000
42.7900 783.0000 1.0000
42.8000 781.0000 1.0000
42.8100 787.0000 1.0000
42.8200 778.0000 1.0000
42.8300 750.0000 1.0000
42.8400 811.0000 1.0000
42.8500 782.0000 1.0000
42.8600 840.0000 1.0000
42.8700 829.0000 1.0000
42.8800 804.0000 1.0000
42.8900 791.0000 1.0000
42.9000 822.0000 1.0000
42.9100 831.0000 1.0000
42.9200 786.0000 1.0000
42.9300 782.0000 1.0000
42.9400 802.0000 1.0000
42.9500 760.0000 1.0000
42.9600 821.0000 1.0000
42.9700 847.0000 1.0000
42.9800 804.0000 1.0000
42.9900 799.0000 1.0000
43.0000 827.0000 1.0000
43.0100 828.0000 1.0000
43.0200 833.0000 1.0000
43.0300 817.0000 1.0000
43.0400 817.0000 1.0000
43.0500 808.0000 1.0000
43.0600 793.0000 1.0000
43.0700 842.0000 1.0000
43.0800 865.0000 1.0000
43.0900 904.0000 1.0000
43.1000 900.0000 1.0000
43.1100 857.0000 1.0000
43.1200 846.0000 1.0000
43.1300 917.0000 1.0000
43.1400 908.0000 1.0000
43.1500 921.0000 1.0000
43.1600 863.0000 1.0000
43.1700 875.0000 1.0000
43.1800 883.0000 1.0000
43.1900 867.0000 1.0000
43.2000 868.0000 1.0000
43.2100 919.0000 1.0000
43.2200 893.0000 1.0000
43.2300 889.0000 1.0000
43.2400 880.0000 1.0000
43.2500 857.0000 1.0000
43.2600 876.0000 1.0000
43.2700 878.0000 1.0000
43.2800 871.0000 1.0000
43.2900 848.0000 1.0000
43.3000 900.0000 1.0000
43.3100 887.0000 1.0000
43.3200 800.0000 1.0000
43.3300 812.0000 1.0000
43.3400 859.0000 1.0000
43.3500 810.0000 1.0000
43.3600 801.0000 1.0000
43.3700 792.0000 1.0000
43.3800 853.0000 1.0000
43.3900 830.0000 1.0000
43.4000 803.0000 1.0000
43.4100 803.0000 1.0000
43.4200 832.0000 1.0000
43.4300 807.0000 1.0000
43.4400 820.0000 1.0000
43.4500 825.0000 1.0000
43.4600 810.0000 1.0000
43.4700 783.0000 1.0000
43.4800 843.0000 1.0000
43.4900 823.0000 1.0000
43.5000 801.0000 1.0000
43.5100 778.0000 1.0000
43.5200 843.0000 1.0000
43.5300 759.0000 1.0000
43.5400 793.0000 1.0000
43.5500 805.0000 1.0000
43.5600 797.0000 1.0000
43.5700 811.0000 1.0000
43.5800 778.0000 1.0000
43.5900 791.0000 1.0000
43.6000 801.0000 1.0000
43.6100 743.0000 1.0000
43.6200 828.0000 1.0000
43.6300 764.0000 1.0000
43.6400 827.0000 1.0000
43.6500 817.0000 1.0000
43.6600 811.0000 1.0000
43.6700 825.0000 1.0000
43.6800 766.0000 1.0000
43.6900 783.0000 1.0000
43.7000 755.0000 1.0000
43.7100 810.0000 1.0000
43.7200 782.0000 1.0000
43.7300 742.0000 1.0000
43.7400 787.0000 1.0000
43.7500 758.0000 1.0000
43.7600 766.0000 1.0000
43.7700 762.0000 1.0000
43.7800 766.0000 1.0000
43.7900 753.0000 1.0000
43.8000 830.0000 1.0000
43.8100 784.0000 1.0000
43.8200 788.0000 1.0000
43.8300 762.0000 1.0000
43.8400 801.0000 1.0000
43.8500 794.0000 1.0000
43.8600 809.0000 1.0000
43.8700 771.0000 1.0000
43.8800 774.0000 1.0000
43.8900 764.0000 1.0000
43.9000 826.0000 1.0000
43.9100 754.0000 1.0000
43.9200 772.0000 1.0000
43.9300 755.0000 1.0000
43.9400 810.0000 1.0000
43.9500 793.0000 1.0000
43.9600 800.0000 1.0000
43.9700 765.0000 1.0000
43.9800 766.0000 1.0000
43.9900 753.0000 1.0000
44.0000 757.0000 1.0000
44.0100 785.0000 1.0000
44.0200 806.0000 1.0000
44.0300 737.0000 1.0000
44.0400 763.0000 1.0000
44.0500 775.0000 1.0000
44.0600 761.0000 1.0000
44.0700 805.0000 1.0000
44.0800 790.0000 1.0000
44.0900 775.0000 1.0000
44.1000 787.0000 1.0000
44.1100 753.0000 1.0000
44.1200 813.0000 1.0000
44.1300 762.0000 1.0000
44.1400 777.0000 1.0000
44.1500 727.0000 1.0000
44.1600 761.0000 1.0000
44.1700 781.0000 1.0000
44.1800 760.0000 1.0000
44.1900 784.0000 1.0000
44.2000 808.0000 1.0000
44.2100 753.0000 1.0000
44.2200 776.0000 1.0000
44.2300 775.0000 1.0000
44.2400 740.0000 1.0000
44.2500 745.0000 1.0000
44.2600 765.0000 1.0000
44.2700 738.0000 1.0000
44.2800 762.0000 1.0000
44.2900 783.0000 1.0000
44.3000 792.0000 1.0000
44.3100 787.0000 1.0000
44.3200 799.0000 1.0000
44.3300 738.0000 1.0000
44.3400 777.0000 1.0000
44.3500 769.0000 1.0000
44.3600 761.0000 1.0000
44.3700 748.0000 1.0000
44.3800 774.0000 1.0000
44.3900 772.0000 1.0000
44.4000 757.0000 1.0000
44.4100 793.0000 1.0000
44.4200 776.0000 1.0000
44.4300 788.0000 1.0000
44.4400 793.0000 1.0000
44.4500 789.0000 1.0000
44.4600 740.0000 1.0000
44.4700 765.0000 1.0000
44.4800 777.0000 1.0000
44.4900 737.0000 1.0000
44.5000 720.0000 1.0000
44.5100 752.0000 1.0000
44.5200 767.0000 1.0000
44.5300 747.0000 1.0000
44.5400 767.0000 1.0000
44.5500 754.0000 1.0000
44.5600 790.0000 1.0000
44.5700 746.0000 1.0000
44.5800 793.0000 1.0000
44.5900 779.0000 1.0000
44.6000 772.0000 1.0000
44.6100 766.0000 1.0000
44.6200 780.0000 1.0000
44.6300 741.0000 1.0000
44.6400 743.0000 1.0000
44.6500 761.0000 1.0000
44.6600 755.0000 1.0000
44.6700 722.0000 1.0000
44.6800 765.0000 1.0000
44.6900 751.0000 1.0000
44.7000 715.0000 1.0000
44.7100 762.0000 1.0000
44.7200 728.0000 1.0000
44.7300 798.0000 1.0000
44.7400 764.0000 1.0000
44.7500 770.0000 1.0000
44.7600 754.0000 1.0000
44.7700 755.0000 1.0000
44.7800 798.0000 1.0000
44.7900 804.0000 1.0000
44.8000 792.0000 1.0000
44.8100 770.0000 1.0000
44.8200 728.0000 1.0000
44.8300 711.0000 1.0000
44.8400 742.0000 1.0000
44.8500 787.0000 1.0000
44.8600 728.0000 1.0000
44.8700 708.0000 1.0000
44.8800 751.0000 1.0000
44.8900 730.0000 1.0000
44.9000 768.0000 1.0000
44.9100 804.0000 1.0000
44.9200 759.0000 1.0000
44.9300 768.0000 1.0000
44.9400 757.0000 1.0000
44.9500 772.0000 1.0000
44.9600 747.0000 1.0000
44.9700 772.0000 1.0000
44.9800 759.0000 1.0000
44.9900 754.0000 1.0000
45.0000 760.0000 1.0000
45.0100 768.0000 1.0000
45.0200 730.0000 1.0000
45.0300 705.0000 1.0000
45.0400 748.0000 1.0000
45.0500 741.0000 1.0000
45.0600 721.0000 1.0000
45.0700 760.0000 1.0000
45.0800 741.0000 1.0000
45.0900 730.0000 1.0000
45.1000 748.0000 1.0000
45.1100 719.0000 1.0000
45.1200 701.0000 1.0000
45.1300 723.0000 1.0000
45.1400 773.0000 1.0000
45.1500 688.0000 1.0000
45.1600 744.0000 1.0000
45.1700 772.0000 1.0000
45.1800 730.0000 1.0000
45.1900 721.0000 1.0000
45.2000 726.0000 1.0000
45.2100 739.0000 1.0000
45.2200 750.0000 1.0000
45.2300 711.0000 1.0000
45.2400 733.0000 1.0000
45.2500 743.0000 1.0000
45.2600 751.0000 1.0000
45.2700 723.0000 1.0000
45.2800 756.0000 1.0000
45.2900 761.0000 1.0000
45.3000 739.0000 1.0000
45.3100 743.0000 1.0000
45.3200 751.0000 1.0000
45.3300 716.0000 1.0000
45.3400 729.0000 1.0000
45.3500 715.0000 1.0000
45.3600 739.0000 1.0000
45.3700 738.0000 1.0000
45.3800 739.0000 1.0000
45.3900 746.0000 1.0000
45.4000 728.0000 1.0000
45.4100 735.0000 1.0000
45.4200 759.0000 1.0000
45.4300 736.0000 1.0000
45.4400 759.0000 1.0000
45.4500 761.0000 1.0000
45.4600 736.0000 1.0000
45.4700 741.0000 1.0000
45.4800 777.0000 1.0000
45.4900 737.0000 1.0000
45.5000 767.0000 1.0000
45.5100 716.0000 1.0000
45.5200 700.0000 1.0000
45.5300 761.0000 1.0000
45.5400 710.0000 1.0000
45.5500 747.0000 1.0000
45.5600 716.0000 1.0000
45.5700 765.0000 1.0000
45.5800 754.0000 1.0000
45.5900 742.0000 1.0000
45.6000 739.0000 1.0000
45.6100 750.0000 1.0000
45.6200 713.0000 1.0000
45.6300 733.0000 1.0000
45.6400 768.0000 1.0000
45.6500 721.0000 1.0000
45.6600 733.0000 1.0000
45.6700 715.0000 1.0000
45.6800 754.0000 1.0000
45.6900 746.0000 1.0000
45.7000 698.0000 1.0000
45.7100 704.0000 1.0000
45.7200 716.0000 1.0000
45.7300 721.0000 1.0000
45.7400 736.0000 1.0000
45.7500 707.0000 1.0000
45.7600 721.0000 1.0000
45.7700 670.0000 1.0000
45.7800 746.0000 1.0000
45.7900 745.0000 1.0000
45.8000 763.0000 1.0000
45.8100 714.0000 1.0000
45.8200 729.0000 1.0000
45.8300 783.0000 1.0000
45.8400 727.0000 1.0000
45.8500 710.0000 1.0000
45.8600 754.0000 1.0000
45.8700 715.0000 1.0000
45.8800 681.0000 1.0000
45.8900 716.0000 1.0000
45.9000 741.0000 1.0000
45.9100 759.0000 1.0000
45.9200 751.0000 1.0000
45.9300 753.0000 1.0000
45.9400 769.0000 1.0000
45.9500 713.0000 1.0000
45.9600 689.0000 1.0000
45.9700 743.0000 1.0000
45.9800 729.0000 1.0000
45.9900 706.0000 1.0000
46.0000 719.0000 1.0000
46.0100 759.0000 1.0000
46.0200 756.0000 1.0000
46.0300 745.0000 1.0000
46.0400 751.0000 1.0000
46.0500 752.0000 1.0000
46.0600 757.0000 1.0000
46.0700 760.0000 1.0000
46.0800 778.0000 1.0000
46.0900 761.0000 1.0000
46.1000 738.0000 1.0000
46.1100 772.0000 1.0000
46.1200 713.0000 1.0000
46.1300 772.0000 1.0000
46.1400 732.0000 1.0000
46.1500 706.0000 1.0000
46.1600 699.0000 1.0000
46.1700 680.0000 1.0000
46.1800 699.0000 1.0000
46.1900 666.0000 1.0000
46.2000 749.0000 1.0000
46.2100 652.0000 1.0000
46.2200 739.0000 1.0000
46.2300 742.0000 1.0000
46.2400 695.0000 1.0000
46.2500 719.0000 1.0000
46.2600 709.0000 1.0000
46.2700 727.0000 1.0000
46.2800 716.0000 1.0000
46.2900 770.0000 1.0000
46.3000 688.0000 1.0000
46.3100 756.0000 1.0000
46.3200 754.0000 1.0000
46.3300 741.0000 1.0000
46.3400 711.0000 1.0000
46.3500 727.0000 1.0000
46.3600 671.0000 1.0000
46.3700 703.0000 1.0000
46.3800 734.0000 1.0000
46.3900 726.0000 1.0000
46.4000 702.0000 1.0000
46.4100 712.0000 1.0000
46.4200 754.0000 1.0000
46.4300 729.0000 1.0000
46.4400 688.0000 1.0000
46.4500 734.0000 1.0000
46.4600 732.0000 1.0000
46.4700 768.0000 1.0000
46.4800 701.0000 1.0000
46.4900 730.0000 1.0000
46.5000 733.0000 1.0000
46.5100 722.0000 1.0000
46.5200 713.0000 1.0000
46.5300 735.0000 1.0000
46.5400 762.0000 1.0000
46.5500 702.0000 1.0000
46.5600 703.0000 1.0000
46.5700 693.0000 1.0000
46.5800 758.0000 1.0000
46.5900 738.0000 1.0000
46.6000 714.0000 1.0000
46.6100 712.0000 1.0000
46.6200 742.0000 1.0000
46.6300 773.0000 1.0000
46.6400 741.0000 1.0000
46.6500 768.0000 1.0000
46.6600 735.0000 1.0000
46.6700 713.0000 1.0000
46.6800 676.0000 1.0000
46.6900 665.0000 1.0000
46.7000 712.0000 1.0000
46.7100 720.0000 1.0000
46.7200 711.0000 1.0000
46.7300 683.0000 1.0000
46.7400 708.0000 1.0000
46.7500 736.0000 1.0000
46.7600 716.0000 1.0000
46.7700 722.0000 1.0000
46.7800 682.0000 1.0000
46.7900 729.0000 1.0000
46.8000 727.0000 1.0000
46.8100 738.0000 1.0000
46.8200 784.0000 1.0000
46.8300 723.0000 1.0000
46.8400 688.0000 1.0000
46.8500 756.0000 1.0000
46.8600 748.0000 1.0000
46.8700 708.0000 1.0000
46.8800 721.0000 1.0000
46.8900 719.0000 1.0000
46.9000 744.0000 1.0000
46.9100 697.0000 1.0000
46.9200 702.0000 1.0000
46.9300 715.0000 1.0000
46.9400 711.0000 1.0000
46.9500 740.0000 1.0000
46.9600 775.0000 1.0000
46.9700 749.0000 1.0000
46.9800 757.0000 1.0000
46.9900 723.0000 1.0000
47.0000 705.0000 1.0000
47.0100 751.0000 1.0000
47.0200 737.0000 1.0000
47.0300 741.0000 1.0000
47.0400 708.0000 1.0000
47.0500 688.0000 1.0000
47.0600 739.0000 1.0000
47.0700 693.0000 1.0000
47.0800 739.0000 1.0000
47.0900 673.0000 1.0000
47.1000 716.0000 1.0000
47.1100 709.0000 1.0000
47.1200 707.0000 1.0000
47.1300 715.0000 1.0000
47.1400 709.0000 1.0000
47.1500 702.0000 1.0000
47.1600 701.0000 1.0000
47.1700 748.0000 1.0000
47.1800 761.0000 1.0000
47.1900 759.0000 1.0000
47.2000 712.0000 1.0000
47.2100 725.0000 1.0000
47.2200 735.0000 1.0000
47.2300 680.0000 1.0000
47.2400 714.0000 1.0000
47.2500 739.0000 1.0000
47.2600 723.0000 1.0000
47.2700 723.0000 1.0000
47.2800 712.0000 1.0000
47.2900 683.0000 1.0000
47.3000 689.0000 1.0000
47.3100 689.0000 1.0000
47.3200 695.0000 1.0000
47.3300 664.0000 1.0000
47.3400 677.0000 1.0000
47.3500 726.0000 1.0000
47.3600 728.0000 1.0000
47.3700 689.0000 1.0000
47.3800 668.0000 1.0000
47.3900 717.0000 1.0000
47.4000 702.0000 1.0000
47.4100 727.0000 1.0000
47.4200 711.0000 1.0000
47.4300 717.0000 1.0000
47.4400 720.0000 1.0000
47.4500 709.0000 1.0000
47.4600 685.0000 1.0000
47.4700 706.0000 1.0000
47.4800 714.0000 1.0000
47.4900 716.0000 1.0000
47.5000 711.0000 1.0000
47.5100 689.0000 1.0000
47.5200 725.0000 1.0000
47.5300 676.0000 1.0000
47.5400 716.0000 1.0000
47.5500 727.0000 1.0000
47.5600 678.0000 1.0000
47.5700 739.0000 1.0000
47.5800 704.0000 1.0000
47.5900 721.0000 1.0000
47.6000 710.0000 1.0000
47.6100 724.0000 1.0000
47.6200 666.0000 1.0000
47.6300 681.0000 1.0000
47.6400 699.0000 1.0000
47.6500 694.0000 1.0000
47.6600 685.0000 1.0000
47.6700 667.0000 1.0000
47.6800 682.0000 1.0000
47.6900 657.0000 1.0000
47.7000 704.0000 1.0000
47.7100 717.0000 1.0000
47.7200 706.0000 1.0000
47.7300 686.0000 1.0000
47.7400 663.0000 1.0000
47.7500 718.0000 1.0000
47.7600 696.0000 1.0000
47.7700 703.0000 1.0000
47.7800 713.0000 1.0000
47.7900 701.0000 1.0000
47.8000 690.0000 1.0000
47.8100 719.0000 1.0000
47.8200 695.0000 1.0000
47.8300 707.0000 1.0000
47.8400 699.0000 1.0000
47.8500 700.0000 1.0000
47.8600 675.0000 1.0000
47.8700 660.0000 1.0000
47.8800 714.0000 1.0000
47.8900 702.0000 1.0000
47.9000 704.0000 1.0000
47.9100 696.0000 1.0000
47.9200 662.0000 1.0000
47.9300 703.0000 1.0000
47.9400 732.0000 1.0000
47.9500 725.0000 1.0000
47.9600 676.0000 1.0000
47.9700 696.0000 1.0000
47.9800 676.0000 1.0000
47.9900 692.0000 1.0000
48.0000 697.0000 1.0000
48.0100 718.0000 1.0000
48.0200 695.0000 1.0000
48.0300 676.0000 1.0000
48.0400 667.0000 1.0000
48.0500 700.0000 1.0000
48.0600 705.0000 1.0000
48.0700 717.0000 1.0000
48.0800 703.0000 1.0000
48.0900 678.0000 1.0000
48.1000 678.0000 1.0000
48.1100 684.0000 1.0000
48.1200 696.0000 1.0000
48.1300 693.0000 1.0000
48.1400 717.0000 1.0000
48.1500 670.0000 1.0000
48.1600 690.0000 1.0000
48.1700 690.0000 1.0000
48.1800 663.0000 1.0000
48.1900 697.0000 1.0000
48.2000 703.0000 1.0000
48.2100 717.0000 1.0000
48.2200 676.0000 1.0000
48.2300 707.0000 1.0000
48.2400 683.0000 1.0000
48.2500 714.0000 1.0000
48.2600 692.0000 1.0000
48.2700 728.0000 1.0000
48.2800 672.0000 1.0000
48.2900 686.0000 1.0000
48.3000 695.0000 1.0000
48.3100 656.0000 1.0000
48.3200 663.0000 1.0000
48.3300 676.0000 1.0000
48.3400 624.0000 1.0000
48.3500 686.0000 1.0000
48.3600 687.0000 1.0000
48.3700 656.0000 1.0000
48.3800 718.0000 1.0000
48.3900 707.0000 1.0000
48.4000 665.0000 1.0000
48.4100 673.0000 1.0000
48.4200 689.0000 1.0000
48.4300 753.0000 1.0000
48.4400 729.0000 1.0000
48.4500 706.0000 1.0000
48.4600 659.0000 1.0000
48.4700 646.0000 1.0000
48.4800 677.0000 1.0000
48.4900 662.0000 1.0000
48.5000 672.0000 1.0000
48.5100 685.0000 1.0000
48.5200 666.0000 1.0000
48.5300 662.0000 1.0000
48.5400 735.0000 1.0000
48.5500 750.0000 1.0000
48.5600 705.0000 1.0000
48.5700 665.0000 1.0000
48.5800 651.0000 1.0000
48.5900 652.0000 1.0000
48.6000 671.0000 1.0000
48.6100 707.0000 1.0000
48.6200 683.0000 1.0000
48.6300 647.0000 1.0000
48.6400 704.0000 1.0000
48.6500 680.0000 1.0000
48.6600 666.0000 1.0000
48.6700 712.0000 1.0000
48.6800 678.0000 1.0000
48.6900 707.0000 1.0000
48.7000 697.0000 1.0000
48.7100 669.0000 1.0000
48.7200 737.0000 1.0000
48.7300 701.0000 1.0000
48.7400 716.0000 1.0000
48.7500 702.0000 1.0000
48.7600 676.0000 1.0000
48.7700 710.0000 1.0000
48.7800 682.0000 1.0000
48.7900 679.0000 1.0000
48.8000 691.0000 1.0000
48.8100 691.0000 1.0000
48.8200 675.0000 1.0000
48.8300 667.0000 1.0000
48.8400 661.0000 1.0000
48.8500 645.0000 1.0000
48.8600 719.0000 1.0000
48.8700 678.0000 1.0000
48.8800 660.0000 1.0000
48.8900 655.0000 1.0000
48.9000 702.0000 1.0000
48.9100 677.0000 1.0000
48.9200 711.0000 1.0000
48.9300 662.0000 1.0000
48.9400 664.0000 1.0000
48.9500 665.0000 1.0000
48.9600 712.0000 1.0000
48.9700 642.0000 1.0000
48.9800 633.0000 1.0000
48.9900 675.0000 1.0000
49.0000 672.0000 1.0000
49.0100 674.0000 1.0000
49.0200 695.0000 1.0000
49.0300 677.0000 1.0000
49.0400 704.0000 1.0000
49.0500 720.0000 1.0000
49.0600 691.0000 1.0000
49.0700 715.0000 1.0000
49.0800 699.0000 1.0000
49.0900 694.0000 1.0000
49.1000 671.0000 1.0000
49.1100 649.0000 1.0000
49.1200 672.0000 1.0000
49.1300 651.0000 1.0000
49.1400 667.0000 1.0000
49.1500 665.0000 1.0000
49.1600 685.0000 1.0000
49.1700 669.0000 1.0000
49.1800 691.0000 1.0000
49.1900 657.0000 1.0000
49.2000 663.0000 1.0000
49.2100 648.0000 1.0000
49.2200 653.0000 1.0000
49.2300 648.0000 1.0000
49.2400 670.0000 1.0000
49.2500 689.0000 1.0000
49.2600 686.0000 1.0000
49.2700 679.0000 1.0000
49.2800 687.0000 1.0000
49.2900 699.0000 1.0000
49.3000 666.0000 1.0000
49.3100 693.0000 1.0000
49.3200 670.0000 1.0000
49.3300 691.0000 1.0000
49.3400 628.0000 1.0000
49.3500 669.0000 1.0000
49.3600 706.0000 1.0000
49.3700 679.0000 1.0000
49.3800 699.0000 1.0000
49.3900 690.0000 1.0000
49.4000 708.0000 1.0000
49.4100 709.0000 1.0000
49.4200 661.0000 1.0000
49.4300 679.0000 1.0000
49.4400 698.0000 1.0000
49.4500 695.0000 1.0000
49.4600 646.0000 1.0000
49.4700 655.0000 1.0000
49.4800 627.0000 1.0000
49.4900 676.0000 1.0000
49.5000 661.0000 1.0000
49.5100 692.0000 1.0000
49.5200 681.0000 1.0000
49.5300 706.0000 1.0000
49.5400 698.0000 1.0000
49.5500 686.0000 1.0000
49.5600 662.0000 1.0000
49.5700 705.0000 1.0000
49.5800 716.0000 1.0000
49.5900 663.0000 1.0000
49.6000 663.0000 1.0000
49.6100 652.0000 1.0000
49.6200 692.0000 1.0000
49.6300 676.0000 1.0000
49.6400 655.0000 1.0000
49.6500 709.0000 1.0000
49.6600 680.0000 1.0000
49.6700 645.0000 1.0000
49.6800 650.0000 1.0000
49.6900 669.0000 1.0000
49.7000 658.0000 1.0000
49.7100 670.0000 1.0000
49.7200 713.0000 1.0000
49.7300 690.0000 1.0000
49.7400 618.0000 1.0000
49.7500 680.0000 1.0000
49.7600 686.0000 1.0000
49.7700 651.0000 1.0000
49.7800 701.0000 1.0000
49.7900 692.0000 1.0000
49.8000 665.0000 1.0000
49.8100 667.0000 1.0000
49.8200 686.0000 1.0000
49.8300 727.0000 1.0000
49.8400 687.0000 1.0000
49.8500 728.0000 1.0000
49.8600 688.0000 1.0000
49.8700 714.0000 1.0000
49.8800 723.0000 1.0000
49.8900 696.0000 1.0000
49.9000 676.0000 1.0000
49.9100 669.0000 1.0000
49.9200 680.0000 1.0000
49.9300 694.0000 1.0000
49.9400 675.0000 1.0000
49.9500 691.0000 1.0000
49.9600 697.0000 1.0000
49.9700 670.0000 1.0000
49.9800 667.0000 1.0000
49.9900 697.0000 1.0000
50.0000 734.0000 1.0000
50.0100 664.0000 1.0000
50.0200 686.0000 1.0000
50.0300 708.0000 1.0000
50.0400 669.0000 1.0000
50.0500 653.0000 1.0000
50.0600 656.0000 1.0000
50.0700 669.0000 1.0000
50.0800 685.0000 1.0000
50.0900 680.0000 1.0000
50.1000 650.0000 1.0000
50.1100 657.0000 1.0000
50.1200 684.0000 1.0000
50.1300 695.0000 1.0000
50.1400 684.0000 1.0000
50.1500 694.0000 1.0000
50.1600 704.0000 1.0000
50.1700 712.0000 1.0000
50.1800 637.0000 1.0000
50.1900 666.0000 1.0000
50.2000 624.0000 1.0000
50.2100 704.0000 1.0000
50.2200 689.0000 1.0000
50.2300 665.0000 1.0000
50.2400 709.0000 1.0000
50.2500 714.0000 1.0000
50.2600 696.0000 1.0000
50.2700 682.0000 1.0000
50.2800 662.0000 1.0000
50.2900 659.0000 1.0000
50.3000 644.0000 1.0000
50.3100 642.0000 1.0000
50.3200 730.0000 1.0000
50.3300 745.0000 1.0000
50.3400 743.0000 1.0000
50.3500 702.0000 1.0000
50.3600 721.0000 1.0000
50.3700 707.0000 1.0000
50.3800 708.0000 1.0000
50.3900 662.0000 1.0000
50.4000 665.0000 1.0000
50.4100 676.0000 1.0000
50.4200 706.0000 1.0000
50.4300 703.0000 1.0000
50.4400 694.0000 1.0000
50.4500 685.0000 1.0000
50.4600 675.0000 1.0000
50.4700 664.0000 1.0000
50.4800 684.0000 1.0000
50.4900 674.0000 1.0000
50.5000 691.0000 1.0000
50.5100 756.0000 1.0000
50.5200 678.0000 1.0000
50.5300 685.0000 1.0000
50.5400 717.0000 1.0000
50.5500 688.0000 1.0000
50.5600 699.0000 1.0000
50.5700 725.0000 1.0000
50.5800 682.0000 1.0000
50.5900 690.0000 1.0000
50.6000 719.0000 1.0000
50.6100 705.0000 1.0000
50.6200 699.0000 1.0000
50.6300 725.0000 1.0000
50.6400 735.0000 1.0000
50.6500 710.0000 1.0000
50.6600 727.0000 1.0000
50.6700 698.0000 1.0000
50.6800 701.0000 1.0000
50.6900 664.0000 1.0000
50.7000 701.0000 1.0000
50.7100 663.0000 1.0000
50.7200 710.0000 1.0000
50.7300 688.0000 1.0000
50.7400 682.0000 1.0000
50.7500 679.0000 1.0000
50.7600 707.0000 1.0000
50.7700 676.0000 1.0000
50.7800 684.0000 1.0000
50.7900 730.0000 1.0000
50.8000 661.0000 1.0000
50.8100 683.0000 1.0000
50.8200 721.0000 1.0000
50.8300 711.0000 1.0000
50.8400 661.0000 1.0000
50.8500 676.0000 1.0000
50.8600 669.0000 1.0000
50.8700 688.0000 1.0000
50.8800 640.0000 1.0000
50.8900 702.0000 1.0000
50.9000 733.0000 1.0000
50.9100 708.0000 1.0000
50.9200 674.0000 1.0000
50.9300 668.0000 1.0000
50.9400 705.0000 1.0000
50.9500 692.0000 1.0000
50.9600 642.0000 1.0000
50.9700 653.0000 1.0000
50.9800 690.0000 1.0000
50.9900 685.0000 1.0000
51.0000 683.0000 1.0000
51.0100 726.0000 1.0000
51.0200 737.0000 1.0000
51.0300 715.0000 1.0000
51.0400 665.0000 1.0000
51.0500 695.0000 1.0000
51.0600 697.0000 1.0000
51.0700 668.0000 1.0000
51.0800 708.0000 1.0000
51.0900 725.0000 1.0000
51.1000 712.0000 1.0000
51.1100 714.0000 1.0000
51.1200 670.0000 1.0000
51.1300 688.0000 1.0000
51.1400 675.0000 1.0000
51.1500 660.0000 1.0000
51.1600 690.0000 1.0000
51.1700 680.0000 1.0000
51.1800 685.0000 1.0000
51.1900 675.0000 1.0000
51.2000 686.0000 1.0000
51.2100 744.0000 1.0000
51.2200 730.0000 1.0000
51.2300 693.0000 1.0000
51.2400 667.0000 1.0000
51.2500 703.0000 1.0000
51.2600 689.0000 1.0000
51.2700 714.0000 1.0000
51.2800 691.0000 1.0000
51.2900 692.0000 1.0000
51.3000 700.0000 1.0000
51.3100 711.0000 1.0000
51.3200 664.0000 1.0000
51.3300 693.0000 1.0000
51.3400 679.0000 1.0000
51.3500 666.0000 1.0000
51.3600 685.0000 1.0000
51.3700 735.0000 1.0000
51.3800 680.0000 1.0000
51.3900 685.0000 1.0000
51.4000 670.0000 1.0000
51.4100 673.0000 1.0000
51.4200 717.0000 1.0000
51.4300 672.0000 1.0000
51.4400 719.0000 1.0000
51.4500 720.0000 1.0000
51.4600 727.0000 1.0000
51.4700 724.0000 1.0000
51.4800 738.0000 1.0000
51.4900 686.0000 1.0000
51.5000 700.0000 1.0000
51.5100 706.0000 1.0000
51.5200 671.0000 1.0000
51.5300 682.0000 1.0000
51.5400 718.0000 1.0000
51.5500 716.0000 1.0000
51.5600 700.0000 1.0000
51.5700 708.0000 1.0000
51.5800 722.0000 1.0000
51.5900 738.0000 1.0000
51.6000 777.0000 1.0000
51.6100 713.0000 1.0000
51.6200 699.0000 1.0000
51.6300 715.0000 1.0000
51.6400 716.0000 1.0000
51.6500 713.0000 1.0000
51.6600 732.0000 1.0000
51.6700 711.0000 1.0000
51.6800 705.0000 1.0000
51.6900 753.0000 1.0000
51.7000 736.0000 1.0000
51.7100 716.0000 1.0000
51.7200 717.0000 1.0000
51.7300 759.0000 1.0000
51.7400 741.0000 1.0000
51.7500 750.0000 1.0000
51.7600 784.0000 1.0000
51.7700 778.0000 1.0000
51.7800 823.0000 1.0000
51.7900 764.0000 1.0000
51.8000 787.0000 1.0000
51.8100 831.0000 1.0000
51.8200 824.0000 1.0000
51.8300 801.0000 1.0000
51.8400 824.0000 1.0000
51.8500 822.0000 1.0000
51.8600 853.0000 1.0000
51.8700 900.0000 1.0000
51.8800 860.0000 1.0000
51.8900 922.0000 1.0000
51.9000 945.0000 1.0000
51.9100 925.0000 1.0000
51.9200 1010.0000 1.0000
51.9300 999.0000 1.0000
51.9400 1019.0000 1.0000
51.9500 990.0000 1.0000
51.9600 1038.0000 1.0000
51.9700 1145.0000 1.0000
51.9800 1163.0000 1.0000
51.9900 1147.0000 1.0000
52.0000 1199.0000 1.0000
52.0100 1242.0000 1.0000
52.0200 1313.0000 1.0000
52.0300 1315.0000 1.0000
52.0400 1421.0000 1.0000
52.0500 1503.0000 1.0000
52.0600 1586.0000 1.0000
52.0700 1692.0000 1.0000
52.0800 1743.0000 1.0000
52.0900 1878.0000 1.0000
52.1000 2047.0000 1.0000
52.1100 2289.0000 1.0000
52.1200 2451.0000 1.0000
52.1300 2651.0000 1.0000
52.1400 2847.0000 1.0000
52.1500 3081.0000 1.0000
52.1600 3346.0000 1.0000
52.1700 3673.0000 1.0000
52.1800 3953.0000 1.0000
52.1900 4202.0000 1.0000
52.2000 4538.0000 1.0000
52.2100 4606.0000 1.0000
52.2200 4796.0000 1.0000
52.2300 4987.0000 1.0000
52.2400 4946.0000 1.0000
52.2500 4941.0000 1.0000
52.2600 4823.0000 1.0000
52.2700 4673.0000 1.0000
52.2800 4472.0000 1.0000
52.2900 4310.0000 1.0000
52.3000 4208.0000 1.0000
52.3100 4096.0000 1.0000
52.3200 4012.0000 1.0000
52.3300 3978.0000 1.0000
52.3400 3829.0000 1.0000
52.3500 3823.0000 1.0000
52.3600 3670.0000 1.0000
52.3700 3663.0000 1.0000
52.3800 3347.0000 1.0000
52.3900 3310.0000 1.0000
52.4000 3164.0000 1.0000
52.4100 2922.0000 1.0000
52.4200 2724.0000 1.0000
52.4300 2552.0000 1.0000
52.4400 2439.0000 1.0000
52.4500 2192.0000 1.0000
52.4600 2029.0000 1.0000
52.4700 1850.0000 1.0000
52.4800 1735.0000 1.0000
52.4900 1621.0000 1.0000
52.5000 1592.0000 1.0000
52.5100 1487.0000 1.0000
52.5200 1402.0000 1.0000
52.5300 1394.0000 1.0000
52.5400 1327.0000 1.0000
52.5500 1264.0000 1.0000
52.5600 1257.0000 1.0000
52.5700 1196.0000 1.0000
52.5800 1121.0000 1.0000
52.5900 1043.0000 1.0000
52.6000 1004.0000 1.0000
52.6100 1026.0000 1.0000
52.6200 1018.0000 1.0000
52.6300 987.0000 1.0000
52.6400 998.0000 1.0000
52.6500 954.0000 1.0000
52.6600 963.0000 1.0000
52.6700 938.0000 1.0000
52.6800 913.0000 1.0000
52.6900 854.0000 1.0000
52.7000 884.0000 1.0000
52.7100 895.0000 1.0000
52.7200 911.0000 1.0000
52.7300 891.0000 1.0000
52.7400 832.0000 1.0000
52.7500 846.0000 1.0000
52.7600 831.0000 1.0000
52.7700 864.0000 1.0000
52.7800 821.0000 1.0000
52.7900 804.0000 1.0000
52.8000 803.0000 1.0000
52.8100 823.0000 1.0000
52.8200 790.0000 1.0000
52.8300 770.0000 1.0000
52.8400 810.0000 1.0000
52.8500 782.0000 1.0000
52.8600 706.0000 1.0000
52.8700 735.0000 1.0000
52.8800 753.0000 1.0000
52.8900 761.0000 1.0000
52.9000 732.0000 1.0000
52.9100 732.0000 1.0000
52.9200 762.0000 1.0000
52.9300 698.0000 1.0000
52.9400 766.0000 1.0000
52.9500 730.0000 1.0000
52.9600 762.0000 1.0000
52.9700 726.0000 1.0000
52.9800 733.0000 1.0000
52.9900 720.0000 1.0000
53.0000 714.0000 1.0000
53.0100 652.0000 1.0000
53.0200 711.0000 1.0000
53.0300 729.0000 1.0000
53.0400 754.0000 1.0000
53.0500 723.0000 1.0000
53.0600 739.0000 1.0000
53.0700 706.0000 1.0000
53.0800 740.0000 1.0000
53.0900 746.0000 1.0000
53.1000 745.0000 1.0000
53.1100 724.0000 1.0000
53.1200 681.0000 1.0000
53.1300 746.0000 1.0000
53.1400 773.0000 1.0000
53.1500 698.0000 1.0000
53.1600 672.0000 1.0000
53.1700 712.0000 1.0000
53.1800 709.0000 1.0000
53.1900 700.0000 1.0000
53.2000 738.0000 1.0000
53.2100 713.0000 1.0000
53.2200 697.0000 1.0000
53.2300 706.0000 1.0000
53.2400 687.0000 1.0000
53.2500 718.0000 1.0000
53.2600 713.0000 1.0000
53.2700 706.0000 1.0000
53.2800 694.0000 1.0000
53.2900 700.0000 1.0000
53.3000 695.0000 1.0000
53.3100 687.0000 1.0000
53.3200 662.0000 1.0000
53.3300 681.0000 1.0000
53.3400 668.0000 1.0000
53.3500 664.0000 1.0000
53.3600 659.0000 1.0000
53.3700 730.0000 1.0000
53.3800 728.0000 1.0000
53.3900 692.0000 1.0000
53.4000 668.0000 1.0000
53.4100 694.0000 1.0000
53.4200 687.0000 1.0000
53.4300 698.0000 1.0000
53.4400 658.0000 1.0000
53.4500 708.0000 1.0000
53.4600 690.0000 1.0000
53.4700 644.0000 1.0000
53.4800 650.0000 1.0000
53.4900 673.0000 1.0000
53.5000 677.0000 1.0000
53.5100 678.0000 1.0000
53.5200 653.0000 1.0000
53.5300 696.0000 1.0000
53.5400 720.0000 1.0000
53.5500 689.0000 1.0000
53.5600 667.0000 1.0000
53.5700 683.0000 1.0000
53.5800 692.0000 1.0000
53.5900 684.0000 1.0000
53.6000 680.0000 1.0000
53.6100 697.0000 1.0000
53.6200 671.0000 1.0000
53.6300 684.0000 1.0000
53.6400 693.0000 1.0000
53.6500 657.0000 1.0000
53.6600 698.0000 1.0000
53.6700 639.0000 1.0000
53.6800 664.0000 1.0000
53.6900 697.0000 1.0000
53.7000 658.0000 1.0000
53.7100 674.0000 1.0000
53.7200 651.0000 1.0000
53.7300 639.0000 1.0000
53.7400 680.0000 1.0000
53.7500 618.0000 1.0000
53.7600 689.0000 1.0000
53.7700 693.0000 1.0000
53.7800 681.0000 1.0000
53.7900 678.0000 1.0000
53.8000 713.0000 1.0000
53.8100 702.0000 1.0000
53.8200 690.0000 1.0000
53.8300 640.0000 1.0000
53.8400 653.0000 1.0000
53.8500 645.0000 1.0000
53.8600 673.0000 1.0000
53.8700 653.0000 1.0000
53.8800 651.0000 1.0000
53.8900 669.0000 1.0000
53.9000 651.0000 1.0000
53.9100 657.0000 1.0000
53.9200 676.0000 1.0000
53.9300 710.0000 1.0000
53.9400 645.0000 1.0000
53.9500 667.0000 1.0000
53.9600 689.0000 1.0000
53.9700 669.0000 1.0000
53.9800 686.0000 1.0000
53.9900 638.0000 1.0000
54.0000 664.0000 1.0000
54.0100 606.0000 1.0000
54.0200 656.0000 1.0000
54.0300 679.0000 1.0000
54.0400 655.0000 1.0000
54.0500 670.0000 1.0000
54.0600 628.0000 1.0000
54.0700 663.0000 1.0000
54.0800 659.0000 1.0000
54.0900 672.0000 1.0000
54.1000 672.0000 1.0000
54.1100 645.0000 1.0000
54.1200 695.0000 1.0000
54.1300 665.0000 1.0000
54.1400 681.0000 1.0000
54.1500 683.0000 1.0000
54.1600 662.0000 1.0000
54.1700 704.0000 1.0000
54.1800 701.0000 1.0000
54.1900 698.0000 1.0000
54.2000 658.0000 1.0000
54.2100 707.0000 1.0000
54.2200 699.0000 1.0000
54.2300 657.0000 1.0000
54.2400 687.0000 1.0000
54.2500 695.0000 1.0000
54.2600 642.0000 1.0000
54.2700 685.0000 1.0000
54.2800 707.0000 1.0000
54.2900 662.0000 1.0000
54.3000 704.0000 1.0000
54.3100 654.0000 1.0000
54.3200 627.0000 1.0000
54.3300 654.0000 1.0000
54.3400 633.0000 1.0000
54.3500 654.0000 1.0000
54.3600 628.0000 1.0000
54.3700 667.0000 1.0000
54.3800 646.0000 1.0000
54.3900 713.0000 1.0000
54.4000 677.0000 1.0000
54.4100 659.0000 1.0000
54.4200 637.0000 1.0000
54.4300 673.0000 1.0000
54.4400 678.0000 1.0000
54.4500 669.0000 1.0000
54.4600 669.0000 1.0000
54.4700 695.0000 1.0000
54.4800 647.0000 1.0000
54.4900 650.0000 1.0000
54.5000 691.0000 1.0000
54.5100 664.0000 1.0000
54.5200 740.0000 1.0000
54.5300 673.0000 1.0000
54.5400 651.0000 1.0000
54.5500 738.0000 1.0000
54.5600 674.0000 1.0000
54.5700 672.0000 1.0000
54.5800 690.0000 1.0000
54.5900 690.0000 1.0000
54.6000 674.0000 1.0000
54.6100 696.0000 1.0000
54.6200 713.0000 1.0000
54.6300 700.0000 1.0000
54.6400 692.0000 1.0000
54.6500 679.0000 1.0000
54.6600 658.0000 1.0000
54.6700 684.0000 1.0000
54.6800 679.0000 1.0000
54.6900 724.0000 1.0000
54.7000 699.0000 1.0000
54.7100 691.0000 1.0000
54.7200 666.0000 1.0000
54.7300 696.0000 1.0000
54.7400 718.0000 1.0000
54.7500 721.0000 1.0000
54.7600 726.0000 1.0000
54.7700 719.0000 1.0000
54.7800 695.0000 1.0000
54.7900 691.0000 1.0000
54.8000 724.0000 1.0000
54.8100 679.0000 1.0000
54.8200 701.0000 1.0000
54.8300 730.0000 1.0000
54.8400 737.0000 1.0000
54.8500 728.0000 1.0000
54.8600 695.0000 1.0000
54.8700 747.0000 1.0000
54.8800 734.0000 1.0000
54.8900 740.0000 1.0000
54.9000 711.0000 1.0000
54.9100 753.0000 1.0000
54.9200 718.0000 1.0000
54.9300 724.0000 1.0000
54.9400 753.0000 1.0000
54.9500 752.0000 1.0000
54.9600 717.0000 1.0000
54.9700 788.0000 1.0000
54.9800 761.0000 1.0000
54.9900 772.0000 1.0000
55.0000 769.0000 1.0000
55.0100 779.0000 1.0000
55.0200 772.0000 1.0000
55.0300 781.0000 1.0000
55.0400 807.0000 1.0000
55.0500 805.0000 1.0000
55.0600 850.0000 1.0000
55.0700 827.0000 1.0000
55.0800 845.0000 1.0000
55.0900 849.0000 1.0000
55.1000 830.0000 1.0000
55.1100 831.0000 1.0000
55.1200 896.0000 1.0000
55.1300 875.0000 1.0000
55.1400 906.0000 1.0000
55.1500 949.0000 1.0000
55.1600 929.0000 1.0000
55.1700 944.0000 1.0000
55.1800 961.0000 1.0000
55.1900 948.0000 1.0000
55.2000 974.0000 1.0000
55.2100 1047.0000 1.0000
55.2200 1060.0000 1.0000
55.2300 1013.0000 1.0000
55.2400 1059.0000 1.0000
55.2500 1080.0000 1.0000
55.2600 1089.0000 1.0000
55.2700 1091.0000 1.0000
55.2800 1033.0000 1.0000
55.2900 1071.0000 1.0000
55.3000 1046.0000 1.0000
55.3100 1022.0000 1.0000
55.3200 1005.0000 1.0000
55.3300 1040.0000 1.0000
55.3400 1024.0000 1.0000
55.3500 988.0000 1.0000
55.3600 977.0000 1.0000
55.3700 976.0000 1.0000
55.3800 986.0000 1.0000
55.3900 991.0000 1.0000
55.4000 989.0000 1.0000
55.4100 943.0000 1.0000
55.4200 930.0000 1.0000
55.4300 924.0000 1.0000
55.4400 889.0000 1.0000
55.4500 879.0000 1.0000
55.4600 876.0000 1.0000
55.4700 885.0000 1.0000
55.4800 838.0000 1.0000
55.4900 843.0000 1.0000
55.5000 827.0000 1.0000
55.5100 799.0000 1.0000
55.5200 786.0000 1.0000
55.5300 813.0000 1.0000
55.5400 755.0000 1.0000
55.5500 774.0000 1.0000
55.5600 787.0000 1.0000
55.5700 716.0000 1.0000
55.5800 766.0000 1.0000
55.5900 752.0000 1.0000
55.6000 709.0000 1.0000
55.6100 654.0000 1.0000
55.6200 676.0000 1.0000
55.6300 715.0000 1.0000
55.6400 726.0000 1.0000
55.6500 733.0000 1.0000
55.6600 749.0000 1.0000
55.6700 693.0000 1.0000
55.6800 704.0000 1.0000
55.6900 718.0000 1.0000
55.7000 711.0000 1.0000
55.7100 710.0000 1.0000
55.7200 675.0000 1.0000
55.7300 698.0000 1.0000
55.7400 641.0000 1.0000
55.7500 702.0000 1.0000
55.7600 700.0000 1.0000
55.7700 691.0000 1.0000
55.7800 732.0000 1.0000
55.7900 672.0000 1.0000
55.8000 687.0000 1.0000
55.8100 628.0000 1.0000
55.8200 664.0000 1.0000
55.8300 690.0000 1.0000
55.8400 724.0000 1.0000
55.8500 683.0000 1.0000
55.8600 679.0000 1.0000
55.8700 684.0000 1.0000
55.8800 691.0000 1.0000
55.8900 655.0000 1.0000
55.9000 677.0000 1.0000
55.9100 697.0000 1.0000
55.9200 659.0000 1.0000
55.9300 694.0000 1.0000
55.9400 668.0000 1.0000
55.9500 690.0000 1.0000
55.9600 650.0000 1.0000
55.9700 667.0000 1.0000
55.9800 665.0000 1.0000
55.9900 628.0000 1.0000
56.0000 649.0000 1.0000
56.0100 648.0000 1.0000
56.0200 644.0000 1.0000
56.0300 685.0000 1.0000
56.0400 649.0000 1.0000
56.0500 647.0000 1.0000
56.0600 703.0000 1.0000
56.0700 691.0000 1.0000
56.0800 692.0000 1.0000
56.0900 680.0000 1.0000
56.1000 658.0000 1.0000
56.1100 639.0000 1.0000
56.1200 644.0000 1.0000
56.1300 673.0000 1.0000
56.1400 667.0000 1.0000
56.1500 675.0000 1.0000
56.1600 600.0000 1.0000
56.1700 633.0000 1.0000
56.1800 657.0000 1.0000
56.1900 636.0000 1.0000
56.2000 672.0000 1.0000
56.2100 620.0000 1.0000
56.2200 650.0000 1.0000
56.2300 622.0000 1.0000
56.2400 672.0000 1.0000
56.2500 648.0000 1.0000
56.2600 640.0000 1.0000
56.2700 699.0000 1.0000
56.2800 650.0000 1.0000
56.2900 631.0000 1.0000
56.3000 662.0000 1.0000
56.3100 632.0000 1.0000
56.3200 648.0000 1.0000
56.3300 621.0000 1.0000
56.3400 610.0000 1.0000
56.3500 637.0000 1.0000
56.3600 645.0000 1.0000
56.3700 670.0000 1.0000
56.3800 658.0000 1.0000
56.3900 672.0000 1.0000
56.4000 628.0000 1.0000
56.4100 672.0000 1.0000
56.4200 664.0000 1.0000
56.4300 633.0000 1.0000
56.4400 634.0000 1.0000
56.4500 643.0000 1.0000
56.4600 623.0000 1.0000
56.4700 631.0000 1.0000
56.4800 633.0000 1.0000
56.4900 650.0000 1.0000
56.5000 642.0000 1.0000
56.5100 656.0000 1.0000
56.5200 648.0000 1.0000
56.5300 614.0000 1.0000
56.5400 675.0000 1.0000
56.5500 635.0000 1.0000
56.5600 603.0000 1.0000
56.5700 663.0000 1.0000
56.5800 695.0000 1.0000
56.5900 681.0000 1.0000
56.6000 682.0000 1.0000
56.6100 648.0000 1.0000
56.6200 607.0000 1.0000
56.6300 663.0000 1.0000
56.6400 652.0000 1.0000
56.6500 611.0000 1.0000
56.6600 669.0000 1.0000
56.6700 645.0000 1.0000
56.6800 602.0000 1.0000
56.6900 655.0000 1.0000
56.7000 650.0000 1.0000
56.7100 676.0000 1.0000
56.7200 677.0000 1.0000
56.7300 635.0000 1.0000
56.7400 650.0000 1.0000
56.7500 605.0000 1.0000
56.7600 671.0000 1.0000
56.7700 638.0000 1.0000
56.7800 642.0000 1.0000
56.7900 675.0000 1.0000
56.8000 669.0000 1.0000
56.8100 684.0000 1.0000
56.8200 659.0000 1.0000
56.8300 663.0000 1.0000
56.8400 637.0000 1.0000
56.8500 596.0000 1.0000
56.8600 595.0000 1.0000
56.8700 603.0000 1.0000
56.8800 643.0000 1.0000
56.8900 624.0000 1.0000
56.9000 637.0000 1.0000
56.9100 606.0000 1.0000
56.9200 668.0000 1.0000
56.9300 635.0000 1.0000
56.9400 617.0000 1.0000
56.9500 654.0000 1.0000
56.9600 608.0000 1.0000
56.9700 614.0000 1.0000
56.9800 637.0000 1.0000
56.9900 648.0000 1.0000
57.0000 655.0000 1.0000
57.0100 652.0000 1.0000
57.0200 617.0000 1.0000
57.0300 648.0000 1.0000
57.0400 665.0000 1.0000
57.0500 646.0000 1.0000
57.0600 661.0000 1.0000
57.0700 626.0000 1.0000
57.0800 596.0000 1.0000
57.0900 624.0000 1.0000
57.1000 629.0000 1.0000
57.1100 648.0000 1.0000
57.1200 640.0000 1.0000
57.1300 619.0000 1.0000
57.1400 623.0000 1.0000
57.1500 622.0000 1.0000
57.1600 618.0000 1.0000
57.1700 657.0000 1.0000
57.1800 660.0000 1.0000
57.1900 656.0000 1.0000
57.2000 639.0000 1.0000
57.2100 652.0000 1.0000
57.2200 671.0000 1.0000
57.2300 617.0000 1.0000
57.2400 654.0000 1.0000
57.2500 635.0000 1.0000
57.2600 647.0000 1.0000
57.2700 662.0000 1.0000
57.2800 638.0000 1.0000
57.2900 675.0000 1.0000
57.3000 622.0000 1.0000
57.3100 647.0000 1.0000
57.3200 635.0000 1.0000
57.3300 648.0000 1.0000
57.3400 605.0000 1.0000
57.3500 648.0000 1.0000
57.3600 652.0000 1.0000
57.3700 657.0000 1.0000
57.3800 630.0000 1.0000
57.3900 618.0000 1.0000
57.4000 652.0000 1.0000
57.4100 651.0000 1.0000
57.4200 634.0000 1.0000
57.4300 596.0000 1.0000
57.4400 635.0000 1.0000
57.4500 615.0000 1.0000
57.4600 656.0000 1.0000
57.4700 639.0000 1.0000
57.4800 606.0000 1.0000
57.4900 622.0000 1.0000
57.5000 617.0000 1.0000
57.5100 627.0000 1.0000
57.5200 656.0000 1.0000
57.5300 657.0000 1.0000
57.5400 651.0000 1.0000
57.5500 624.0000 1.0000
57.5600 624.0000 1.0000
57.5700 609.0000 1.0000
57.5800 600.0000 1.0000
57.5900 586.0000 1.0000
57.6000 589.0000 1.0000
57.6100 630.0000 1.0000
57.6200 636.0000 1.0000
57.6300 625.0000 1.0000
57.6400 640.0000 1.0000
57.6500 665.0000 1.0000
57.6600 629.0000 1.0000
57.6700 655.0000 1.0000
57.6800 629.0000 1.0000
57.6900 668.0000 1.0000
57.7000 638.0000 1.0000
57.7100 661.0000 1.0000
57.7200 661.0000 1.0000
57.7300 638.0000 1.0000
57.7400 633.0000 1.0000
57.7500 634.0000 1.0000
57.7600 672.0000 1.0000
57.7700 603.0000 1.0000
57.7800 643.0000 1.0000
57.7900 617.0000 1.0000
57.8000 638.0000 1.0000
57.8100 596.0000 1.0000
57.8200 614.0000 1.0000
57.8300 646.0000 1.0000
57.8400 666.0000 1.0000
57.8500 650.0000 1.0000
57.8600 668.0000 1.0000
57.8700 651.0000 1.0000
57.8800 665.0000 1.0000
57.8900 624.0000 1.0000
57.9000 622.0000 1.0000
57.9100 664.0000 1.0000
57.9200 696.0000 1.0000
57.9300 671.0000 1.0000
57.9400 696.0000 1.0000
57.9500 634.0000 1.0000
57.9600 656.0000 1.0000
57.9700 643.0000 1.0000
57.9800 610.0000 1.0000
57.9900 642.0000 1.0000
58.0000 704.0000 1.0000
58.0100 655.0000 1.0000
58.0200 662.0000 1.0000
58.0300 622.0000 1.0000
58.0400 615.0000 1.0000
58.0500 672.0000 1.0000
58.0600 675.0000 1.0000
58.0700 647.0000 1.0000
58.0800 634.0000 1.0000
58.0900 646.0000 1.0000
58.1000 604.0000 1.0000
58.1100 625.0000 1.0000
58.1200 657.0000 1.0000
58.1300 625.0000 1.0000
58.1400 637.0000 1.0000
58.1500 640.0000 1.0000
58.1600 653.0000 1.0000
58.1700 673.0000 1.0000
58.1800 656.0000 1.0000
58.1900 633.0000 1.0000
58.2000 678.0000 1.0000
58.2100 654.0000 1.0000
58.2200 662.0000 1.0000
58.2300 671.0000 1.0000
58.2400 645.0000 1.0000
58.2500 648.0000 1.0000
58.2600 624.0000 1.0000
58.2700 614.0000 1.0000
58.2800 681.0000 1.0000
58.2900 638.0000 1.0000
58.3000 659.0000 1.0000
58.3100 654.0000 1.0000
58.3200 658.0000 1.0000
58.3300 619.0000 1.0000
58.3400 631.0000 1.0000
58.3500 669.0000 1.0000
58.3600 647.0000 1.0000
58.3700 649.0000 1.0000
58.3800 646.0000 1.0000
58.3900 655.0000 1.0000
58.4000 659.0000 1.0000
58.4100 640.0000 1.0000
58.4200 643.0000 1.0000
58.4300 621.0000 1.0000
58.4400 667.0000 1.0000
58.4500 672.0000 1.0000
58.4600 661.0000 1.0000
58.4700 634.0000 1.0000
58.4800 711.0000 1.0000
58.4900 646.0000 1.0000
58.5000 634.0000 1.0000
58.5100 653.0000 1.0000
58.5200 610.0000 1.0000
58.5300 629.0000 1.0000
58.5400 608.0000 1.0000
58.5500 578.0000 1.0000
58.5600 627.0000 1.0000
58.5700 625.0000 1.0000
58.5800 644.0000 1.0000
58.5900 624.0000 1.0000
58.6000 635.0000 1.0000
58.6100 633.0000 1.0000
58.6200 630.0000 1.0000
58.6300 674.0000 1.0000
58.6400 633.0000 1.0000
58.6500 645.0000 1.0000
58.6600 622.0000 1.0000
58.6700 646.0000 1.0000
58.6800 658.0000 1.0000
58.6900 637.0000 1.0000
58.7000 684.0000 1.0000
58.7100 640.0000 1.0000
58.7200 655.0000 1.0000
58.7300 629.0000 1.0000
58.7400 605.0000 1.0000
58.7500 655.0000 1.0000
58.7600 629.0000 1.0000
58.7700 628.0000 1.0000
58.7800 645.0000 1.0000
58.7900 620.0000 1.0000
58.8000 609.0000 1.0000
58.8100 621.0000 1.0000
58.8200 675.0000 1.0000
58.8300 657.0000 1.0000
58.8400 675.0000 1.0000
58.8500 662.0000 1.0000
58.8600 626.0000 1.0000
58.8700 616.0000 1.0000
58.8800 621.0000 1.0000
58.8900 650.0000 1.0000
58.9000 630.0000 1.0000
58.9100 646.0000 1.0000
58.9200 654.0000 1.0000
58.9300 633.0000 1.0000
58.9400 654.0000 1.0000
58.9500 662.0000 1.0000
58.9600 605.0000 1.0000
58.9700 612.0000 1.0000
58.9800 648.0000 1.0000
58.9900 620.0000 1.0000
59.0000 615.0000 1.0000
59.0100 635.0000 1.0000
59.0200 622.0000 1.0000
59.0300 654.0000 1.0000
59.0400 635.0000 1.0000
59.0500 676.0000 1.0000
59.0600 603.0000 1.0000
59.0700 642.0000 1.0000
59.0800 618.0000 1.0000
59.0900 619.0000 1.0000
59.1000 638.0000 1.0000
59.1100 673.0000 1.0000
59.1200 620.0000 1.0000
59.1300 661.0000 1.0000
59.1400 635.0000 1.0000
59.1500 634.0000 1.0000
59.1600 662.0000 1.0000
59.1700 648.0000 1.0000
59.1800 626.0000 1.0000
59.1900 650.0000 1.0000
59.2000 658.0000 1.0000
59.2100 636.0000 1.0000
59.2200 643.0000 1.0000
59.2300 647.0000 1.0000
59.2400 653.0000 1.0000
59.2500 662.0000 1.0000
59.2600 679.0000 1.0000
59.2700 651.0000 1.0000
59.2800 679.0000 1.0000
59.2900 672.0000 1.0000
59.3000 676.0000 1.0000
59.3100 655.0000 1.0000
59.3200 664.0000 1.0000
59.3300 643.0000 1.0000
59.3400 635.0000 1.0000
59.3500 672.0000 1.0000
59.3600 648.0000 1.0000
59.3700 615.0000 1.0000
59.3800 624.0000 1.0000
59.3900 662.0000 1.0000
59.4000 705.0000 1.0000
59.4100 685.0000 1.0000
59.4200 612.0000 1.0000
59.4300 634.0000 1.0000
59.4400 644.0000 1.0000
59.4500 662.0000 1.0000
59.4600 635.0000 1.0000
59.4700 637.0000 1.0000
59.4800 649.0000 1.0000
59.4900 630.0000 1.0000
59.5000 612.0000 1.0000
59.5100 610.0000 1.0000
59.5200 663.0000 1.0000
59.5300 602.0000 1.0000
59.5400 636.0000 1.0000
59.5500 649.0000 1.0000
59.5600 649.0000 1.0000
59.5700 648.0000 1.0000
59.5800 647.0000 1.0000
59.5900 648.0000 1.0000
59.6000 644.0000 1.0000
59.6100 669.0000 1.0000
59.6200 648.0000 1.0000
59.6300 619.0000 1.0000
59.6400 614.0000 1.0000
59.6500 634.0000 1.0000
59.6600 625.0000 1.0000
59.6700 619.0000 1.0000
59.6800 620.0000 1.0000
59.6900 660.0000 1.0000
59.7000 620.0000 1.0000
59.7100 648.0000 1.0000
59.7200 611.0000 1.0000
59.7300 627.0000 1.0000
59.7400 620.0000 1.0000
59.7500 608.0000 1.0000
59.7600 659.0000 1.0000
59.7700 651.0000 1.0000
59.7800 606.0000 1.0000
59.7900 641.0000 1.0000
59.8000 630.0000 1.0000
59.8100 609.0000 1.0000
59.8200 612.0000 1.0000
59.8300 661.0000 1.0000
59.8400 631.0000 1.0000
59.8500 632.0000 1.0000
59.8600 611.0000 1.0000
59.8700 669.0000 1.0000
59.8800 634.0000 1.0000
59.8900 631.0000 1.0000
59.9000 674.0000 1.0000
59.9100 618.0000 1.0000
59.9200 648.0000 1.0000
59.9300 616.0000 1.0000
59.9400 703.0000 1.0000
59.9500 640.0000 1.0000
59.9600 653.0000 1.0000
59.9700 624.0000 1.0000
59.9800 613.0000 1.0000
59.9900 609.0000 1.0000
60.0000 598.0000 1.0000
60.0100 630.0000 1.0000
60.0200 636.0000 1.0000
60.0300 640.0000 1.0000
60.0400 649.0000 1.0000
60.0500 652.0000 1.0000
60.0600 659.0000 1.0000
60.0700 631.0000 1.0000
60.0800 661.0000 1.0000
60.0900 646.0000 1.0000
60.1000 640.0000 1.0000
60.1100 670.0000 1.0000
60.1200 641.0000 1.0000
60.1300 629.0000 1.0000
60.1400 663.0000 1.0000
60.1500 623.0000 1.0000
60.1600 660.0000 1.0000
60.1700 659.0000 1.0000
60.1800 643.0000 1.0000
60.1900 628.0000 1.0000
60.2000 639.0000 1.0000
60.2100 644.0000 1.0000
60.2200 609.0000 1.0000
60.2300 603.0000 1.0000
60.2400 633.0000 1.0000
60.2500 626.0000 1.0000
60.2600 658.0000 1.0000
60.2700 635.0000 1.0000
60.2800 641.0000 1.0000
60.2900 663.0000 1.0000
60.3000 654.0000 1.0000
60.3100 649.0000 1.0000
60.3200 655.0000 1.0000
60.3300 626.0000 1.0000
60.3400 619.0000 1.0000
60.3500 647.0000 1.0000
60.3600 683.0000 1.0000
60.3700 618.0000 1.0000
60.3800 610.0000 1.0000
60.3900 634.0000 1.0000
60.4000 644.0000 1.0000
60.4100 623.0000 1.0000
60.4200 630.0000 1.0000
60.4300 625.0000 1.0000
60.4400 632.0000 1.0000
60.4500 598.0000 1.0000
60.4600 594.0000 1.0000
60.4700 611.0000 1.0000
60.4800 651.0000 1.0000
60.4900 618.0000 1.0000
60.5000 661.0000 1.0000
60.5100 620.0000 1.0000
60.5200 620.0000 1.0000
60.5300 659.0000 1.0000
60.5400 633.0000 1.0000
60.5500 646.0000 1.0000
60.5600 681.0000 1.0000
60.5700 675.0000 1.0000
60.5800 612.0000 1.0000
60.5900 641.0000 1.0000
60.6000 658.0000 1.0000
60.6100 666.0000 1.0000
60.6200 642.0000 1.0000
60.6300 613.0000 1.0000
60.6400 666.0000 1.0000
60.6500 648.0000 1.0000
60.6600 647.0000 1.0000
60.6700 618.0000 1.0000
60.6800 607.0000 1.0000
60.6900 642.0000 1.0000
60.7000 646.0000 1.0000
60.7100 639.0000 1.0000
60.7200 612.0000 1.0000
60.7300 669.0000 1.0000
60.7400 627.0000 1.0000
60.7500 630.0000 1.0000
60.7600 634.0000 1.0000
60.7700 667.0000 1.0000
60.7800 635.0000 1.0000
60.7900 633.0000 1.0000
60.8000 595.0000 1.0000
60.8100 605.0000 1.0000
60.8200 612.0000 1.0000
60.8300 648.0000 1.0000
60.8400 606.0000 1.0000
60.8500 621.0000 1.0000
60.8600 659.0000 1.0000
60.8700 651.0000 1.0000
60.8800 651.0000 1.0000
60.8900 651.0000 1.0000
60.9000 646.0000 1.0000
60.9100 640.0000 1.0000
60.9200 614.0000 1.0000
60.9300 578.0000 1.0000
60.9400 634.0000 1.0000
60.9500 638.0000 1.0000
60.9600 633.0000 1.0000
60.9700 643.0000 1.0000
60.9800 661.0000 1.0000
60.9900 616.0000 1.0000
61.0000 651.0000 1.0000
61.0100 635.0000 1.0000
61.0200 625.0000 1.0000
61.0300 637.0000 1.0000
61.0400 680.0000 1.0000
61.0500 674.0000 1.0000
61.0600 621.0000 1.0000
61.0700 661.0000 1.0000
61.0800 674.0000 1.0000
61.0900 615.0000 1.0000
61.1000 616.0000 1.0000
61.1100 636.0000 1.0000
61.1200 622.0000 1.0000
61.1300 627.0000 1.0000
61.1400 631.0000 1.0000
61.1500 615.0000 1.0000
61.1600 633.0000 1.0000
61.1700 649.0000 1.0000
61.1800 664.0000 1.0000
61.1900 690.0000 1.0000
61.2000 663.0000 1.0000
61.2100 644.0000 1.0000
61.2200 627.0000 1.0000
61.2300 641.0000 1.0000
61.2400 640.0000 1.0000
61.2500 636.0000 1.0000
61.2600 681.0000 1.0000
61.2700 659.0000 1.0000
61.2800 658.0000 1.0000
61.2900 646.0000 1.0000
61.3000 645.0000 1.0000
61.3100 693.0000 1.0000
61.3200 668.0000 1.0000
61.3300 656.0000 1.0000
61.3400 649.0000 1.0000
61.3500 647.0000 1.0000
61.3600 673.0000 1.0000
61.3700 683.0000 1.0000
61.3800 709.0000 1.0000
61.3900 670.0000 1.0000
61.4000 680.0000 1.0000
61.4100 640.0000 1.0000
61.4200 677.0000 1.0000
61.4300 651.0000 1.0000
61.4400 660.0000 1.0000
61.4500 650.0000 1.0000
61.4600 664.0000 1.0000
61.4700 614.0000 1.0000
61.4800 657.0000 1.0000
61.4900 665.0000 1.0000
61.5000 667.0000 1.0000
61.5100 653.0000 1.0000
61.5200 669.0000 1.0000
61.5300 605.0000 1.0000
61.5400 696.0000 1.0000
61.5500 629.0000 1.0000
61.5600 704.0000 1.0000
61.5700 668.0000 1.0000
61.5800 706.0000 1.0000
61.5900 672.0000 1.0000
61.6000 640.0000 1.0000
61.6100 661.0000 1.0000
61.6200 670.0000 1.0000
61.6300 672.0000 1.0000
61.6400 676.0000 1.0000
61.6500 709.0000 1.0000
61.6600 652.0000 1.0000
61.6700 617.0000 1.0000
61.6800 703.0000 1.0000
61.6900 670.0000 1.0000
61.7000 671.0000 1.0000
61.7100 680.0000 1.0000
61.7200 693.0000 1.0000
61.7300 665.0000 1.0000
61.7400 728.0000 1.0000
61.7500 720.0000 1.0000
61.7600 728.0000 1.0000
61.7700 695.0000 1.0000
61.7800 760.0000 1.0000
61.7900 714.0000 1.0000
61.8000 750.0000 1.0000
61.8100 768.0000 1.0000
61.8200 730.0000 1.0000
61.8300 750.0000 1.0000
61.8400 752.0000 1.0000
61.8500 760.0000 1.0000
61.8600 804.0000 1.0000
61.8700 708.0000 1.0000
61.8800 783.0000 1.0000
61.8900 792.0000 1.0000
61.9000 758.0000 1.0000
61.9100 785.0000 1.0000
61.9200 772.0000 1.0000
61.9300 791.0000 1.0000
61.9400 855.0000 1.0000
61.9500 839.0000 1.0000
61.9600 864.0000 1.0000
61.9700 843.0000 1.0000
61.9800 912.0000 1.0000
61.9900 913.0000 1.0000
62.0000 935.0000 1.0000
62.0100 938.0000 1.0000
62.0200 951.0000 1.0000
62.0300 981.0000 1.0000
62.0400 993.0000 1.0000
62.0500 1000.0000 1.0000
62.0600 1045.0000 1.0000
62.0700 1029.0000 1.0000
62.0800 1099.0000 1.0000
62.0900 1123.0000 1.0000
62.1000 1120.0000 1.0000
62.1100 1181.0000 1.0000
62.1200 1213.0000 1.0000
62.1300 1240.0000 1.0000
62.1400 1308.0000 1.0000
62.1500 1357.0000 1.0000
62.1600 1364.0000 1.0000
62.1700 1485.0000 1.0000
62.1800 1487.0000 1.0000
62.1900 1453.0000 1.0000
62.2000 1503.0000 1.0000
62.2100 1501.0000 1.0000
62.2200 1571.0000 1.0000
62.2300 1616.0000 1.0000
62.2400 1563.0000 1.0000
62.2500 1647.0000 1.0000
62.2600 1663.0000 1.0000
62.2700 1649.0000 1.0000
62.2800 1677.0000 1.0000
62.2900 1646.0000 1.0000
62.3000 1594.0000 1.0000
62.3100 1579.0000 1.0000
62.3200 1599.0000 1.0000
62.3300 1573.0000 1.0000
62.3400 1572.0000 1.0000
62.3500 1562.0000 1.0000
62.3600 1501.0000 1.0000
62.3700 1596.0000 1.0000
62.3800 1569.0000 1.0000
62.3900 1475.0000 1.0000
62.4000 1463.0000 1.0000
62.4100 1491.0000 1.0000
62.4200 1378.0000 1.0000
62.4300 1392.0000 1.0000
62.4400 1384.0000 1.0000
62.4500 1396.0000 1.0000
62.4600 1327.0000 1.0000
62.4700 1317.0000 1.0000
62.4800 1279.0000 1.0000
62.4900 1249.0000 1.0000
62.5000 1267.0000 1.0000
62.5100 1173.0000 1.0000
62.5200 1113.0000 1.0000
62.5300 1128.0000 1.0000
62.5400 1063.0000 1.0000
62.5500 1100.0000 1.0000
62.5600 1025.0000 1.0000
62.5700 1040.0000 1.0000
62.5800 1058.0000 1.0000
62.5900 986.0000 1.0000
62.6000 959.0000 1.0000
62.6100 953.0000 1.0000
62.6200 944.0000 1.0000
62.6300 924.0000 1.0000
62.6400 936.0000 1.0000
62.6500 877.0000 1.0000
62.6600 841.0000 1.0000
62.6700 819.0000 1.0000
62.6800 823.0000 1.0000
62.6900 869.0000 1.0000
62.7000 828.0000 1.0000
62.7100 871.0000 1.0000
62.7200 855.0000 1.0000
62.7300 841.0000 1.0000
62.7400 781.0000 1.0000
62.7500 739.0000 1.0000
62.7600 766.0000 1.0000
62.7700 774.0000 1.0000
62.7800 775.0000 1.0000
62.7900 791.0000 1.0000
62.8000 751.0000 1.0000
62.8100 756.0000 1.0000
62.8200 753.0000 1.0000
62.8300 732.0000 1.0000
62.8400 717.0000 1.0000
62.8500 730.0000 1.0000
62.8600 750.0000 1.0000
62.8700 695.0000 1.0000
62.8800 743.0000 1.0000
62.8900 741.0000 1.0000
62.9000 713.0000 1.0000
62.9100 750.0000 1.0000
62.9200 737.0000 1.0000
62.9300 730.0000 1.0000
62.9400 718.0000 1.0000
62.9500 774.0000 1.0000
62.9600 712.0000 1.0000
62.9700 678.0000 1.0000
62.9800 666.0000 1.0000
62.9900 710.0000 1.0000
63.0000 777.0000 1.0000
63.0100 729.0000 1.0000
63.0200 689.0000 1.0000
63.0300 678.0000 1.0000
63.0400 696.0000 1.0000
63.0500 695.0000 1.0000
63.0600 731.0000 1.0000
63.0700 672.0000 1.0000
63.0800 690.0000 1.0000
63.0900 706.0000 1.0000
63.1000 679.0000 1.0000
63.1100 687.0000 1.0000
63.1200 710.0000 1.0000
63.1300 693.0000 1.0000
63.1400 651.0000 1.0000
63.1500 653.0000 1.0000
63.1600 679.0000 1.0000
63.1700 712.0000 1.0000
63.1800 678.0000 1.0000
63.1900 684.0000 1.0000
63.2000 670.0000 1.0000
63.2100 640.0000 1.0000
63.2200 680.0000 1.0000
63.2300 705.0000 1.0000
63.2400 726.0000 1.0000
63.2500 680.0000 1.0000
63.2600 697.0000 1.0000
63.2700 723.0000 1.0000
63.2800 686.0000 1.0000
63.2900 665.0000 1.0000
63.3000 635.0000 1.0000
63.3100 652.0000 1.0000
63.3200 663.0000 1.0000
63.3300 667.0000 1.0000
63.3400 674.0000 1.0000
63.3500 712.0000 1.0000
63.3600 698.0000 1.0000
63.3700 662.0000 1.0000
63.3800 674.0000 1.0000
63.3900 691.0000 1.0000
63.4000 677.0000 1.0000
63.4100 684.0000 1.0000
63.4200 703.0000 1.0000
63.4300 678.0000 1.0000
63.4400 650.0000 1.0000
63.4500 699.0000 1.0000
63.4600 656.0000 1.0000
63.4700 697.0000 1.0000
63.4800 656.0000 1.0000
63.4900 715.0000 1.0000
63.5000 647.0000 1.0000
63.5100 637.0000 1.0000
63.5200 685.0000 1.0000
63.5300 719.0000 1.0000
63.5400 686.0000 1.0000
63.5500 664.0000 1.0000
63.5600 664.0000 1.0000
63.5700 644.0000 1.0000
63.5800 667.0000 1.0000
63.5900 663.0000 1.0000
63.6000 668.0000 1.0000
63.6100 662.0000 1.0000
63.6200 648.0000 1.0000
63.6300 630.0000 1.0000
63.6400 728.0000 1.0000
63.6500 663.0000 1.0000
63.6600 658.0000 1.0000
63.6700 653.0000 1.0000
63.6800 636.0000 1.0000
63.6900 666.0000 1.0000
63.7000 717.0000 1.0000
63.7100 640.0000 1.0000
63.7200 651.0000 1.0000
63.7300 587.0000 1.0000
63.7400 653.0000 1.0000
63.7500 690.0000 1.0000
63.7600 672.0000 1.0000
63.7700 635.0000 1.0000
63.7800 669.0000 1.0000
63.7900 692.0000 1.0000
63.8000 680.0000 1.0000
63.8100 642.0000 1.0000
63.8200 639.0000 1.0000
63.8300 641.0000 1.0000
63.8400 726.0000 1.0000
63.8500 663.0000 1.0000
63.8600 641.0000 1.0000
63.8700 658.0000 1.0000
63.8800 697.0000 1.0000
63.8900 652.0000 1.0000
63.9000 639.0000 1.0000
63.9100 627.0000 1.0000
63.9200 631.0000 1.0000
63.9300 643.0000 1.0000
63.9400 648.0000 1.0000
63.9500 657.0000 1.0000
63.9600 616.0000 1.0000
63.9700 630.0000 1.0000
63.9800 661.0000 1.0000
63.9900 632.0000 1.0000
64.0000 660.0000 1.0000
64.0100 649.0000 1.0000
64.0200 660.0000 1.0000
64.0300 669.0000 1.0000
64.0400 647.0000 1.0000
64.0500 644.0000 1.0000
64.0600 636.0000 1.0000
64.0700 664.0000 1.0000
64.0800 614.0000 1.0000
64.0900 647.0000 1.0000
64.1000 677.0000 1.0000
64.1100 651.0000 1.0000
64.1200 620.0000 1.0000
64.1300 624.0000 1.0000
64.1400 649.0000 1.0000
64.1500 670.0000 1.0000
64.1600 624.0000 1.0000
64.1700 650.0000 1.0000
64.1800 663.0000 1.0000
64.1900 703.0000 1.0000
64.2000 695.0000 1.0000
64.2100 721.0000 1.0000
64.2200 685.0000 1.0000
64.2300 687.0000 1.0000
64.2400 685.0000 1.0000
64.2500 669.0000 1.0000
64.2600 654.0000 1.0000
64.2700 671.0000 1.0000
64.2800 667.0000 1.0000
64.2900 652.0000 1.0000
64.3000 676.0000 1.0000
64.3100 676.0000 1.0000
64.3200 682.0000 1.0000
64.3300 637.0000 1.0000
64.3400 640.0000 1.0000
64.3500 673.0000 1.0000
64.3600 681.0000 1.0000
64.3700 675.0000 1.0000
64.3800 717.0000 1.0000
64.3900 655.0000 1.0000
64.4000 631.0000 1.0000
64.4100 693.0000 1.0000
64.4200 726.0000 1.0000
64.4300 704.0000 1.0000
64.4400 699.0000 1.0000
64.4500 711.0000 1.0000
64.4600 697.0000 1.0000
64.4700 710.0000 1.0000
64.4800 689.0000 1.0000
64.4900 675.0000 1.0000
64.5000 705.0000 1.0000
64.5100 680.0000 1.0000
64.5200 678.0000 1.0000
64.5300 697.0000 1.0000
64.5400 704.0000 1.0000
64.5500 700.0000 1.0000
64.5600 720.0000 1.0000
64.5700 697.0000 1.0000
64.5800 722.0000 1.0000
64.5900 712.0000 1.0000
64.6000 745.0000 1.0000
64.6100 716.0000 1.0000
64.6200 731.0000 1.0000
64.6300 701.0000 1.0000
64.6400 784.0000 1.0000
64.6500 691.0000 1.0000
64.6600 751.0000 1.0000
64.6700 719.0000 1.0000
64.6800 745.0000 1.0000
64.6900 735.0000 1.0000
64.7000 761.0000 1.0000
64.7100 788.0000 1.0000
64.7200 761.0000 1.0000
64.7300 726.0000 1.0000
64.7400 732.0000 1.0000
64.7500 727.0000 1.0000
64.7600 731.0000 1.0000
64.7700 717.0000 1.0000
64.7800 764.0000 1.0000
64.7900 714.0000 1.0000
64.8000 743.0000 1.0000
64.8100 765.0000 1.0000
64.8200 778.0000 1.0000
64.8300 717.0000 1.0000
64.8400 744.0000 1.0000
64.8500 726.0000 1.0000
64.8600 701.0000 1.0000
64.8700 685.0000 1.0000
64.8800 703.0000 1.0000
64.8900 702.0000 1.0000
64.9000 745.0000 1.0000
64.9100 706.0000 1.0000
64.9200 720.0000 1.0000
64.9300 702.0000 1.0000
64.9400 716.0000 1.0000
64.9500 720.0000 1.0000
64.9600 747.0000 1.0000
64.9700 695.0000 1.0000
64.9800 699.0000 1.0000
64.9900 710.0000 1.0000
65.0000 721.0000 1.0000
65.0100 696.0000 1.0000
65.0200 652.0000 1.0000
65.0300 676.0000 1.0000
65.0400 736.0000 1.0000
65.0500 656.0000 1.0000
65.0600 690.0000 1.0000
65.0700 689.0000 1.0000
65.0800 709.0000 1.0000
65.0900 720.0000 1.0000
65.1000 685.0000 1.0000
65.1100 719.0000 1.0000
65.1200 685.0000 1.0000
65.1300 693.0000 1.0000
65.1400 701.0000 1.0000
65.1500 730.0000 1.0000
65.1600 708.0000 1.0000
65.1700 663.0000 1.0000
65.1800 639.0000 1.0000
65.1900 681.0000 1.0000
65.2000 693.0000 1.0000
65.2100 679.0000 1.0000
65.2200 679.0000 1.0000
65.2300 672.0000 1.0000
65.2400 709.0000 1.0000
65.2500 722.0000 1.0000
65.2600 689.0000 1.0000
65.2700 696.0000 1.0000
65.2800 703.0000 1.0000
65.2900 692.0000 1.0000
65.3000 688.0000 1.0000
65.3100 630.0000 1.0000
65.3200 659.0000 1.0000
65.3300 657.0000 1.0000
65.3400 707.0000 1.0000
65.3500 703.0000 1.0000
65.3600 732.0000 1.0000
65.3700 699.0000 1.0000
65.3800 686.0000 1.0000
65.3900 678.0000 1.0000
65.4000 679.0000 1.0000
65.4100 642.0000 1.0000
65.4200 702.0000 1.0000
65.4300 709.0000 1.0000
65.4400 743.0000 1.0000
65.4500 658.0000 1.0000
65.4600 678.0000 1.0000
65.4700 653.0000 1.0000
65.4800 695.0000 1.0000
65.4900 674.0000 1.0000
65.5000 688.0000 1.0000
65.5100 693.0000 1.0000
65.5200 724.0000 1.0000
65.5300 706.0000 1.0000
65.5400 689.0000 1.0000
65.5500 666.0000 1.0000
65.5600 632.0000 1.0000
65.5700 684.0000 1.0000
65.5800 710.0000 1.0000
65.5900 743.0000 1.0000
65.6000 675.0000 1.0000
65.6100 684.0000 1.0000
65.6200 702.0000 1.0000
65.6300 742.0000 1.0000
65.6400 682.0000 1.0000
65.6500 705.0000 1.0000
65.6600 756.0000 1.0000
65.6700 726.0000 1.0000
65.6800 728.0000 1.0000
65.6900 754.0000 1.0000
65.7000 719.0000 1.0000
65.7100 755.0000 1.0000
65.7200 736.0000 1.0000
65.7300 721.0000 1.0000
65.7400 791.0000 1.0000
65.7500 801.0000 1.0000
65.7600 791.0000 1.0000
65.7700 759.0000 1.0000
65.7800 794.0000 1.0000
65.7900 776.0000 1.0000
65.8000 784.0000 1.0000
65.8100 760.0000 1.0000
65.8200 789.0000 1.0000
65.8300 801.0000 1.0000
65.8400 807.0000 1.0000
65.8500 871.0000 1.0000
65.8600 824.0000 1.0000
65.8700 851.0000 1.0000
65.8800 850.0000 1.0000
65.8900 895.0000 1.0000
65.9000 873.0000 1.0000
65.9100 869.0000 1.0000
65.9200 972.0000 1.0000
65.9300 972.0000 1.0000
65.9400 1017.0000 1.0000
65.9500 986.0000 1.0000
65.9600 997.0000 1.0000
65.9700 1027.0000 1.0000
65.9800 1082.0000 1.0000
65.9900 1103.0000 1.0000
66.0000 1136.0000 1.0000
66.0100 1195.0000 1.0000
66.0200 1159.0000 1.0000
66.0300 1248.0000 1.0000
66.0400 1373.0000 1.0000
66.0500 1386.0000 1.0000
66.0600 1462.0000 1.0000
66.0700 1471.0000 1.0000
66.0800 1542.0000 1.0000
66.0900 1623.0000 1.0000
66.1000 1763.0000 1.0000
66.1100 1878.0000 1.0000
66.1200 1960.0000 1.0000
66.1300 2092.0000 1.0000
66.1400 2191.0000 1.0000
66.1500 2249.0000 1.0000
66.1600 2321.0000 1.0000
66.1700 2451.0000 1.0000
66.1800 2518.0000 1.0000
66.1900 2627.0000 1.0000
66.2000 2623.0000 1.0000
66.2100 2635.0000 1.0000
66.2200 2689.0000 1.0000
66.2300 2642.0000 1.0000
66.2400 2644.0000 1.0000
66.2500 2558.0000 1.0000
66.2600 2548.0000 1.0000
66.2700 2497.0000 1.0000
66.2800 2454.0000 1.0000
66.2900 2442.0000 1.0000
66.3000 2377.0000 1.0000
66.3100 2227.0000 1.0000
66.3200 2319.0000 1.0000
66.3300 2244.0000 1.0000
66.3400 2265.0000 1.0000
66.3500 2247.0000 1.0000
66.3600 2255.0000 1.0000
66.3700 2236.0000 1.0000
66.3800 2191.0000 1.0000
66.3900 2133.0000 1.0000
66.4000 2057.0000 1.0000
66.4100 2028.0000 1.0000
66.4200 1943.0000 1.0000
66.4300 1928.0000 1.0000
66.4400 1851.0000 1.0000
66.4500 1773.0000 1.0000
66.4600 1709.0000 1.0000
66.4700 1640.0000 1.0000
66.4800 1598.0000 1.0000
66.4900 1464.0000 1.0000
66.5000 1430.0000 1.0000
66.5100 1381.0000 1.0000
66.5200 1327.0000 1.0000
66.5300 1288.0000 1.0000
66.5400 1202.0000 1.0000
66.5500 1212.0000 1.0000
66.5600 1155.0000 1.0000
66.5700 1130.0000 1.0000
66.5800 1128.0000 1.0000
66.5900 1054.0000 1.0000
66.6000 1017.0000 1.0000
66.6100 1027.0000 1.0000
66.6200 997.0000 1.0000
66.6300 937.0000 1.0000
66.6400 929.0000 1.0000
66.6500 933.0000 1.0000
66.6600 880.0000 1.0000
66.6700 845.0000 1.0000
66.6800 870.0000 1.0000
66.6900 818.0000 1.0000
66.7000 817.0000 1.0000
66.7100 831.0000 1.0000
66.7200 877.0000 1.0000
66.7300 769.0000 1.0000
66.7400 786.0000 1.0000
66.7500 836.0000 1.0000
66.7600 784.0000 1.0000
66.7700 769.0000 1.0000
66.7800 768.0000 1.0000
66.7900 754.0000 1.0000
66.8000 716.0000 1.0000
66.8100 745.0000 1.0000
66.8200 738.0000 1.0000
66.8300 729.0000 1.0000
66.8400 747.0000 1.0000
66.8500 737.0000 1.0000
66.8600 739.0000 1.0000
66.8700 676.0000 1.0000
66.8800 668.0000 1.0000
66.8900 720.0000 1.0000
66.9000 711.0000 1.0000
66.9100 670.0000 1.0000
66.9200 674.0000 1.0000
66.9300 652.0000 1.0000
66.9400 709.0000 1.0000
66.9500 683.0000 1.0000
66.9600 649.0000 1.0000
66.9700 670.0000 1.0000
66.9800 659.0000 1.0000
66.9900 668.0000 1.0000
67.0000 671.0000 1.0000
67.0100 648.0000 1.0000
67.0200 665.0000 1.0000
67.0300 640.0000 1.0000
67.0400 635.0000 1.0000
67.0500 631.0000 1.0000
67.0600 671.0000 1.0000
67.0700 674.0000 1.0000
67.0800 677.0000 1.0000
67.0900 668.0000 1.0000
67.1000 679.0000 1.0000
67.1100 640.0000 1.0000
67.1200 651.0000 1.0000
67.1300 642.0000 1.0000
67.1400 643.0000 1.0000
67.1500 634.0000 1.0000
67.1600 595.0000 1.0000
67.1700 654.0000 1.0000
67.1800 658.0000 1.0000
67.1900 628.0000 1.0000
67.2000 648.0000 1.0000
67.2100 628.0000 1.0000
67.2200 605.0000 1.0000
67.2300 625.0000 1.0000
67.2400 647.0000 1.0000
67.2500 628.0000 1.0000
67.2600 602.0000 1.0000
67.2700 619.0000 1.0000
67.2800 632.0000 1.0000
67.2900 621.0000 1.0000
67.3000 630.0000 1.0000
67.3100 581.0000 1.0000
67.3200 634.0000 1.0000
67.3300 626.0000 1.0000
67.3400 613.0000 1.0000
67.3500 625.0000 1.0000
67.3600 626.0000 1.0000
67.3700 661.0000 1.0000
67.3800 640.0000 1.0000
67.3900 662.0000 1.0000
67.4000 617.0000 1.0000
67.4100 605.0000 1.0000
67.4200 606.0000 1.0000
67.4300 619.0000 1.0000
67.4400 611.0000 1.0000
67.4500 618.0000 1.0000
67.4600 621.0000 1.0000
67.4700 630.0000 1.0000
67.4800 563.0000 1.0000
67.4900 661.0000 1.0000
67.5000 600.0000 1.0000
67.5100 600.0000 1.0000
67.5200 596.0000 1.0000
67.5300 626.0000 1.0000
67.5400 618.0000 1.0000
67.5500 588.0000 1.0000
67.5600 605.0000 1.0000
67.5700 613.0000 1.0000
67.5800 641.0000 1.0000
67.5900 615.0000 1.0000
67.6000 585.0000 1.0000
67.6100 617.0000 1.0000
67.6200 597.0000 1.0000
67.6300 591.0000 1.0000
67.6400 595.0000 1.0000
67.6500 595.0000 1.0000
67.6600 607.0000 1.0000
67.6700 578.0000 1.0000
67.6800 609.0000 1.0000
67.6900 648.0000 1.0000
67.7000 582.0000 1.0000
67.7100 627.0000 1.0000
67.7200 647.0000 1.0000
67.7300 642.0000 1.0000
67.7400 616.0000 1.0000
67.7500 624.0000 1.0000
67.7600 615.0000 1.0000
67.7700 621.0000 1.0000
67.7800 614.0000 1.0000
67.7900 585.0000 1.0000
67.8000 615.0000 1.0000
67.8100 650.0000 1.0000
67.8200 613.0000 1.0000
67.8300 612.0000 1.0000
67.8400 575.0000 1.0000
67.8500 582.0000 1.0000
67.8600 592.0000 1.0000
67.8700 624.0000 1.0000
67.8800 588.0000 1.0000
67.8900 600.0000 1.0000
67.9000 603.0000 1.0000
67.9100 608.0000 1.0000
67.9200 577.0000 1.0000
67.9300 580.0000 1.0000
67.9400 615.0000 1.0000
67.9500 626.0000 1.0000
67.9600 608.0000 1.0000
67.9700 635.0000 1.0000
67.9800 628.0000 1.0000
67.9900 610.0000 1.0000
68.0000 577.0000 1.0000
68.0100 585.0000 1.0000
68.0200 601.0000 1.0000
68.0300 607.0000 1.0000
68.0400 586.0000 1.0000
68.0500 594.0000 1.0000
68.0600 590.0000 1.0000
68.0700 590.0000 1.0000
68.0800 597.0000 1.0000
68.0900 578.0000 1.0000
68.1000 582.0000 1.0000
68.1100 588.0000 1.0000
68.1200 585.0000 1.0000
68.1300 589.0000 1.0000
68.1400 631.0000 1.0000
68.1500 616.0000 1.0000
68.1600 630.0000 1.0000
68.1700 589.0000 1.0000
68.1800 570.0000 1.0000
68.1900 566.0000 1.0000
68.2000 595.0000 1.0000
68.2100 614.0000 1.0000
68.2200 568.0000 1.0000
68.2300 582.0000 1.0000
68.2400 587.0000 1.0000
68.2500 601.0000 1.0000
68.2600 631.0000 1.0000
68.2700 647.0000 1.0000
68.2800 624.0000 1.0000
68.2900 591.0000 1.0000
68.3000 610.0000 1.0000
68.3100 638.0000 1.0000
68.3200 585.0000 1.0000
68.3300 614.0000 1.0000
68.3400 585.0000 1.0000
68.3500 592.0000 1.0000
68.3600 562.0000 1.0000
68.3700 563.0000 1.0000
68.3800 648.0000 1.0000
68.3900 576.0000 1.0000
68.4000 611.0000 1.0000
68.4100 588.0000 1.0000
68.4200 581.0000 1.0000
68.4300 567.0000 1.0000
68.4400 582.0000 1.0000
68.4500 576.0000 1.0000
68.4600 560.0000 1.0000
68.4700 548.0000 1.0000
68.4800 594.0000 1.0000
68.4900 581.0000 1.0000
68.5000 584.0000 1.0000
68.5100 591.0000 1.0000
68.5200 564.0000 1.0000
68.5300 587.0000 1.0000
68.5400 572.0000 1.0000
68.5500 612.0000 1.0000
68.5600 575.0000 1.0000
68.5700 580.0000 1.0000
68.5800 591.0000 1.0000
68.5900 596.0000 1.0000
68.6000 594.0000 1.0000
68.6100 623.0000 1.0000
68.6200 572.0000 1.0000
68.6300 605.0000 1.0000
68.6400 577.0000 1.0000
68.6500 592.0000 1.0000
68.6600 608.0000 1.0000
68.6700 559.0000 1.0000
68.6800 604.0000 1.0000
68.6900 559.0000 1.0000
68.7000 587.0000 1.0000
68.7100 582.0000 1.0000
68.7200 566.0000 1.0000
68.7300 577.0000 1.0000
68.7400 568.0000 1.0000
68.7500 591.0000 1.0000
68.7600 568.0000 1.0000
68.7700 580.0000 1.0000
68.7800 584.0000 1.0000
68.7900 587.0000 1.0000
68.8000 580.0000 1.0000
68.8100 555.0000 1.0000
68.8200 576.0000 1.0000
68.8300 554.0000 1.0000
68.8400 597.0000 1.0000
68.8500 581.0000 1.0000
68.8600 561.0000 1.0000
68.8700 547.0000 1.0000
68.8800 556.0000 1.0000
68.8900 559.0000 1.0000
68.9000 622.0000 1.0000
68.9100 593.0000 1.0000
68.9200 537.0000 1.0000
68.9300 591.0000 1.0000
68.9400 578.0000 1.0000
68.9500 568.0000 1.0000
68.9600 550.0000 1.0000
68.9700 519.0000 1.0000
68.9800 586.0000 1.0000
68.9900 606.0000 1.0000
69.0000 581.0000 1.0000
69.0100 536.0000 1.0000
69.0200 552.0000 1.0000
69.0300 557.0000 1.0000
69.0400 551.0000 1.0000
69.0500 547.0000 1.0000
69.0600 581.0000 1.0000
69.0700 584.0000 1.0000
69.0800 558.0000 1.0000
69.0900 565.0000 1.0000
69.1000 562.0000 1.0000
69.1100 575.0000 1.0000
69.1200 560.0000 1.0000
69.1300 565.0000 1.0000
69.1400 575.0000 1.0000
69.1500 608.0000 1.0000
69.1600 570.0000 1.0000
69.1700 552.0000 1.0000
69.1800 596.0000 1.0000
69.1900 574.0000 1.0000
69.2000 614.0000 1.0000
69.2100 586.0000 1.0000
69.2200 551.0000 1.0000
69.2300 536.0000 1.0000
69.2400 586.0000 1.0000
69.2500 573.0000 1.0000
69.2600 569.0000 1.0000
69.2700 590.0000 1.0000
69.2800 528.0000 1.0000
69.2900 594.0000 1.0000
69.3000 602.0000 1.0000
69.3100 589.0000 1.0000
69.3200 558.0000 1.0000
69.3300 540.0000 1.0000
69.3400 572.0000 1.0000
69.3500 561.0000 1.0000
69.3600 520.0000 1.0000
69.3700 528.0000 1.0000
69.3800 555.0000 1.0000
69.3900 586.0000 1.0000
69.4000 583.0000 1.0000
69.4100 602.0000 1.0000
69.4200 564.0000 1.0000
69.4300 554.0000 1.0000
69.4400 568.0000 1.0000
69.4500 576.0000 1.0000
69.4600 581.0000 1.0000
69.4700 584.0000 1.0000
69.4800 604.0000 1.0000
69.4900 588.0000 1.0000
69.5000 569.0000 1.0000
69.5100 565.0000 1.0000
69.5200 584.0000 1.0000
69.5300 564.0000 1.0000
69.5400 565.0000 1.0000
69.5500 615.0000 1.0000
69.5600 590.0000 1.0000
69.5700 607.0000 1.0000
69.5800 577.0000 1.0000
69.5900 536.0000 1.0000
69.6000 576.0000 1.0000
69.6100 581.0000 1.0000
69.6200 590.0000 1.0000
69.6300 556.0000 1.0000
69.6400 538.0000 1.0000
69.6500 581.0000 1.0000
69.6600 551.0000 1.0000
69.6700 605.0000 1.0000
69.6800 564.0000 1.0000
69.6900 580.0000 1.0000
69.7000 586.0000 1.0000
69.7100 566.0000 1.0000
69.7200 561.0000 1.0000
69.7300 569.0000 1.0000
69.7400 562.0000 1.0000
69.7500 556.0000 1.0000
69.7600 571.0000 1.0000
69.7700 600.0000 1.0000
69.7800 594.0000 1.0000
69.7900 534.0000 1.0000
69.8000 581.0000 1.0000
69.8100 553.0000 1.0000
69.8200 550.0000 1.0000
69.8300 578.0000 1.0000
69.8400 593.0000 1.0000
69.8500 569.0000 1.0000
69.8600 561.0000 1.0000
69.8700 600.0000 1.0000
69.8800 578.0000 1.0000
69.8900 557.0000 1.0000
69.9000 584.0000 1.0000
69.9100 576.0000 1.0000
69.9200 572.0000 1.0000
69.9300 589.0000 1.0000
69.9400 549.0000 1.0000
69.9500 581.0000 1.0000
69.9600 585.0000 1.0000
69.9700 626.0000 1.0000
69.9800 560.0000 1.0000
69.9900 581.0000 1.0000
70.0000 554.0000 1.0000
*RAS_INT_END
*RAS_TEMPERATURE_START
*RAS_TEMPERATURE_END
*RAS_DATA_END
