*RAS_DATA_START
*RAS_HEADER_START
*DISP_FMT_X "%.2f"
*DISP_FMT_Y "%.0f"
*DISP_FULLSCALE "16585.0000000000"
*DISP_LINE_COLOR "255.0000000000"
*DISP_LINE_STYLE "0.0000000000"
*DISP_LINE_WIDTH "0.2500000000"
*DISP_NOTE "測定データ-11"
*DISP_OFFSET_Y "0.0000000000"
*DISP_PEAKSEARCH_UNIT_Y "cps"
*DISP_RANGE_BOTTOM "0.0000000000"
*DISP_RANGE_LEFT "20.0000000000"
*DISP_RANGE_LOGCUTOFF "0.0100000000"
*DISP_RANGE_RIGHT "70.0000000000"
*DISP_RANGE_TOP "16585.0000000000"
*DISP_SCALE_MODE_Y "0.0000000000"
*DISP_TAB_NAME "2θ/θ"
*DISP_TITLE_Y "強度"
*DISP_UNIT_Y "cps"
*DISP_WINDOW_NAME "MSG_MACROENGINE"
*FILE_COMMENT " "
*FILE_MD5 ""
*FILE_MEMO " "
*FILE_OPERATOR "Administrator"
*FILE_SAMPLE " "
*FILE_TYPE "RAS_RAW"
*FILE_USERGROUP "システムマネージャ"
*FILE_VERSION "1.0000000000"
*HW_ATTACHMENT_ID "ATT0025"
*HW_ATTACHMENT_NAME "標準|Standard"
*HW_COUNTER_ID-0 "CUT0025"
*HW_COUNTER_ID-1 "CUT0020"
*HW_COUNTER_ID-2 "CUT0020"
*HW_COUNTER_ID-3 "CSL0021"
*HW_COUNTER_ID-4 "CMC0021"
*HW_COUNTER_NAME-0 "D/teX Ultra|D/teX Ultra"
*HW_COUNTER_NAME-1 "None|None"
*HW_COUNTER_NAME-2 "None|None"
*HW_COUNTER_NAME-3 "BBM|BBM"
*HW_COUNTER_NAME-4 "検出器モノクロメータ|Detector monochromator"
*HW_COUNTER_SELECT_NAME "D/teX Ultra|D/teX Ultra"
*HW_GONIOMETER_ID "GON0023"
*HW_GONIOMETER_NAME "SmartLab|SmartLab"
*HW_GONIOMETER_RADIUS-0 "90.0"
*HW_GONIOMETER_RADIUS-1 "114.0"
*HW_GONIOMETER_RADIUS-2 "190.0"
*HW_GONIOMETER_RADIUS-3 "300.0"
*HW_GONIOMETER_RADIUS-4 "187.0"
*HW_GONIOMETER_RADIUS-5 "300.0"
*HW_GONIOMETER_RADIUS-6 "113.0"
*HW_GONIOMETER_RADIUS-7 "331.0"
*HW_I_OPT_ID-0 "CBO0021"
*HW_I_OPT_ID-1 "ICR0023"
*HW_I_OPT_ID-2 "ISL0021"
*HW_I_OPT_ID-3 "ISO0021"
*HW_I_OPT_ID-4 "IAD0021"
*HW_I_OPT_ID-5 "IPR0001"
*HW_I_OPT_NAME-0 "CBOユニット|CBO unit"
*HW_I_OPT_NAME-1 "標準入射光学ユニット|Standard incident optical unit"
*HW_I_OPT_NAME-2 "標準入射スリットボックス|Standard incident slit box"
*HW_I_OPT_NAME-3 "入射平行スリット|Incident parallel slit"
*HW_I_OPT_NAME-4 "長手制限スリット|Length limiting slit"
*HW_I_OPT_NAME-5 "None|None"
*HW_R_ATTENUATER_AUTOMODE "0"
*HW_R_OPT_ID-0 "RSS0021"
*HW_R_OPT_ID-1 "RCR0023"
*HW_R_OPT_ID-2 "RSO0021"
*HW_R_OPT_ID-3 "RRS0021"
*HW_R_OPT_ID-4 "ATN0021"
*HW_R_OPT_ID-5 "RFL0021"
*HW_R_OPT_ID-6 "RAD0021"
*HW_R_OPT_NAME-0 "標準受光スリットボックス1|Standard receiving slit box # 1"
*HW_R_OPT_NAME-1 "標準受光光学ユニット1|Standard receiving unit # 1"
*HW_R_OPT_NAME-2 "標準受光光学ユニット2|Standard receiving optical unit # 2"
*HW_R_OPT_NAME-3 "標準受光スリットボックス2|Standard receiving slit box # 2"
*HW_R_OPT_NAME-4 "標準アッテネータ|Standard Attenuator"
*HW_R_OPT_NAME-5 "Cu Kβ|Cu K-beta"
*HW_R_OPT_NAME-6 "調整用受光スリット|Alignment receiving slit"
*HW_SAMPLE_HOLDER_ID "SMP0023"
*HW_SAMPLE_HOLDER_NAME "標準Zステージ|Standard Z stage"
*HW_XG_CURRENT_MAX "50"
*HW_XG_CURRENT_MIN "2"
*HW_XG_CURRENT_RESOLUTION "1"
*HW_XG_CURRENT_UNIT "mA"
*HW_XG_FOCUS "1mm x 10mm"
*HW_XG_FOCUS_TYPE "Normal"
*HW_XG_ID ""
*HW_XG_NAME "3kW 封入管(ID:1200)|3kW Sealed tube(ID:1200)"
*HW_XG_TARGET_ATOMIC_NUMBER "29.0000000000"
*HW_XG_TARGET_NAME "Cu"
*HW_XG_TYPE "Hermetic"
*HW_XG_VOLTAGE_MAX "60"
*HW_XG_VOLTAGE_MIN "20"
*HW_XG_VOLTAGE_RESOLUTION "1"
*HW_XG_VOLTAGE_UNIT "kV"
*HW_XG_WATT_MAX "1.500"
*HW_XG_WATT_UNIT "kW"
*HW_XG_WAVE_LENGTH_ALPHA1 "1.540593"
*HW_XG_WAVE_LENGTH_ALPHA2 "1.544414"
*HW_XG_WAVE_LENGTH_BETA "1.392250"
*MEAS_COND_AXIS_NAME-0 "2θ/θ"
*MEAS_COND_AXIS_NAME-1 "2θ"
*MEAS_COND_AXIS_NAME-2 "ω"
*MEAS_COND_AXIS_NAME-3 "Z"
*MEAS_COND_AXIS_NAME-4 "2θ/ω"
*MEAS_COND_AXIS_NAME-5 "θs"
*MEAS_COND_AXIS_NAME-6 "θd"
*MEAS_COND_AXIS_NAME-7 "Ts"
*MEAS_COND_AXIS_NAME-8 "CBO選択スリット"
*MEAS_COND_AXIS_NAME-9 "M"
*MEAS_COND_AXIS_NAME-10 "入射平行スリット"
*MEAS_COND_AXIS_NAME-11 "入射スリット"
*MEAS_COND_AXIS_NAME-12 ""
*MEAS_COND_AXIS_NAME-13 "Zs"
*MEAS_COND_AXIS_NAME-14 "入射光学素子"
*MEAS_COND_AXIS_NAME-15 "長手制限スリット"
*MEAS_COND_AXIS_NAME-16 "センタースリット"
*MEAS_COND_AXIS_NAME-17 "フィルター"
*MEAS_COND_AXIS_NAME-18 "受光スリット1"
*MEAS_COND_AXIS_NAME-19 "受光スリット2"
*MEAS_COND_AXIS_NAME-20 "受光光学素子"
*MEAS_COND_AXIS_NAME-21 "受光平行スリット"
*MEAS_COND_AXIS_NAME-22 "調整用受光スリット"
*MEAS_COND_AXIS_NAME-23 ""
*MEAS_COND_AXIS_NAME-24 ""
*MEAS_COND_AXIS_NAME-25 "Zd"
*MEAS_COND_AXIS_NAME-26 "アッテネータ"
*MEAS_COND_AXIS_NAME-27 "検出器モノクロメータ"
*MEAS_COND_AXIS_NAME-28 "モノクロメータスリット"
*MEAS_COND_AXIS_NAME-29 "プライマリビーム"
*MEAS_COND_AXIS_NAME-30 "PHA"
*MEAS_COND_AXIS_NAME_INTERNAL-0 "TwoThetaTheta"
*MEAS_COND_AXIS_NAME_INTERNAL-1 "TwoTheta"
*MEAS_COND_AXIS_NAME_INTERNAL-2 "Omega"
*MEAS_COND_AXIS_NAME_INTERNAL-3 "Z"
*MEAS_COND_AXIS_NAME_INTERNAL-4 "TwoThetaOmega"
*MEAS_COND_AXIS_NAME_INTERNAL-5 "ThetaS"
*MEAS_COND_AXIS_NAME_INTERNAL-6 "ThetaD"
*MEAS_COND_AXIS_NAME_INTERNAL-7 "Ts"
*MEAS_COND_AXIS_NAME_INTERNAL-8 "CBO"
*MEAS_COND_AXIS_NAME_INTERNAL-9 "CBO-M"
*MEAS_COND_AXIS_NAME_INTERNAL-10 "IncidentSollerSlit"
*MEAS_COND_AXIS_NAME_INTERNAL-11 "IncidentSlitBox"
*MEAS_COND_AXIS_NAME_INTERNAL-12 "IncidentSlitBox-_Axis"
*MEAS_COND_AXIS_NAME_INTERNAL-13 "Zs"
*MEAS_COND_AXIS_NAME_INTERNAL-14 "IncidentMonochromator"
*MEAS_COND_AXIS_NAME_INTERNAL-15 "IncidentAxdSlit"
*MEAS_COND_AXIS_NAME_INTERNAL-16 "CenterSlit"
*MEAS_COND_AXIS_NAME_INTERNAL-17 "Filter"
*MEAS_COND_AXIS_NAME_INTERNAL-18 "ReceivingSlitBox1"
*MEAS_COND_AXIS_NAME_INTERNAL-19 "ReceivingSlitBox2"
*MEAS_COND_AXIS_NAME_INTERNAL-20 "ReceivingOptics"
*MEAS_COND_AXIS_NAME_INTERNAL-21 "ReceivingSollerSlit"
*MEAS_COND_AXIS_NAME_INTERNAL-22 "ReceivingAxdSlit"
*MEAS_COND_AXIS_NAME_INTERNAL-23 "ReceivingSlitBox1-_Axis"
*MEAS_COND_AXIS_NAME_INTERNAL-24 "ReceivingSlitBox2-_Axis"
*MEAS_COND_AXIS_NAME_INTERNAL-25 "ReceivingSlitBox2-Zd"
*MEAS_COND_AXIS_NAME_INTERNAL-26 "Attenuator"
*MEAS_COND_AXIS_NAME_INTERNAL-27 "CounterMonochromator"
*MEAS_COND_AXIS_NAME_INTERNAL-28 "CounterSlit"
*MEAS_COND_AXIS_NAME_INTERNAL-29 "IncidentPrimary"
*MEAS_COND_AXIS_NAME_INTERNAL-30 "PHA"
*MEAS_COND_AXIS_NAME_MAGICNO-0 "83951616.0000000000"
*MEAS_COND_AXIS_NAME_MAGICNO-1 "268632064.0000000000"
*MEAS_COND_AXIS_NAME_MAGICNO-2 "268500992.0000000000"
*MEAS_COND_AXIS_NAME_MAGICNO-3 "285278208.0000000000"
*MEAS_COND_AXIS_NAME_MAGICNO-4 "83951616.0000000000"
*MEAS_COND_AXIS_NAME_MAGICNO-5 "131072.0000000000"
*MEAS_COND_AXIS_NAME_MAGICNO-6 "131072.0000000000"
*MEAS_COND_AXIS_NAME_MAGICNO-7 "318898176.0000000000"
*MEAS_COND_AXIS_NAME_MAGICNO-8 "20971521.0000000000"
*MEAS_COND_AXIS_NAME_MAGICNO-9 "285343744.0000000000"
*MEAS_COND_AXIS_NAME_MAGICNO-10 "20971521.0000000000"
*MEAS_COND_AXIS_NAME_MAGICNO-11 "22020097.0000000000"
*MEAS_COND_AXIS_NAME_MAGICNO-12 "25165824.0000000000"
*MEAS_COND_AXIS_NAME_MAGICNO-13 "318898176.0000000000"
*MEAS_COND_AXIS_NAME_MAGICNO-14 "1.0000000000"
*MEAS_COND_AXIS_NAME_MAGICNO-15 "20971521.0000000000"
*MEAS_COND_AXIS_NAME_MAGICNO-16 "20971521.0000000000"
*MEAS_COND_AXIS_NAME_MAGICNO-17 "20971521.0000000000"
*MEAS_COND_AXIS_NAME_MAGICNO-18 "23068673.0000000000"
*MEAS_COND_AXIS_NAME_MAGICNO-19 "23068673.0000000000"
*MEAS_COND_AXIS_NAME_MAGICNO-20 "20971521.0000000000"
*MEAS_COND_AXIS_NAME_MAGICNO-21 "20971521.0000000000"
*MEAS_COND_AXIS_NAME_MAGICNO-22 "20971521.0000000000"
*MEAS_COND_AXIS_NAME_MAGICNO-23 "25165824.0000000000"
*MEAS_COND_AXIS_NAME_MAGICNO-24 "25165824.0000000000"
*MEAS_COND_AXIS_NAME_MAGICNO-25 "285343744.0000000000"
*MEAS_COND_AXIS_NAME_MAGICNO-26 "17301505.0000000000"
*MEAS_COND_AXIS_NAME_MAGICNO-27 "20971521.0000000000"
*MEAS_COND_AXIS_NAME_MAGICNO-28 "20971521.0000000000"
*MEAS_COND_AXIS_NAME_MAGICNO-29 "20971521.0000000000"
*MEAS_COND_AXIS_NAME_MAGICNO-30 "0.0000000000"
*MEAS_COND_AXIS_OFFSET-0 "-"
*MEAS_COND_AXIS_OFFSET-1 "-0.0801000000"
*MEAS_COND_AXIS_OFFSET-2 "0.1646000000"
*MEAS_COND_AXIS_OFFSET-3 "-"
*MEAS_COND_AXIS_OFFSET-4 "-"
*MEAS_COND_AXIS_OFFSET-5 "0.1646000000"
*MEAS_COND_AXIS_OFFSET-6 "-0.2447000000"
*MEAS_COND_AXIS_OFFSET-7 "-"
*MEAS_COND_AXIS_OFFSET-8 "-"
*MEAS_COND_AXIS_OFFSET-9 "-"
*MEAS_COND_AXIS_OFFSET-10 "-"
*MEAS_COND_AXIS_OFFSET-11 "-"
*MEAS_COND_AXIS_OFFSET-12 "-"
*MEAS_COND_AXIS_OFFSET-13 "-"
*MEAS_COND_AXIS_OFFSET-14 "-"
*MEAS_COND_AXIS_OFFSET-15 "-"
*MEAS_COND_AXIS_OFFSET-16 "-"
*MEAS_COND_AXIS_OFFSET-17 "-"
*MEAS_COND_AXIS_OFFSET-18 "-"
*MEAS_COND_AXIS_OFFSET-19 "-"
*MEAS_COND_AXIS_OFFSET-20 "-"
*MEAS_COND_AXIS_OFFSET-21 "-"
*MEAS_COND_AXIS_OFFSET-22 "-"
*MEAS_COND_AXIS_OFFSET-23 "-"
*MEAS_COND_AXIS_OFFSET-24 "-"
*MEAS_COND_AXIS_OFFSET-25 "-"
*MEAS_COND_AXIS_OFFSET-26 "-"
*MEAS_COND_AXIS_OFFSET-27 "-"
*MEAS_COND_AXIS_OFFSET-28 "-"
*MEAS_COND_AXIS_OFFSET-29 "-"
*MEAS_COND_AXIS_OFFSET-30 "-"
*MEAS_COND_AXIS_POSITION-0 "0.0000000000"
*MEAS_COND_AXIS_POSITION-1 "0.0000000000"
*MEAS_COND_AXIS_POSITION-2 "0.0000000000"
*MEAS_COND_AXIS_POSITION-3 "-2.9256400000"
*MEAS_COND_AXIS_POSITION-4 "0.0000000000"
*MEAS_COND_AXIS_POSITION-5 "0.0000000000"
*MEAS_COND_AXIS_POSITION-6 "0.0000000000"
*MEAS_COND_AXIS_POSITION-7 "-0.4278800000"
*MEAS_COND_AXIS_POSITION-8 "BB"
*MEAS_COND_AXIS_POSITION-9 "0.0000000000"
*MEAS_COND_AXIS_POSITION-10 "Soller_slit_5.0deg"
*MEAS_COND_AXIS_POSITION-11 "2/3deg"
*MEAS_COND_AXIS_POSITION-12 "2.2088000000"
*MEAS_COND_AXIS_POSITION-13 "-1.0609400000"
*MEAS_COND_AXIS_POSITION-14 "0.0000000000"
*MEAS_COND_AXIS_POSITION-15 "10.0mm"
*MEAS_COND_AXIS_POSITION-16 "None"
*MEAS_COND_AXIS_POSITION-17 "Cu_K-beta"
*MEAS_COND_AXIS_POSITION-18 "13.000mm"
*MEAS_COND_AXIS_POSITION-19 "13.000mm"
*MEAS_COND_AXIS_POSITION-20 "No_unit"
*MEAS_COND_AXIS_POSITION-21 "Soller_slit_5.0deg"
*MEAS_COND_AXIS_POSITION-22 "None"
*MEAS_COND_AXIS_POSITION-23 "13.0000000000"
*MEAS_COND_AXIS_POSITION-24 "13.0000000000"
*MEAS_COND_AXIS_POSITION-25 "0.0081300000"
*MEAS_COND_AXIS_POSITION-26 "Open"
*MEAS_COND_AXIS_POSITION-27 "None"
*MEAS_COND_AXIS_POSITION-28 "None"
*MEAS_COND_AXIS_POSITION-29 "None"
*MEAS_COND_AXIS_POSITION-30 "38.0000000000"
*MEAS_COND_AXIS_UNIT-0 "deg"
*MEAS_COND_AXIS_UNIT-1 "deg"
*MEAS_COND_AXIS_UNIT-2 "deg"
*MEAS_COND_AXIS_UNIT-3 "mm"
*MEAS_COND_AXIS_UNIT-4 "deg"
*MEAS_COND_AXIS_UNIT-5 "deg"
*MEAS_COND_AXIS_UNIT-6 "deg"
*MEAS_COND_AXIS_UNIT-7 "mm"
*MEAS_COND_AXIS_UNIT-8 ""
*MEAS_COND_AXIS_UNIT-9 "pulse"
*MEAS_COND_AXIS_UNIT-10 ""
*MEAS_COND_AXIS_UNIT-11 ""
*MEAS_COND_AXIS_UNIT-12 "mm"
*MEAS_COND_AXIS_UNIT-13 "mm"
*MEAS_COND_AXIS_UNIT-14 ""
*MEAS_COND_AXIS_UNIT-15 ""
*MEAS_COND_AXIS_UNIT-16 ""
*MEAS_COND_AXIS_UNIT-17 ""
*MEAS_COND_AXIS_UNIT-18 ""
*MEAS_COND_AXIS_UNIT-19 ""
*MEAS_COND_AXIS_UNIT-20 ""
*MEAS_COND_AXIS_UNIT-21 ""
*MEAS_COND_AXIS_UNIT-22 ""
*MEAS_COND_AXIS_UNIT-23 "mm"
*MEAS_COND_AXIS_UNIT-24 "mm"
*MEAS_COND_AXIS_UNIT-25 "mm"
*MEAS_COND_AXIS_UNIT-26 ""
*MEAS_COND_AXIS_UNIT-27 ""
*MEAS_COND_AXIS_UNIT-28 ""
*MEAS_COND_AXIS_UNIT-29 ""
*MEAS_COND_AXIS_UNIT-30 "div"
*MEAS_COND_COUNTER_CNTLOSS_CORR "0.0000000000"
*MEAS_COND_COUNTER_PHABASE "38.0000000000"
*MEAS_COND_COUNTER_PHAWINDOW "16.0000000000"
*MEAS_COND_COUNTER_PHA_UNIT "div"
*MEAS_COND_COUNTER_TAUDIFF "30.0000000000"
*MEAS_COND_COUNTER_TAUINT "0.0000000000"
*MEAS_COND_IRRADIATION_MODE "OFF"
*MEAS_COND_IRRADIATION_WIDTH ""
*MEAS_COND_OPT_ATTR "集中法"
*MEAS_COND_OPT_NAME "@集中法"
*MEAS_COND_UNSYMMETRIC_MODE "OFF"
*MEAS_COND_XG_CURRENT "30.0000000000"
*MEAS_COND_XG_VOLTAGE "40.0000000000"
*MEAS_COND_XG_WAVE_TYPE "Ka"
*MEAS_DATA_COUNT "5001.0000000000"
*MEAS_SCAN_AXIS_X "2θ/θ"
*MEAS_SCAN_AXIS_X_INTERNAL "TwoThetaTheta"
*MEAS_SCAN_END_TIME "07/09/22 17:00:46"
*MEAS_SCAN_MODE "CONTINUOUS"
*MEAS_SCAN_MONITOR "0"
*MEAS_SCAN_RESOLUTION_X "0.0002"
*MEAS_SCAN_SPEED "2.5"
*MEAS_SCAN_SPEED_UNIT "deg/min"
*MEAS_SCAN_START "20.0000000000"
*MEAS_SCAN_START_TIME "07/09/22 16:39:22"
*MEAS_SCAN_STEP "0.0100000000"
*MEAS_SCAN_STOP "70.0000000000"
*MEAS_SCAN_UNIT_X "deg"
*MEAS_SCAN_UNIT_Y "counts"
*RAS_HEADER_END
*RAS_INT_START
20.0000 1101.0000 1.0000
20.0100 1046.0000 1.0000
20.0200 1036.0000 1.0000
20.0300 1027.0000 1.0000
20.0400 1022.0000 1.0000
20.0500 1082.0000 1.0000
20.0600 1028.0000 1.0000
20.0700 983.0000 1.0000
20.0800 1006.0000 1.0000
20.0900 946.0000 1.0000
20.1000 971.0000 1.0000
20.1100 990.0000 1.0000
20.1200 1059.0000 1.0000
20.1300 1016.0000 1.0000
20.1400 1072.0000 1.0000
20.1500 1005.0000 1.0000
20.1600 1018.0000 1.0000
20.1700 1005.0000 1.0000
20.1800 1082.0000 1.0000
20.1900 1026.0000 1.0000
20.2000 1021.0000 1.0000
20.2100 1048.0000 1.0000
20.2200 990.0000 1.0000
20.2300 1058.0000 1.0000
20.2400 1043.0000 1.0000
20.2500 971.0000 1.0000
20.2600 968.0000 1.0000
20.2700 983.0000 1.0000
20.2800 1005.0000 1.0000
20.2900 1022.0000 1.0000
20.3000 1050.0000 1.0000
20.3100 1064.0000 1.0000
20.3200 1004.0000 1.0000
20.3300 982.0000 1.0000
20.3400 959.0000 1.0000
20.3500 1007.0000 1.0000
20.3600 1021.0000 1.0000
20.3700 1009.0000 1.0000
20.3800 986.0000 1.0000
20.3900 1026.0000 1.0000
20.4000 1065.0000 1.0000
20.4100 966.0000 1.0000
20.4200 1023.0000 1.0000
20.4300 1048.0000 1.0000
20.4400 1000.0000 1.0000
20.4500 1011.0000 1.0000
20.4600 1077.0000 1.0000
20.4700 996.0000 1.0000
20.4800 1010.0000 1.0000
20.4900 992.0000 1.0000
20.5000 1040.0000 1.0000
20.5100 1030.0000 1.0000
20.5200 992.0000 1.0000
20.5300 1022.0000 1.0000
20.5400 1017.0000 1.0000
20.5500 1020.0000 1.0000
20.5600 1025.0000 1.0000
20.5700 1001.0000 1.0000
20.5800 947.0000 1.0000
20.5900 970.0000 1.0000
20.6000 1018.0000 1.0000
20.6100 1028.0000 1.0000
20.6200 1036.0000 1.0000
20.6300 1018.0000 1.0000
20.6400 956.0000 1.0000
20.6500 1037.0000 1.0000
20.6600 1032.0000 1.0000
20.6700 995.0000 1.0000
20.6800 1008.0000 1.0000
20.6900 1028.0000 1.0000
20.7000 996.0000 1.0000
20.7100 1000.0000 1.0000
20.7200 1018.0000 1.0000
20.7300 988.0000 1.0000
20.7400 1008.0000 1.0000
20.7500 1014.0000 1.0000
20.7600 994.0000 1.0000
20.7700 1031.0000 1.0000
20.7800 1031.0000 1.0000
20.7900 1011.0000 1.0000
20.8000 1029.0000 1.0000
20.8100 969.0000 1.0000
20.8200 1017.0000 1.0000
20.8300 976.0000 1.0000
20.8400 1004.0000 1.0000
20.8500 992.0000 1.0000
20.8600 976.0000 1.0000
20.8700 1016.0000 1.0000
20.8800 1010.0000 1.0000
20.8900 963.0000 1.0000
20.9000 1006.0000 1.0000
20.9100 956.0000 1.0000
20.9200 1006.0000 1.0000
20.9300 1005.0000 1.0000
20.9400 1005.0000 1.0000
20.9500 929.0000 1.0000
20.9600 933.0000 1.0000
20.9700 996.0000 1.0000
20.9800 955.0000 1.0000
20.9900 1004.0000 1.0000
21.0000 1016.0000 1.0000
21.0100 1019.0000 1.0000
21.0200 1020.0000 1.0000
21.0300 980.0000 1.0000
21.0400 990.0000 1.0000
21.0500 993.0000 1.0000
21.0600 1008.0000 1.0000
21.0700 983.0000 1.0000
21.0800 1016.0000 1.0000
21.0900 979.0000 1.0000
21.1000 972.0000 1.0000
21.1100 1026.0000 1.0000
21.1200 970.0000 1.0000
21.1300 987.0000 1.0000
21.1400 984.0000 1.0000
21.1500 952.0000 1.0000
21.1600 1026.0000 1.0000
21.1700 1014.0000 1.0000
21.1800 996.0000 1.0000
21.1900 1001.0000 1.0000
21.2000 985.0000 1.0000
21.2100 974.0000 1.0000
21.2200 992.0000 1.0000
21.2300 1009.0000 1.0000
21.2400 999.0000 1.0000
21.2500 986.0000 1.0000
21.2600 994.0000 1.0000
21.2700 1001.0000 1.0000
21.2800 992.0000 1.0000
21.2900 991.0000 1.0000
21.3000 953.0000 1.0000
21.3100 949.0000 1.0000
21.3200 1043.0000 1.0000
21.3300 1026.0000 1.0000
21.3400 999.0000 1.0000
21.3500 990.0000 1.0000
21.3600 968.0000 1.0000
21.3700 1005.0000 1.0000
21.3800 1036.0000 1.0000
21.3900 1008.0000 1.0000
21.4000 959.0000 1.0000
21.4100 994.0000 1.0000
21.4200 1033.0000 1.0000
21.4300 1006.0000 1.0000
21.4400 974.0000 1.0000
21.4500 959.0000 1.0000
21.4600 984.0000 1.0000
21.4700 974.0000 1.0000
21.4800 979.0000 1.0000
21.4900 1019.0000 1.0000
21.5000 1059.0000 1.0000
21.5100 1002.0000 1.0000
21.5200 965.0000 1.0000
21.5300 984.0000 1.0000
21.5400 980.0000 1.0000
21.5500 998.0000 1.0000
21.5600 992.0000 1.0000
21.5700 1014.0000 1.0000
21.5800 1016.0000 1.0000
21.5900 985.0000 1.0000
21.6000 991.0000 1.0000
21.6100 977.0000 1.0000
21.6200 967.0000 1.0000
21.6300 981.0000 1.0000
21.6400 987.0000 1.0000
21.6500 981.0000 1.0000
21.6600 1006.0000 1.0000
21.6700 1052.0000 1.0000
21.6800 996.0000 1.0000
21.6900 975.0000 1.0000
21.7000 982.0000 1.0000
21.7100 987.0000 1.0000
21.7200 970.0000 1.0000
21.7300 971.0000 1.0000
21.7400 1020.0000 1.0000
21.7500 1002.0000 1.0000
21.7600 988.0000 1.0000
21.7700 973.0000 1.0000
21.7800 977.0000 1.0000
21.7900 940.0000 1.0000
21.8000 1023.0000 1.0000
21.8100 950.0000 1.0000
21.8200 965.0000 1.0000
21.8300 998.0000 1.0000
21.8400 1022.0000 1.0000
21.8500 954.0000 1.0000
21.8600 1028.0000 1.0000
21.8700 1007.0000 1.0000
21.8800 996.0000 1.0000
21.8900 967.0000 1.0000
21.9000 964.0000 1.0000
21.9100 976.0000 1.0000
21.9200 1008.0000 1.0000
21.9300 988.0000 1.0000
21.9400 977.0000 1.0000
21.9500 969.0000 1.0000
21.9600 940.0000 1.0000
21.9700 966.0000 1.0000
21.9800 1024.0000 1.0000
21.9900 1008.0000 1.0000
22.0000 982.0000 1.0000
22.0100 1001.0000 1.0000
22.0200 970.0000 1.0000
22.0300 1032.0000 1.0000
22.0400 974.0000 1.0000
22.0500 943.0000 1.0000
22.0600 931.0000 1.0000
22.0700 961.0000 1.0000
22.0800 965.0000 1.0000
22.0900 997.0000 1.0000
22.1000 1057.0000 1.0000
22.1100 982.0000 1.0000
22.1200 984.0000 1.0000
22.1300 961.0000 1.0000
22.1400 924.0000 1.0000
22.1500 946.0000 1.0000
22.1600 962.0000 1.0000
22.1700 977.0000 1.0000
22.1800 975.0000 1.0000
22.1900 974.0000 1.0000
22.2000 1002.0000 1.0000
22.2100 997.0000 1.0000
22.2200 947.0000 1.0000
22.2300 1017.0000 1.0000
22.2400 968.0000 1.0000
22.2500 1012.0000 1.0000
22.2600 985.0000 1.0000
22.2700 981.0000 1.0000
22.2800 972.0000 1.0000
22.2900 1021.0000 1.0000
22.3000 998.0000 1.0000
22.3100 1030.0000 1.0000
22.3200 1034.0000 1.0000
22.3300 1011.0000 1.0000
22.3400 1017.0000 1.0000
22.3500 984.0000 1.0000
22.3600 984.0000 1.0000
22.3700 985.0000 1.0000
22.3800 985.0000 1.0000
22.3900 999.0000 1.0000
22.4000 1000.0000 1.0000
22.4100 980.0000 1.0000
22.4200 995.0000 1.0000
22.4300 959.0000 1.0000
22.4400 981.0000 1.0000
22.4500 944.0000 1.0000
22.4600 1008.0000 1.0000
22.4700 964.0000 1.0000
22.4800 969.0000 1.0000
22.4900 966.0000 1.0000
22.5000 986.0000 1.0000
22.5100 989.0000 1.0000
22.5200 974.0000 1.0000
22.5300 970.0000 1.0000
22.5400 1019.0000 1.0000
22.5500 964.0000 1.0000
22.5600 938.0000 1.0000
22.5700 931.0000 1.0000
22.5800 956.0000 1.0000
22.5900 971.0000 1.0000
22.6000 945.0000 1.0000
22.6100 986.0000 1.0000
22.6200 997.0000 1.0000
22.6300 962.0000 1.0000
22.6400 968.0000 1.0000
22.6500 1013.0000 1.0000
22.6600 950.0000 1.0000
22.6700 976.0000 1.0000
22.6800 935.0000 1.0000
22.6900 979.0000 1.0000
22.7000 987.0000 1.0000
22.7100 983.0000 1.0000
22.7200 950.0000 1.0000
22.7300 966.0000 1.0000
22.7400 983.0000 1.0000
22.7500 998.0000 1.0000
22.7600 972.0000 1.0000
22.7700 984.0000 1.0000
22.7800 965.0000 1.0000
22.7900 979.0000 1.0000
22.8000 967.0000 1.0000
22.8100 963.0000 1.0000
22.8200 1036.0000 1.0000
22.8300 1029.0000 1.0000
22.8400 957.0000 1.0000
22.8500 993.0000 1.0000
22.8600 898.0000 1.0000
22.8700 1033.0000 1.0000
22.8800 983.0000 1.0000
22.8900 963.0000 1.0000
22.9000 929.0000 1.0000
22.9100 993.0000 1.0000
22.9200 910.0000 1.0000
22.9300 915.0000 1.0000
22.9400 968.0000 1.0000
22.9500 900.0000 1.0000
22.9600 935.0000 1.0000
22.9700 1009.0000 1.0000
22.9800 987.0000 1.0000
22.9900 970.0000 1.0000
23.0000 975.0000 1.0000
23.0100 954.0000 1.0000
23.0200 910.0000 1.0000
23.0300 966.0000 1.0000
23.0400 985.0000 1.0000
23.0500 1035.0000 1.0000
23.0600 1009.0000 1.0000
23.0700 985.0000 1.0000
23.0800 982.0000 1.0000
23.0900 975.0000 1.0000
23.1000 953.0000 1.0000
23.1100 1000.0000 1.0000
23.1200 1022.0000 1.0000
23.1300 962.0000 1.0000
23.1400 950.0000 1.0000
23.1500 971.0000 1.0000
23.1600 948.0000 1.0000
23.1700 933.0000 1.0000
23.1800 965.0000 1.0000
23.1900 965.0000 1.0000
23.2000 965.0000 1.0000
23.2100 936.0000 1.0000
23.2200 949.0000 1.0000
23.2300 963.0000 1.0000
23.2400 992.0000 1.0000
23.2500 975.0000 1.0000
23.2600 979.0000 1.0000
23.2700 984.0000 1.0000
23.2800 1003.0000 1.0000
23.2900 992.0000 1.0000
23.3000 990.0000 1.0000
23.3100 989.0000 1.0000
23.3200 979.0000 1.0000
23.3300 930.0000 1.0000
23.3400 928.0000 1.0000
23.3500 1007.0000 1.0000
23.3600 953.0000 1.0000
23.3700 958.0000 1.0000
23.3800 966.0000 1.0000
23.3900 959.0000 1.0000
23.4000 1000.0000 1.0000
23.4100 951.0000 1.0000
23.4200 981.0000 1.0000
23.4300 1000.0000 1.0000
23.4400 990.0000 1.0000
23.4500 952.0000 1.0000
23.4600 952.0000 1.0000
23.4700 957.0000 1.0000
23.4800 971.0000 1.0000
23.4900 1016.0000 1.0000
23.5000 990.0000 1.0000
23.5100 939.0000 1.0000
23.5200 994.0000 1.0000
23.5300 919.0000 1.0000
23.5400 951.0000 1.0000
23.5500 984.0000 1.0000
23.5600 979.0000 1.0000
23.5700 936.0000 1.0000
23.5800 942.0000 1.0000
23.5900 946.0000 1.0000
23.6000 941.0000 1.0000
23.6100 993.0000 1.0000
23.6200 952.0000 1.0000
23.6300 939.0000 1.0000
23.6400 950.0000 1.0000
23.6500 966.0000 1.0000
23.6600 991.0000 1.0000
23.6700 988.0000 1.0000
23.6800 962.0000 1.0000
23.6900 942.0000 1.0000
23.7000 977.0000 1.0000
23.7100 939.0000 1.0000
23.7200 1004.0000 1.0000
23.7300 925.0000 1.0000
23.7400 1019.0000 1.0000
23.7500 1020.0000 1.0000
23.7600 1035.0000 1.0000
23.7700 1027.0000 1.0000
23.7800 1024.0000 1.0000
23.7900 973.0000 1.0000
23.8000 1001.0000 1.0000
23.8100 990.0000 1.0000
23.8200 944.0000 1.0000
23.8300 993.0000 1.0000
23.8400 1016.0000 1.0000
23.8500 1004.0000 1.0000
23.8600 978.0000 1.0000
23.8700 969.0000 1.0000
23.8800 947.0000 1.0000
23.8900 1004.0000 1.0000
23.9000 995.0000 1.0000
23.9100 1039.0000 1.0000
23.9200 1001.0000 1.0000
23.9300 1007.0000 1.0000
23.9400 1020.0000 1.0000
23.9500 1004.0000 1.0000
23.9600 1023.0000 1.0000
23.9700 1000.0000 1.0000
23.9800 1004.0000 1.0000
23.9900 1041.0000 1.0000
24.0000 1000.0000 1.0000
24.0100 963.0000 1.0000
24.0200 986.0000 1.0000
24.0300 1003.0000 1.0000
24.0400 1017.0000 1.0000
24.0500 1000.0000 1.0000
24.0600 991.0000 1.0000
24.0700 1013.0000 1.0000
24.0800 996.0000 1.0000
24.0900 1045.0000 1.0000
24.1000 1018.0000 1.0000
24.1100 1027.0000 1.0000
24.1200 1002.0000 1.0000
24.1300 1002.0000 1.0000
24.1400 986.0000 1.0000
24.1500 1012.0000 1.0000
24.1600 1018.0000 1.0000
24.1700 1010.0000 1.0000
24.1800 1030.0000 1.0000
24.1900 1009.0000 1.0000
24.2000 976.0000 1.0000
24.2100 1029.0000 1.0000
24.2200 993.0000 1.0000
24.2300 981.0000 1.0000
24.2400 970.0000 1.0000
24.2500 959.0000 1.0000
24.2600 1017.0000 1.0000
24.2700 976.0000 1.0000
24.2800 988.0000 1.0000
24.2900 974.0000 1.0000
24.3000 999.0000 1.0000
24.3100 994.0000 1.0000
24.3200 925.0000 1.0000
24.3300 1021.0000 1.0000
24.3400 965.0000 1.0000
24.3500 970.0000 1.0000
24.3600 935.0000 1.0000
24.3700 971.0000 1.0000
24.3800 985.0000 1.0000
24.3900 956.0000 1.0000
24.4000 946.0000 1.0000
24.4100 979.0000 1.0000
24.4200 952.0000 1.0000
24.4300 926.0000 1.0000
24.4400 939.0000 1.0000
24.4500 941.0000 1.0000
24.4600 987.0000 1.0000
24.4700 967.0000 1.0000
24.4800 964.0000 1.0000
24.4900 992.0000 1.0000
24.5000 922.0000 1.0000
24.5100 944.0000 1.0000
24.5200 945.0000 1.0000
24.5300 969.0000 1.0000
24.5400 954.0000 1.0000
24.5500 904.0000 1.0000
24.5600 935.0000 1.0000
24.5700 986.0000 1.0000
24.5800 979.0000 1.0000
24.5900 969.0000 1.0000
24.6000 930.0000 1.0000
24.6100 912.0000 1.0000
24.6200 968.0000 1.0000
24.6300 938.0000 1.0000
24.6400 919.0000 1.0000
24.6500 907.0000 1.0000
24.6600 962.0000 1.0000
24.6700 947.0000 1.0000
24.6800 959.0000 1.0000
24.6900 922.0000 1.0000
24.7000 947.0000 1.0000
24.7100 936.0000 1.0000
24.7200 999.0000 1.0000
24.7300 958.0000 1.0000
24.7400 974.0000 1.0000
24.7500 987.0000 1.0000
24.7600 948.0000 1.0000
24.7700 979.0000 1.0000
24.7800 989.0000 1.0000
24.7900 974.0000 1.0000
24.8000 929.0000 1.0000
24.8100 956.0000 1.0000
24.8200 954.0000 1.0000
24.8300 994.0000 1.0000
24.8400 982.0000 1.0000
24.8500 960.0000 1.0000
24.8600 944.0000 1.0000
24.8700 936.0000 1.0000
24.8800 936.0000 1.0000
24.8900 949.0000 1.0000
24.9000 962.0000 1.0000
24.9100 976.0000 1.0000
24.9200 928.0000 1.0000
24.9300 954.0000 1.0000
24.9400 955.0000 1.0000
24.9500 955.0000 1.0000
24.9600 951.0000 1.0000
24.9700 932.0000 1.0000
24.9800 915.0000 1.0000
24.9900 949.0000 1.0000
25.0000 919.0000 1.0000
25.0100 963.0000 1.0000
25.0200 930.0000 1.0000
25.0300 949.0000 1.0000
25.0400 901.0000 1.0000
25.0500 918.0000 1.0000
25.0600 899.0000 1.0000
25.0700 969.0000 1.0000
25.0800 998.0000 1.0000
25.0900 948.0000 1.0000
25.1000 953.0000 1.0000
25.1100 954.0000 1.0000
25.1200 949.0000 1.0000
25.1300 981.0000 1.0000
25.1400 982.0000 1.0000
25.1500 963.0000 1.0000
25.1600 916.0000 1.0000
25.1700 910.0000 1.0000
25.1800 968.0000 1.0000
25.1900 921.0000 1.0000
25.2000 882.0000 1.0000
25.2100 946.0000 1.0000
25.2200 916.0000 1.0000
25.2300 929.0000 1.0000
25.2400 945.0000 1.0000
25.2500 948.0000 1.0000
25.2600 999.0000 1.0000
25.2700 914.0000 1.0000
25.2800 932.0000 1.0000
25.2900 1011.0000 1.0000
25.3000 944.0000 1.0000
25.3100 951.0000 1.0000
25.3200 942.0000 1.0000
25.3300 915.0000 1.0000
25.3400 979.0000 1.0000
25.3500 985.0000 1.0000
25.3600 969.0000 1.0000
25.3700 963.0000 1.0000
25.3800 987.0000 1.0000
25.3900 948.0000 1.0000
25.4000 930.0000 1.0000
25.4100 994.0000 1.0000
25.4200 938.0000 1.0000
25.4300 926.0000 1.0000
25.4400 908.0000 1.0000
25.4500 975.0000 1.0000
25.4600 976.0000 1.0000
25.4700 979.0000 1.0000
25.4800 950.0000 1.0000
25.4900 957.0000 1.0000
25.5000 952.0000 1.0000
25.5100 952.0000 1.0000
25.5200 966.0000 1.0000
25.5300 936.0000 1.0000
25.5400 1013.0000 1.0000
25.5500 963.0000 1.0000
25.5600 1010.0000 1.0000
25.5700 970.0000 1.0000
25.5800 1000.0000 1.0000
25.5900 982.0000 1.0000
25.6000 979.0000 1.0000
25.6100 1008.0000 1.0000
25.6200 967.0000 1.0000
25.6300 979.0000 1.0000
25.6400 958.0000 1.0000
25.6500 915.0000 1.0000
25.6600 939.0000 1.0000
25.6700 1003.0000 1.0000
25.6800 992.0000 1.0000
25.6900 953.0000 1.0000
25.7000 953.0000 1.0000
25.7100 939.0000 1.0000
25.7200 1014.0000 1.0000
25.7300 1019.0000 1.0000
25.7400 951.0000 1.0000
25.7500 997.0000 1.0000
25.7600 1009.0000 1.0000
25.7700 1011.0000 1.0000
25.7800 1005.0000 1.0000
25.7900 963.0000 1.0000
25.8000 1008.0000 1.0000
25.8100 1028.0000 1.0000
25.8200 1049.0000 1.0000
25.8300 1019.0000 1.0000
25.8400 1006.0000 1.0000
25.8500 1019.0000 1.0000
25.8600 1032.0000 1.0000
25.8700 954.0000 1.0000
25.8800 1001.0000 1.0000
25.8900 1018.0000 1.0000
25.9000 1051.0000 1.0000
25.9100 1005.0000 1.0000
25.9200 1036.0000 1.0000
25.9300 1016.0000 1.0000
25.9400 999.0000 1.0000
25.9500 990.0000 1.0000
25.9600 1028.0000 1.0000
25.9700 1063.0000 1.0000
25.9800 1003.0000 1.0000
25.9900 1039.0000 1.0000
26.0000 1060.0000 1.0000
26.0100 1105.0000 1.0000
26.0200 1057.0000 1.0000
26.0300 1025.0000 1.0000
26.0400 1091.0000 1.0000
26.0500 1118.0000 1.0000
26.0600 1126.0000 1.0000
26.0700 1149.0000 1.0000
26.0800 1146.0000 1.0000
26.0900 1115.0000 1.0000
26.1000 1194.0000 1.0000
26.1100 1189.0000 1.0000
26.1200 1206.0000 1.0000
26.1300 1217.0000 1.0000
26.1400 1247.0000 1.0000
26.1500 1306.0000 1.0000
26.1600 1358.0000 1.0000
26.1700 1404.0000 1.0000
26.1800 1381.0000 1.0000
26.1900 1406.0000 1.0000
26.2000 1420.0000 1.0000
26.2100 1494.0000 1.0000
26.2200 1611.0000 1.0000
26.2300 1595.0000 1.0000
26.2400 1654.0000 1.0000
26.2500 1712.0000 1.0000
26.2600 1833.0000 1.0000
26.2700 1928.0000 1.0000
26.2800 1992.0000 1.0000
26.2900 1970.0000 1.0000
26.3000 2140.0000 1.0000
26.3100 2325.0000 1.0000
26.3200 2454.0000 1.0000
26.3300 2451.0000 1.0000
26.3400 2502.0000 1.0000
26.3500 2576.0000 1.0000
26.3600 2740.0000 1.0000
26.3700 2982.0000 1.0000
26.3800 3074.0000 1.0000
26.3900 3141.0000 1.0000
26.4000 3151.0000 1.0000
26.4100 3227.0000 1.0000
26.4200 3294.0000 1.0000
26.4300 3317.0000 1.0000
26.4400 3232.0000 1.0000
26.4500 3172.0000 1.0000
26.4600 3257.0000 1.0000
26.4700 3102.0000 1.0000
26.4800 3023.0000 1.0000
26.4900 2947.0000 1.0000
26.5000 2832.0000 1.0000
26.5100 2704.0000 1.0000
26.5200 2582.0000 1.0000
26.5300 2482.0000 1.0000
26.5400 2327.0000 1.0000
26.5500 2147.0000 1.0000
26.5600 2035.0000 1.0000
26.5700 2000.0000 1.0000
26.5800 1892.0000 1.0000
26.5900 1828.0000 1.0000
26.6000 1702.0000 1.0000
26.6100 1707.0000 1.0000
26.6200 1592.0000 1.0000
26.6300 1538.0000 1.0000
26.6400 1485.0000 1.0000
26.6500 1382.0000 1.0000
26.6600 1408.0000 1.0000
26.6700 1337.0000 1.0000
26.6800 1379.0000 1.0000
26.6900 1277.0000 1.0000
26.7000 1236.0000 1.0000
26.7100 1244.0000 1.0000
26.7200 1215.0000 1.0000
26.7300 1217.0000 1.0000
26.7400 1194.0000 1.0000
26.7500 1165.0000 1.0000
26.7600 1182.0000 1.0000
26.7700 1123.0000 1.0000
26.7800 1124.0000 1.0000
26.7900 1124.0000 1.0000
26.8000 1097.0000 1.0000
26.8100 1035.0000 1.0000
26.8200 1072.0000 1.0000
26.8300 1014.0000 1.0000
26.8400 1003.0000 1.0000
26.8500 1000.0000 1.0000
26.8600 1028.0000 1.0000
26.8700 1025.0000 1.0000
26.8800 1019.0000 1.0000
26.8900 1038.0000 1.0000
26.9000 1014.0000 1.0000
26.9100 998.0000 1.0000
26.9200 966.0000 1.0000
26.9300 1023.0000 1.0000
26.9400 993.0000 1.0000
26.9500 1003.0000 1.0000
26.9600 954.0000 1.0000
26.9700 1000.0000 1.0000
26.9800 971.0000 1.0000
26.9900 934.0000 1.0000
27.0000 963.0000 1.0000
27.0100 933.0000 1.0000
27.0200 957.0000 1.0000
27.0300 935.0000 1.0000
27.0400 929.0000 1.0000
27.0500 944.0000 1.0000
27.0600 994.0000 1.0000
27.0700 960.0000 1.0000
27.0800 1016.0000 1.0000
27.0900 915.0000 1.0000
27.1000 907.0000 1.0000
27.1100 917.0000 1.0000
27.1200 918.0000 1.0000
27.1300 924.0000 1.0000
27.1400 928.0000 1.0000
27.1500 933.0000 1.0000
27.1600 962.0000 1.0000
27.1700 935.0000 1.0000
27.1800 874.0000 1.0000
27.1900 889.0000 1.0000
27.2000 879.0000 1.0000
27.2100 879.0000 1.0000
27.2200 927.0000 1.0000
27.2300 921.0000 1.0000
27.2400 926.0000 1.0000
27.2500 902.0000 1.0000
27.2600 919.0000 1.0000
27.2700 878.0000 1.0000
27.2800 929.0000 1.0000
27.2900 917.0000 1.0000
27.3000 917.0000 1.0000
27.3100 913.0000 1.0000
27.3200 891.0000 1.0000
27.3300 866.0000 1.0000
27.3400 896.0000 1.0000
27.3500 879.0000 1.0000
27.3600 800.0000 1.0000
27.3700 855.0000 1.0000
27.3800 842.0000 1.0000
27.3900 850.0000 1.0000
27.4000 862.0000 1.0000
27.4100 839.0000 1.0000
27.4200 872.0000 1.0000
27.4300 866.0000 1.0000
27.4400 921.0000 1.0000
27.4500 874.0000 1.0000
27.4600 909.0000 1.0000
27.4700 869.0000 1.0000
27.4800 882.0000 1.0000
27.4900 903.0000 1.0000
27.5000 878.0000 1.0000
27.5100 910.0000 1.0000
27.5200 870.0000 1.0000
27.5300 872.0000 1.0000
27.5400 875.0000 1.0000
27.5500 867.0000 1.0000
27.5600 865.0000 1.0000
27.5700 891.0000 1.0000
27.5800 880.0000 1.0000
27.5900 864.0000 1.0000
27.6000 897.0000 1.0000
27.6100 892.0000 1.0000
27.6200 872.0000 1.0000
27.6300 858.0000 1.0000
27.6400 863.0000 1.0000
27.6500 843.0000 1.0000
27.6600 851.0000 1.0000
27.6700 862.0000 1.0000
27.6800 875.0000 1.0000
27.6900 898.0000 1.0000
27.7000 894.0000 1.0000
27.7100 891.0000 1.0000
27.7200 911.0000 1.0000
27.7300 853.0000 1.0000
27.7400 896.0000 1.0000
27.7500 875.0000 1.0000
27.7600 862.0000 1.0000
27.7700 888.0000 1.0000
27.7800 839.0000 1.0000
27.7900 842.0000 1.0000
27.8000 866.0000 1.0000
27.8100 883.0000 1.0000
27.8200 870.0000 1.0000
27.8300 902.0000 1.0000
27.8400 843.0000 1.0000
27.8500 856.0000 1.0000
27.8600 837.0000 1.0000
27.8700 850.0000 1.0000
27.8800 795.0000 1.0000
27.8900 873.0000 1.0000
27.9000 878.0000 1.0000
27.9100 853.0000 1.0000
27.9200 823.0000 1.0000
27.9300 848.0000 1.0000
27.9400 874.0000 1.0000
27.9500 845.0000 1.0000
27.9600 879.0000 1.0000
27.9700 839.0000 1.0000
27.9800 845.0000 1.0000
27.9900 832.0000 1.0000
28.0000 857.0000 1.0000
28.0100 819.0000 1.0000
28.0200 795.0000 1.0000
28.0300 839.0000 1.0000
28.0400 822.0000 1.0000
28.0500 842.0000 1.0000
28.0600 840.0000 1.0000
28.0700 839.0000 1.0000
28.0800 834.0000 1.0000
28.0900 803.0000 1.0000
28.1000 802.0000 1.0000
28.1100 835.0000 1.0000
28.1200 846.0000 1.0000
28.1300 845.0000 1.0000
28.1400 881.0000 1.0000
28.1500 866.0000 1.0000
28.1600 849.0000 1.0000
28.1700 899.0000 1.0000
28.1800 850.0000 1.0000
28.1900 860.0000 1.0000
28.2000 843.0000 1.0000
28.2100 843.0000 1.0000
28.2200 805.0000 1.0000
28.2300 847.0000 1.0000
28.2400 796.0000 1.0000
28.2500 879.0000 1.0000
28.2600 844.0000 1.0000
28.2700 812.0000 1.0000
28.2800 816.0000 1.0000
28.2900 819.0000 1.0000
28.3000 810.0000 1.0000
28.3100 837.0000 1.0000
28.3200 803.0000 1.0000
28.3300 787.0000 1.0000
28.3400 858.0000 1.0000
28.3500 782.0000 1.0000
28.3600 798.0000 1.0000
28.3700 804.0000 1.0000
28.3800 877.0000 1.0000
28.3900 844.0000 1.0000
28.4000 825.0000 1.0000
28.4100 816.0000 1.0000
28.4200 869.0000 1.0000
28.4300 830.0000 1.0000
28.4400 852.0000 1.0000
28.4500 847.0000 1.0000
28.4600 823.0000 1.0000
28.4700 847.0000 1.0000
28.4800 829.0000 1.0000
28.4900 845.0000 1.0000
28.5000 834.0000 1.0000
28.5100 846.0000 1.0000
28.5200 844.0000 1.0000
28.5300 828.0000 1.0000
28.5400 816.0000 1.0000
28.5500 836.0000 1.0000
28.5600 822.0000 1.0000
28.5700 845.0000 1.0000
28.5800 854.0000 1.0000
28.5900 817.0000 1.0000
28.6000 851.0000 1.0000
28.6100 833.0000 1.0000
28.6200 805.0000 1.0000
28.6300 754.0000 1.0000
28.6400 745.0000 1.0000
28.6500 830.0000 1.0000
28.6600 879.0000 1.0000
28.6700 841.0000 1.0000
28.6800 868.0000 1.0000
28.6900 864.0000 1.0000
28.7000 828.0000 1.0000
28.7100 821.0000 1.0000
28.7200 801.0000 1.0000
28.7300 817.0000 1.0000
28.7400 800.0000 1.0000
28.7500 813.0000 1.0000
28.7600 815.0000 1.0000
28.7700 800.0000 1.0000
28.7800 807.0000 1.0000
28.7900 800.0000 1.0000
28.8000 835.0000 1.0000
28.8100 834.0000 1.0000
28.8200 832.0000 1.0000
28.8300 850.0000 1.0000
28.8400 826.0000 1.0000
28.8500 823.0000 1.0000
28.8600 832.0000 1.0000
28.8700 800.0000 1.0000
28.8800 812.0000 1.0000
28.8900 766.0000 1.0000
28.9000 815.0000 1.0000
28.9100 807.0000 1.0000
28.9200 789.0000 1.0000
28.9300 793.0000 1.0000
28.9400 817.0000 1.0000
28.9500 804.0000 1.0000
28.9600 822.0000 1.0000
28.9700 836.0000 1.0000
28.9800 813.0000 1.0000
28.9900 785.0000 1.0000
29.0000 781.0000 1.0000
29.0100 777.0000 1.0000
29.0200 811.0000 1.0000
29.0300 804.0000 1.0000
29.0400 796.0000 1.0000
29.0500 772.0000 1.0000
29.0600 728.0000 1.0000
29.0700 796.0000 1.0000
29.0800 802.0000 1.0000
29.0900 820.0000 1.0000
29.1000 764.0000 1.0000
29.1100 759.0000 1.0000
29.1200 793.0000 1.0000
29.1300 798.0000 1.0000
29.1400 792.0000 1.0000
29.1500 823.0000 1.0000
29.1600 754.0000 1.0000
29.1700 820.0000 1.0000
29.1800 769.0000 1.0000
29.1900 782.0000 1.0000
29.2000 810.0000 1.0000
29.2100 812.0000 1.0000
29.2200 761.0000 1.0000
29.2300 723.0000 1.0000
29.2400 772.0000 1.0000
29.2500 772.0000 1.0000
29.2600 812.0000 1.0000
29.2700 773.0000 1.0000
29.2800 797.0000 1.0000
29.2900 780.0000 1.0000
29.3000 868.0000 1.0000
29.3100 806.0000 1.0000
29.3200 789.0000 1.0000
29.3300 821.0000 1.0000
29.3400 841.0000 1.0000
29.3500 827.0000 1.0000
29.3600 834.0000 1.0000
29.3700 789.0000 1.0000
29.3800 804.0000 1.0000
29.3900 784.0000 1.0000
29.4000 825.0000 1.0000
29.4100 772.0000 1.0000
29.4200 829.0000 1.0000
29.4300 780.0000 1.0000
29.4400 792.0000 1.0000
29.4500 777.0000 1.0000
29.4600 773.0000 1.0000
29.4700 801.0000 1.0000
29.4800 811.0000 1.0000
29.4900 798.0000 1.0000
29.5000 777.0000 1.0000
29.5100 784.0000 1.0000
29.5200 806.0000 1.0000
29.5300 767.0000 1.0000
29.5400 800.0000 1.0000
29.5500 741.0000 1.0000
29.5600 807.0000 1.0000
29.5700 763.0000 1.0000
29.5800 787.0000 1.0000
29.5900 827.0000 1.0000
29.6000 810.0000 1.0000
29.6100 790.0000 1.0000
29.6200 799.0000 1.0000
29.6300 778.0000 1.0000
29.6400 780.0000 1.0000
29.6500 784.0000 1.0000
29.6600 795.0000 1.0000
29.6700 814.0000 1.0000
29.6800 790.0000 1.0000
29.6900 823.0000 1.0000
29.7000 823.0000 1.0000
29.7100 792.0000 1.0000
29.7200 772.0000 1.0000
29.7300 778.0000 1.0000
29.7400 755.0000 1.0000
29.7500 724.0000 1.0000
29.7600 763.0000 1.0000
29.7700 790.0000 1.0000
29.7800 741.0000 1.0000
29.7900 781.0000 1.0000
29.8000 804.0000 1.0000
29.8100 793.0000 1.0000
29.8200 794.0000 1.0000
29.8300 827.0000 1.0000
29.8400 806.0000 1.0000
29.8500 815.0000 1.0000
29.8600 844.0000 1.0000
29.8700 736.0000 1.0000
29.8800 726.0000 1.0000
29.8900 786.0000 1.0000
29.9000 796.0000 1.0000
29.9100 757.0000 1.0000
29.9200 774.0000 1.0000
29.9300 776.0000 1.0000
29.9400 745.0000 1.0000
29.9500 750.0000 1.0000
29.9600 765.0000 1.0000
29.9700 792.0000 1.0000
29.9800 748.0000 1.0000
29.9900 757.0000 1.0000
30.0000 743.0000 1.0000
30.0100 767.0000 1.0000
30.0200 808.0000 1.0000
30.0300 795.0000 1.0000
30.0400 748.0000 1.0000
30.0500 744.0000 1.0000
30.0600 802.0000 1.0000
30.0700 761.0000 1.0000
30.0800 772.0000 1.0000
30.0900 758.0000 1.0000
30.1000 782.0000 1.0000
30.1100 767.0000 1.0000
30.1200 778.0000 1.0000
30.1300 796.0000 1.0000
30.1400 819.0000 1.0000
30.1500 828.0000 1.0000
30.1600 795.0000 1.0000
30.1700 804.0000 1.0000
30.1800 793.0000 1.0000
30.1900 749.0000 1.0000
30.2000 824.0000 1.0000
30.2100 770.0000 1.0000
30.2200 770.0000 1.0000
30.2300 743.0000 1.0000
30.2400 744.0000 1.0000
30.2500 723.0000 1.0000
30.2600 753.0000 1.0000
30.2700 737.0000 1.0000
30.2800 760.0000 1.0000
30.2900 775.0000 1.0000
30.3000 769.0000 1.0000
30.3100 789.0000 1.0000
30.3200 775.0000 1.0000
30.3300 755.0000 1.0000
30.3400 769.0000 1.0000
30.3500 839.0000 1.0000
30.3600 764.0000 1.0000
30.3700 729.0000 1.0000
30.3800 817.0000 1.0000
30.3900 768.0000 1.0000
30.4000 791.0000 1.0000
30.4100 723.0000 1.0000
30.4200 735.0000 1.0000
30.4300 769.0000 1.0000
30.4400 739.0000 1.0000
30.4500 720.0000 1.0000
30.4600 778.0000 1.0000
30.4700 726.0000 1.0000
30.4800 740.0000 1.0000
30.4900 721.0000 1.0000
30.5000 728.0000 1.0000
30.5100 726.0000 1.0000
30.5200 758.0000 1.0000
30.5300 736.0000 1.0000
30.5400 697.0000 1.0000
30.5500 745.0000 1.0000
30.5600 746.0000 1.0000
30.5700 765.0000 1.0000
30.5800 767.0000 1.0000
30.5900 730.0000 1.0000
30.6000 746.0000 1.0000
30.6100 753.0000 1.0000
30.6200 720.0000 1.0000
30.6300 732.0000 1.0000
30.6400 789.0000 1.0000
30.6500 760.0000 1.0000
30.6600 795.0000 1.0000
30.6700 777.0000 1.0000
30.6800 733.0000 1.0000
30.6900 770.0000 1.0000
30.7000 746.0000 1.0000
30.7100 745.0000 1.0000
30.7200 795.0000 1.0000
30.7300 777.0000 1.0000
30.7400 765.0000 1.0000
30.7500 727.0000 1.0000
30.7600 745.0000 1.0000
30.7700 709.0000 1.0000
30.7800 721.0000 1.0000
30.7900 750.0000 1.0000
30.8000 773.0000 1.0000
30.8100 777.0000 1.0000
30.8200 743.0000 1.0000
30.8300 744.0000 1.0000
30.8400 707.0000 1.0000
30.8500 709.0000 1.0000
30.8600 741.0000 1.0000
30.8700 729.0000 1.0000
30.8800 752.0000 1.0000
30.8900 741.0000 1.0000
30.9000 743.0000 1.0000
30.9100 754.0000 1.0000
30.9200 772.0000 1.0000
30.9300 733.0000 1.0000
30.9400 737.0000 1.0000
30.9500 689.0000 1.0000
30.9600 759.0000 1.0000
30.9700 768.0000 1.0000
30.9800 712.0000 1.0000
30.9900 726.0000 1.0000
31.0000 746.0000 1.0000
31.0100 722.0000 1.0000
31.0200 775.0000 1.0000
31.0300 801.0000 1.0000
31.0400 735.0000 1.0000
31.0500 777.0000 1.0000
31.0600 792.0000 1.0000
31.0700 745.0000 1.0000
31.0800 796.0000 1.0000
31.0900 750.0000 1.0000
31.1000 736.0000 1.0000
31.1100 750.0000 1.0000
31.1200 726.0000 1.0000
31.1300 729.0000 1.0000
31.1400 772.0000 1.0000
31.1500 774.0000 1.0000
31.1600 760.0000 1.0000
31.1700 749.0000 1.0000
31.1800 782.0000 1.0000
31.1900 780.0000 1.0000
31.2000 769.0000 1.0000
31.2100 767.0000 1.0000
31.2200 722.0000 1.0000
31.2300 746.0000 1.0000
31.2400 714.0000 1.0000
31.2500 745.0000 1.0000
31.2600 731.0000 1.0000
31.2700 743.0000 1.0000
31.2800 739.0000 1.0000
31.2900 721.0000 1.0000
31.3000 724.0000 1.0000
31.3100 747.0000 1.0000
31.3200 760.0000 1.0000
31.3300 758.0000 1.0000
31.3400 751.0000 1.0000
31.3500 747.0000 1.0000
31.3600 760.0000 1.0000
31.3700 756.0000 1.0000
31.3800 753.0000 1.0000
31.3900 725.0000 1.0000
31.4000 762.0000 1.0000
31.4100 749.0000 1.0000
31.4200 772.0000 1.0000
31.4300 701.0000 1.0000
31.4400 723.0000 1.0000
31.4500 704.0000 1.0000
31.4600 715.0000 1.0000
31.4700 696.0000 1.0000
31.4800 742.0000 1.0000
31.4900 712.0000 1.0000
31.5000 708.0000 1.0000
31.5100 727.0000 1.0000
31.5200 757.0000 1.0000
31.5300 755.0000 1.0000
31.5400 698.0000 1.0000
31.5500 792.0000 1.0000
31.5600 760.0000 1.0000
31.5700 746.0000 1.0000
31.5800 714.0000 1.0000
31.5900 669.0000 1.0000
31.6000 708.0000 1.0000
31.6100 690.0000 1.0000
31.6200 730.0000 1.0000
31.6300 738.0000 1.0000
31.6400 728.0000 1.0000
31.6500 755.0000 1.0000
31.6600 747.0000 1.0000
31.6700 746.0000 1.0000
31.6800 792.0000 1.0000
31.6900 738.0000 1.0000
31.7000 727.0000 1.0000
31.7100 734.0000 1.0000
31.7200 753.0000 1.0000
31.7300 711.0000 1.0000
31.7400 753.0000 1.0000
31.7500 695.0000 1.0000
31.7600 697.0000 1.0000
31.7700 713.0000 1.0000
31.7800 662.0000 1.0000
31.7900 686.0000 1.0000
31.8000 704.0000 1.0000
31.8100 715.0000 1.0000
31.8200 694.0000 1.0000
31.8300 699.0000 1.0000
31.8400 713.0000 1.0000
31.8500 746.0000 1.0000
31.8600 716.0000 1.0000
31.8700 723.0000 1.0000
31.8800 666.0000 1.0000
31.8900 701.0000 1.0000
31.9000 719.0000 1.0000
31.9100 726.0000 1.0000
31.9200 674.0000 1.0000
31.9300 694.0000 1.0000
31.9400 703.0000 1.0000
31.9500 704.0000 1.0000
31.9600 725.0000 1.0000
31.9700 652.0000 1.0000
31.9800 726.0000 1.0000
31.9900 733.0000 1.0000
32.0000 725.0000 1.0000
32.0100 739.0000 1.0000
32.0200 665.0000 1.0000
32.0300 719.0000 1.0000
32.0400 687.0000 1.0000
32.0500 714.0000 1.0000
32.0600 737.0000 1.0000
32.0700 733.0000 1.0000
32.0800 717.0000 1.0000
32.0900 719.0000 1.0000
32.1000 697.0000 1.0000
32.1100 708.0000 1.0000
32.1200 692.0000 1.0000
32.1300 708.0000 1.0000
32.1400 733.0000 1.0000
32.1500 684.0000 1.0000
32.1600 692.0000 1.0000
32.1700 720.0000 1.0000
32.1800 715.0000 1.0000
32.1900 689.0000 1.0000
32.2000 743.0000 1.0000
32.2100 692.0000 1.0000
32.2200 690.0000 1.0000
32.2300 656.0000 1.0000
32.2400 672.0000 1.0000
32.2500 711.0000 1.0000
32.2600 663.0000 1.0000
32.2700 724.0000 1.0000
32.2800 731.0000 1.0000
32.2900 746.0000 1.0000
32.3000 725.0000 1.0000
32.3100 763.0000 1.0000
32.3200 718.0000 1.0000
32.3300 735.0000 1.0000
32.3400 702.0000 1.0000
32.3500 722.0000 1.0000
32.3600 698.0000 1.0000
32.3700 765.0000 1.0000
32.3800 714.0000 1.0000
32.3900 661.0000 1.0000
32.4000 735.0000 1.0000
32.4100 674.0000 1.0000
32.4200 692.0000 1.0000
32.4300 687.0000 1.0000
32.4400 693.0000 1.0000
32.4500 690.0000 1.0000
32.4600 711.0000 1.0000
32.4700 687.0000 1.0000
32.4800 652.0000 1.0000
32.4900 709.0000 1.0000
32.5000 753.0000 1.0000
32.5100 677.0000 1.0000
32.5200 705.0000 1.0000
32.5300 701.0000 1.0000
32.5400 723.0000 1.0000
32.5500 710.0000 1.0000
32.5600 688.0000 1.0000
32.5700 643.0000 1.0000
32.5800 652.0000 1.0000
32.5900 706.0000 1.0000
32.6000 691.0000 1.0000
32.6100 705.0000 1.0000
32.6200 708.0000 1.0000
32.6300 694.0000 1.0000
32.6400 689.0000 1.0000
32.6500 713.0000 1.0000
32.6600 669.0000 1.0000
32.6700 715.0000 1.0000
32.6800 740.0000 1.0000
32.6900 741.0000 1.0000
32.7000 718.0000 1.0000
32.7100 689.0000 1.0000
32.7200 697.0000 1.0000
32.7300 688.0000 1.0000
32.7400 685.0000 1.0000
32.7500 688.0000 1.0000
32.7600 687.0000 1.0000
32.7700 732.0000 1.0000
32.7800 728.0000 1.0000
32.7900 683.0000 1.0000
32.8000 686.0000 1.0000
32.8100 697.0000 1.0000
32.8200 737.0000 1.0000
32.8300 752.0000 1.0000
32.8400 728.0000 1.0000
32.8500 700.0000 1.0000
32.8600 705.0000 1.0000
32.8700 771.0000 1.0000
32.8800 709.0000 1.0000
32.8900 725.0000 1.0000
32.9000 706.0000 1.0000
32.9100 679.0000 1.0000
32.9200 760.0000 1.0000
32.9300 759.0000 1.0000
32.9400 775.0000 1.0000
32.9500 776.0000 1.0000
32.9600 774.0000 1.0000
32.9700 813.0000 1.0000
32.9800 828.0000 1.0000
32.9900 794.0000 1.0000
33.0000 815.0000 1.0000
33.0100 824.0000 1.0000
33.0200 801.0000 1.0000
33.0300 796.0000 1.0000
33.0400 832.0000 1.0000
33.0500 813.0000 1.0000
33.0600 854.0000 1.0000
33.0700 787.0000 1.0000
33.0800 867.0000 1.0000
33.0900 853.0000 1.0000
33.1000 877.0000 1.0000
33.1100 858.0000 1.0000
33.1200 843.0000 1.0000
33.1300 802.0000 1.0000
33.1400 857.0000 1.0000
33.1500 847.0000 1.0000
33.1600 785.0000 1.0000
33.1700 847.0000 1.0000
33.1800 847.0000 1.0000
33.1900 793.0000 1.0000
33.2000 802.0000 1.0000
33.2100 820.0000 1.0000
33.2200 801.0000 1.0000
33.2300 800.0000 1.0000
33.2400 793.0000 1.0000
33.2500 736.0000 1.0000
33.2600 761.0000 1.0000
33.2700 738.0000 1.0000
33.2800 768.0000 1.0000
33.2900 774.0000 1.0000
33.3000 756.0000 1.0000
33.3100 851.0000 1.0000
33.3200 755.0000 1.0000
33.3300 829.0000 1.0000
33.3400 811.0000 1.0000
33.3500 802.0000 1.0000
33.3600 847.0000 1.0000
33.3700 836.0000 1.0000
33.3800 827.0000 1.0000
33.3900 846.0000 1.0000
33.4000 856.0000 1.0000
33.4100 894.0000 1.0000
33.4200 903.0000 1.0000
33.4300 905.0000 1.0000
33.4400 977.0000 1.0000
33.4500 998.0000 1.0000
33.4600 1004.0000 1.0000
33.4700 1008.0000 1.0000
33.4800 1035.0000 1.0000
33.4900 1085.0000 1.0000
33.5000 1099.0000 1.0000
33.5100 1146.0000 1.0000
33.5200 1215.0000 1.0000
33.5300 1241.0000 1.0000
33.5400 1295.0000 1.0000
33.5500 1389.0000 1.0000
33.5600 1417.0000 1.0000
33.5700 1407.0000 1.0000
33.5800 1465.0000 1.0000
33.5900 1486.0000 1.0000
33.6000 1579.0000 1.0000
33.6100 1605.0000 1.0000
33.6200 1604.0000 1.0000
33.6300 1602.0000 1.0000
33.6400 1606.0000 1.0000
33.6500 1621.0000 1.0000
33.6600 1622.0000 1.0000
33.6700 1683.0000 1.0000
33.6800 1620.0000 1.0000
33.6900 1577.0000 1.0000
33.7000 1512.0000 1.0000
33.7100 1518.0000 1.0000
33.7200 1458.0000 1.0000
33.7300 1427.0000 1.0000
33.7400 1329.0000 1.0000
33.7500 1258.0000 1.0000
33.7600 1256.0000 1.0000
33.7700 1178.0000 1.0000
33.7800 1207.0000 1.0000
33.7900 1108.0000 1.0000
33.8000 1027.0000 1.0000
33.8100 1046.0000 1.0000
33.8200 1010.0000 1.0000
33.8300 977.0000 1.0000
33.8400 942.0000 1.0000
33.8500 839.0000 1.0000
33.8600 898.0000 1.0000
33.8700 881.0000 1.0000
33.8800 894.0000 1.0000
33.8900 890.0000 1.0000
33.9000 859.0000 1.0000
33.9100 821.0000 1.0000
33.9200 850.0000 1.0000
33.9300 834.0000 1.0000
33.9400 852.0000 1.0000
33.9500 794.0000 1.0000
33.9600 772.0000 1.0000
33.9700 767.0000 1.0000
33.9800 748.0000 1.0000
33.9900 792.0000 1.0000
34.0000 730.0000 1.0000
34.0100 718.0000 1.0000
34.0200 713.0000 1.0000
34.0300 721.0000 1.0000
34.0400 727.0000 1.0000
34.0500 722.0000 1.0000
34.0600 716.0000 1.0000
34.0700 670.0000 1.0000
34.0800 707.0000 1.0000
34.0900 727.0000 1.0000
34.1000 713.0000 1.0000
34.1100 691.0000 1.0000
34.1200 708.0000 1.0000
34.1300 686.0000 1.0000
34.1400 691.0000 1.0000
34.1500 682.0000 1.0000
34.1600 665.0000 1.0000
34.1700 634.0000 1.0000
34.1800 702.0000 1.0000
34.1900 695.0000 1.0000
34.2000 671.0000 1.0000
34.2100 680.0000 1.0000
34.2200 670.0000 1.0000
34.2300 665.0000 1.0000
34.2400 652.0000 1.0000
34.2500 649.0000 1.0000
34.2600 659.0000 1.0000
34.2700 673.0000 1.0000
34.2800 672.0000 1.0000
34.2900 658.0000 1.0000
34.3000 636.0000 1.0000
34.3100 628.0000 1.0000
34.3200 629.0000 1.0000
34.3300 718.0000 1.0000
34.3400 642.0000 1.0000
34.3500 627.0000 1.0000
34.3600 613.0000 1.0000
34.3700 636.0000 1.0000
34.3800 680.0000 1.0000
34.3900 627.0000 1.0000
34.4000 621.0000 1.0000
34.4100 663.0000 1.0000
34.4200 652.0000 1.0000
34.4300 698.0000 1.0000
34.4400 680.0000 1.0000
34.4500 647.0000 1.0000
34.4600 641.0000 1.0000
34.4700 643.0000 1.0000
34.4800 629.0000 1.0000
34.4900 639.0000 1.0000
34.5000 616.0000 1.0000
34.5100 641.0000 1.0000
34.5200 636.0000 1.0000
34.5300 648.0000 1.0000
34.5400 631.0000 1.0000
34.5500 627.0000 1.0000
34.5600 635.0000 1.0000
34.5700 661.0000 1.0000
34.5800 629.0000 1.0000
34.5900 590.0000 1.0000
34.6000 656.0000 1.0000
34.6100 633.0000 1.0000
34.6200 631.0000 1.0000
34.6300 568.0000 1.0000
34.6400 632.0000 1.0000
34.6500 643.0000 1.0000
34.6600 629.0000 1.0000
34.6700 605.0000 1.0000
34.6800 581.0000 1.0000
34.6900 628.0000 1.0000
34.7000 577.0000 1.0000
34.7100 599.0000 1.0000
34.7200 601.0000 1.0000
34.7300 640.0000 1.0000
34.7400 630.0000 1.0000
34.7500 598.0000 1.0000
34.7600 633.0000 1.0000
34.7700 632.0000 1.0000
34.7800 618.0000 1.0000
34.7900 624.0000 1.0000
34.8000 641.0000 1.0000
34.8100 610.0000 1.0000
34.8200 609.0000 1.0000
34.8300 634.0000 1.0000
34.8400 595.0000 1.0000
34.8500 643.0000 1.0000
34.8600 589.0000 1.0000
34.8700 601.0000 1.0000
34.8800 630.0000 1.0000
34.8900 646.0000 1.0000
34.9000 570.0000 1.0000
34.9100 604.0000 1.0000
34.9200 650.0000 1.0000
34.9300 615.0000 1.0000
34.9400 604.0000 1.0000
34.9500 589.0000 1.0000
34.9600 599.0000 1.0000
34.9700 617.0000 1.0000
34.9800 567.0000 1.0000
34.9900 610.0000 1.0000
35.0000 606.0000 1.0000
35.0100 589.0000 1.0000
35.0200 625.0000 1.0000
35.0300 585.0000 1.0000
35.0400 618.0000 1.0000
35.0500 620.0000 1.0000
35.0600 587.0000 1.0000
35.0700 627.0000 1.0000
35.0800 635.0000 1.0000
35.0900 647.0000 1.0000
35.1000 618.0000 1.0000
35.1100 599.0000 1.0000
35.1200 597.0000 1.0000
35.1300 602.0000 1.0000
35.1400 583.0000 1.0000
35.1500 626.0000 1.0000
35.1600 624.0000 1.0000
35.1700 612.0000 1.0000
35.1800 628.0000 1.0000
35.1900 610.0000 1.0000
35.2000 640.0000 1.0000
35.2100 656.0000 1.0000
35.2200 628.0000 1.0000
35.2300 606.0000 1.0000
35.2400 615.0000 1.0000
35.2500 616.0000 1.0000
35.2600 652.0000 1.0000
35.2700 661.0000 1.0000
35.2800 665.0000 1.0000
35.2900 665.0000 1.0000
35.3000 654.0000 1.0000
35.3100 618.0000 1.0000
35.3200 675.0000 1.0000
35.3300 692.0000 1.0000
35.3400 681.0000 1.0000
35.3500 672.0000 1.0000
35.3600 707.0000 1.0000
35.3700 714.0000 1.0000
35.3800 720.0000 1.0000
35.3900 747.0000 1.0000
35.4000 780.0000 1.0000
35.4100 766.0000 1.0000
35.4200 811.0000 1.0000
35.4300 864.0000 1.0000
35.4400 881.0000 1.0000
35.4500 909.0000 1.0000
35.4600 953.0000 1.0000
35.4700 1010.0000 1.0000
35.4800 1008.0000 1.0000
35.4900 1008.0000 1.0000
35.5000 1068.0000 1.0000
35.5100 1146.0000 1.0000
35.5200 1142.0000 1.0000
35.5300 1153.0000 1.0000
35.5400 1247.0000 1.0000
35.5500 1228.0000 1.0000
35.5600 1239.0000 1.0000
35.5700 1178.0000 1.0000
35.5800 1202.0000 1.0000
35.5900 1226.0000 1.0000
35.6000 1143.0000 1.0000
35.6100 1128.0000 1.0000
35.6200 1043.0000 1.0000
35.6300 1016.0000 1.0000
35.6400 1008.0000 1.0000
35.6500 977.0000 1.0000
35.6600 960.0000 1.0000
35.6700 898.0000 1.0000
35.6800 888.0000 1.0000
35.6900 774.0000 1.0000
35.7000 814.0000 1.0000
35.7100 762.0000 1.0000
35.7200 755.0000 1.0000
35.7300 718.0000 1.0000
35.7400 698.0000 1.0000
35.7500 671.0000 1.0000
35.7600 652.0000 1.0000
35.7700 638.0000 1.0000
35.7800 664.0000 1.0000
35.7900 638.0000 1.0000
35.8000 641.0000 1.0000
35.8100 626.0000 1.0000
35.8200 567.0000 1.0000
35.8300 596.0000 1.0000
35.8400 556.0000 1.0000
35.8500 602.0000 1.0000
35.8600 593.0000 1.0000
35.8700 606.0000 1.0000
35.8800 573.0000 1.0000
35.8900 603.0000 1.0000
35.9000 599.0000 1.0000
35.9100 628.0000 1.0000
35.9200 601.0000 1.0000
35.9300 588.0000 1.0000
35.9400 593.0000 1.0000
35.9500 591.0000 1.0000
35.9600 582.0000 1.0000
35.9700 564.0000 1.0000
35.9800 603.0000 1.0000
35.9900 563.0000 1.0000
36.0000 603.0000 1.0000
36.0100 559.0000 1.0000
36.0200 538.0000 1.0000
36.0300 563.0000 1.0000
36.0400 564.0000 1.0000
36.0500 553.0000 1.0000
36.0600 554.0000 1.0000
36.0700 536.0000 1.0000
36.0800 556.0000 1.0000
36.0900 586.0000 1.0000
36.1000 558.0000 1.0000
36.1100 568.0000 1.0000
36.1200 564.0000 1.0000
36.1300 570.0000 1.0000
36.1400 564.0000 1.0000
36.1500 540.0000 1.0000
36.1600 586.0000 1.0000
36.1700 595.0000 1.0000
36.1800 566.0000 1.0000
36.1900 558.0000 1.0000
36.2000 554.0000 1.0000
36.2100 581.0000 1.0000
36.2200 549.0000 1.0000
36.2300 593.0000 1.0000
36.2400 553.0000 1.0000
36.2500 534.0000 1.0000
36.2600 561.0000 1.0000
36.2700 563.0000 1.0000
36.2800 552.0000 1.0000
36.2900 555.0000 1.0000
36.3000 584.0000 1.0000
36.3100 609.0000 1.0000
36.3200 585.0000 1.0000
36.3300 535.0000 1.0000
36.3400 520.0000 1.0000
36.3500 533.0000 1.0000
36.3600 565.0000 1.0000
36.3700 591.0000 1.0000
36.3800 541.0000 1.0000
36.3900 566.0000 1.0000
36.4000 595.0000 1.0000
36.4100 585.0000 1.0000
36.4200 585.0000 1.0000
36.4300 588.0000 1.0000
36.4400 586.0000 1.0000
36.4500 593.0000 1.0000
36.4600 587.0000 1.0000
36.4700 553.0000 1.0000
36.4800 604.0000 1.0000
36.4900 578.0000 1.0000
36.5000 574.0000 1.0000
36.5100 575.0000 1.0000
36.5200 540.0000 1.0000
36.5300 560.0000 1.0000
36.5400 538.0000 1.0000
36.5500 540.0000 1.0000
36.5600 509.0000 1.0000
36.5700 540.0000 1.0000
36.5800 532.0000 1.0000
36.5900 561.0000 1.0000
36.6000 542.0000 1.0000
36.6100 557.0000 1.0000
36.6200 537.0000 1.0000
36.6300 583.0000 1.0000
36.6400 572.0000 1.0000
36.6500 544.0000 1.0000
36.6600 555.0000 1.0000
36.6700 586.0000 1.0000
36.6800 549.0000 1.0000
36.6900 577.0000 1.0000
36.7000 525.0000 1.0000
36.7100 566.0000 1.0000
36.7200 536.0000 1.0000
36.7300 606.0000 1.0000
36.7400 583.0000 1.0000
36.7500 565.0000 1.0000
36.7600 591.0000 1.0000
36.7700 546.0000 1.0000
36.7800 544.0000 1.0000
36.7900 528.0000 1.0000
36.8000 547.0000 1.0000
36.8100 560.0000 1.0000
36.8200 559.0000 1.0000
36.8300 551.0000 1.0000
36.8400 567.0000 1.0000
36.8500 555.0000 1.0000
36.8600 537.0000 1.0000
36.8700 549.0000 1.0000
36.8800 516.0000 1.0000
36.8900 521.0000 1.0000
36.9000 534.0000 1.0000
36.9100 558.0000 1.0000
36.9200 557.0000 1.0000
36.9300 518.0000 1.0000
36.9400 539.0000 1.0000
36.9500 569.0000 1.0000
36.9600 532.0000 1.0000
36.9700 638.0000 1.0000
36.9800 566.0000 1.0000
36.9900 525.0000 1.0000
37.0000 577.0000 1.0000
37.0100 597.0000 1.0000
37.0200 577.0000 1.0000
37.0300 614.0000 1.0000
37.0400 548.0000 1.0000
37.0500 563.0000 1.0000
37.0600 516.0000 1.0000
37.0700 546.0000 1.0000
37.0800 552.0000 1.0000
37.0900 579.0000 1.0000
37.1000 557.0000 1.0000
37.1100 609.0000 1.0000
37.1200 613.0000 1.0000
37.1300 577.0000 1.0000
37.1400 562.0000 1.0000
37.1500 600.0000 1.0000
37.1600 617.0000 1.0000
37.1700 612.0000 1.0000
37.1800 606.0000 1.0000
37.1900 580.0000 1.0000
37.2000 575.0000 1.0000
37.2100 600.0000 1.0000
37.2200 643.0000 1.0000
37.2300 616.0000 1.0000
37.2400 601.0000 1.0000
37.2500 603.0000 1.0000
37.2600 645.0000 1.0000
37.2700 585.0000 1.0000
37.2800 641.0000 1.0000
37.2900 663.0000 1.0000
37.3000 671.0000 1.0000
37.3100 707.0000 1.0000
37.3200 668.0000 1.0000
37.3300 691.0000 1.0000
37.3400 737.0000 1.0000
37.3500 703.0000 1.0000
37.3600 726.0000 1.0000
37.3700 765.0000 1.0000
37.3800 813.0000 1.0000
37.3900 800.0000 1.0000
37.4000 811.0000 1.0000
37.4100 840.0000 1.0000
37.4200 836.0000 1.0000
37.4300 945.0000 1.0000
37.4400 961.0000 1.0000
37.4500 956.0000 1.0000
37.4600 965.0000 1.0000
37.4700 1046.0000 1.0000
37.4800 1063.0000 1.0000
37.4900 1161.0000 1.0000
37.5000 1168.0000 1.0000
37.5100 1293.0000 1.0000
37.5200 1354.0000 1.0000
37.5300 1405.0000 1.0000
37.5400 1545.0000 1.0000
37.5500 1535.0000 1.0000
37.5600 1649.0000 1.0000
37.5700 1804.0000 1.0000
37.5800 1855.0000 1.0000
37.5900 2024.0000 1.0000
37.6000 2126.0000 1.0000
37.6100 2296.0000 1.0000
37.6200 2352.0000 1.0000
37.6300 2419.0000 1.0000
37.6400 2583.0000 1.0000
37.6500 2650.0000 1.0000
37.6600 2804.0000 1.0000
37.6700 2804.0000 1.0000
37.6800 2874.0000 1.0000
37.6900 2816.0000 1.0000
37.7000 2898.0000 1.0000
37.7100 2859.0000 1.0000
37.7200 2794.0000 1.0000
37.7300 2750.0000 1.0000
37.7400 2813.0000 1.0000
37.7500 2687.0000 1.0000
37.7600 2648.0000 1.0000
37.7700 2523.0000 1.0000
37.7800 2440.0000 1.0000
37.7900 2329.0000 1.0000
37.8000 2185.0000 1.0000
37.8100 2127.0000 1.0000
37.8200 2012.0000 1.0000
37.8300 1922.0000 1.0000
37.8400 1791.0000 1.0000
37.8500 1760.0000 1.0000
37.8600 1558.0000 1.0000
37.8700 1555.0000 1.0000
37.8800 1413.0000 1.0000
37.8900 1310.0000 1.0000
37.9000 1215.0000 1.0000
37.9100 1190.0000 1.0000
37.9200 1109.0000 1.0000
37.9300 1047.0000 1.0000
37.9400 1051.0000 1.0000
37.9500 981.0000 1.0000
37.9600 972.0000 1.0000
37.9700 915.0000 1.0000
37.9800 852.0000 1.0000
37.9900 860.0000 1.0000
38.0000 853.0000 1.0000
38.0100 770.0000 1.0000
38.0200 741.0000 1.0000
38.0300 712.0000 1.0000
38.0400 728.0000 1.0000
38.0500 712.0000 1.0000
38.0600 688.0000 1.0000
38.0700 646.0000 1.0000
38.0800 637.0000 1.0000
38.0900 639.0000 1.0000
38.1000 632.0000 1.0000
38.1100 626.0000 1.0000
38.1200 600.0000 1.0000
38.1300 580.0000 1.0000
38.1400 573.0000 1.0000
38.1500 603.0000 1.0000
38.1600 642.0000 1.0000
38.1700 543.0000 1.0000
38.1800 526.0000 1.0000
38.1900 607.0000 1.0000
38.2000 538.0000 1.0000
38.2100 501.0000 1.0000
38.2200 547.0000 1.0000
38.2300 548.0000 1.0000
38.2400 553.0000 1.0000
38.2500 524.0000 1.0000
38.2600 551.0000 1.0000
38.2700 543.0000 1.0000
38.2800 548.0000 1.0000
38.2900 543.0000 1.0000
38.3000 537.0000 1.0000
38.3100 531.0000 1.0000
38.3200 508.0000 1.0000
38.3300 560.0000 1.0000
38.3400 569.0000 1.0000
38.3500 562.0000 1.0000
38.3600 523.0000 1.0000
38.3700 502.0000 1.0000
38.3800 507.0000 1.0000
38.3900 557.0000 1.0000
38.4000 518.0000 1.0000
38.4100 550.0000 1.0000
38.4200 515.0000 1.0000
38.4300 508.0000 1.0000
38.4400 524.0000 1.0000
38.4500 509.0000 1.0000
38.4600 507.0000 1.0000
38.4700 482.0000 1.0000
38.4800 555.0000 1.0000
38.4900 575.0000 1.0000
38.5000 552.0000 1.0000
38.5100 494.0000 1.0000
38.5200 486.0000 1.0000
38.5300 537.0000 1.0000
38.5400 541.0000 1.0000
38.5500 515.0000 1.0000
38.5600 523.0000 1.0000
38.5700 571.0000 1.0000
38.5800 534.0000 1.0000
38.5900 541.0000 1.0000
38.6000 553.0000 1.0000
38.6100 531.0000 1.0000
38.6200 477.0000 1.0000
38.6300 500.0000 1.0000
38.6400 501.0000 1.0000
38.6500 503.0000 1.0000
38.6600 535.0000 1.0000
38.6700 520.0000 1.0000
38.6800 542.0000 1.0000
38.6900 546.0000 1.0000
38.7000 502.0000 1.0000
38.7100 523.0000 1.0000
38.7200 535.0000 1.0000
38.7300 553.0000 1.0000
38.7400 533.0000 1.0000
38.7500 503.0000 1.0000
38.7600 530.0000 1.0000
38.7700 530.0000 1.0000
38.7800 528.0000 1.0000
38.7900 474.0000 1.0000
38.8000 494.0000 1.0000
38.8100 535.0000 1.0000
38.8200 514.0000 1.0000
38.8300 469.0000 1.0000
38.8400 505.0000 1.0000
38.8500 486.0000 1.0000
38.8600 481.0000 1.0000
38.8700 526.0000 1.0000
38.8800 503.0000 1.0000
38.8900 529.0000 1.0000
38.9000 526.0000 1.0000
38.9100 532.0000 1.0000
38.9200 495.0000 1.0000
38.9300 524.0000 1.0000
38.9400 503.0000 1.0000
38.9500 517.0000 1.0000
38.9600 498.0000 1.0000
38.9700 483.0000 1.0000
38.9800 453.0000 1.0000
38.9900 464.0000 1.0000
39.0000 473.0000 1.0000
39.0100 467.0000 1.0000
39.0200 477.0000 1.0000
39.0300 487.0000 1.0000
39.0400 496.0000 1.0000
39.0500 487.0000 1.0000
39.0600 490.0000 1.0000
39.0700 493.0000 1.0000
39.0800 494.0000 1.0000
39.0900 492.0000 1.0000
39.1000 524.0000 1.0000
39.1100 510.0000 1.0000
39.1200 490.0000 1.0000
39.1300 489.0000 1.0000
39.1400 441.0000 1.0000
39.1500 461.0000 1.0000
39.1600 473.0000 1.0000
39.1700 483.0000 1.0000
39.1800 476.0000 1.0000
39.1900 471.0000 1.0000
39.2000 437.0000 1.0000
39.2100 459.0000 1.0000
39.2200 486.0000 1.0000
39.2300 465.0000 1.0000
39.2400 495.0000 1.0000
39.2500 460.0000 1.0000
39.2600 452.0000 1.0000
39.2700 466.0000 1.0000
39.2800 473.0000 1.0000
39.2900 446.0000 1.0000
39.3000 451.0000 1.0000
39.3100 459.0000 1.0000
39.3200 470.0000 1.0000
39.3300 488.0000 1.0000
39.3400 486.0000 1.0000
39.3500 487.0000 1.0000
39.3600 478.0000 1.0000
39.3700 444.0000 1.0000
39.3800 474.0000 1.0000
39.3900 481.0000 1.0000
39.4000 489.0000 1.0000
39.4100 506.0000 1.0000
39.4200 484.0000 1.0000
39.4300 490.0000 1.0000
39.4400 490.0000 1.0000
39.4500 445.0000 1.0000
39.4600 487.0000 1.0000
39.4700 465.0000 1.0000
39.4800 440.0000 1.0000
39.4900 451.0000 1.0000
39.5000 512.0000 1.0000
39.5100 504.0000 1.0000
39.5200 480.0000 1.0000
39.5300 455.0000 1.0000
39.5400 493.0000 1.0000
39.5500 466.0000 1.0000
39.5600 477.0000 1.0000
39.5700 468.0000 1.0000
39.5800 494.0000 1.0000
39.5900 472.0000 1.0000
39.6000 475.0000 1.0000
39.6100 470.0000 1.0000
39.6200 477.0000 1.0000
39.6300 485.0000 1.0000
39.6400 514.0000 1.0000
39.6500 488.0000 1.0000
39.6600 468.0000 1.0000
39.6700 470.0000 1.0000
39.6800 496.0000 1.0000
39.6900 495.0000 1.0000
39.7000 494.0000 1.0000
39.7100 475.0000 1.0000
39.7200 464.0000 1.0000
39.7300 464.0000 1.0000
39.7400 477.0000 1.0000
39.7500 493.0000 1.0000
39.7600 447.0000 1.0000
39.7700 463.0000 1.0000
39.7800 459.0000 1.0000
39.7900 474.0000 1.0000
39.8000 464.0000 1.0000
39.8100 433.0000 1.0000
39.8200 455.0000 1.0000
39.8300 494.0000 1.0000
39.8400 473.0000 1.0000
39.8500 477.0000 1.0000
39.8600 483.0000 1.0000
39.8700 451.0000 1.0000
39.8800 480.0000 1.0000
39.8900 481.0000 1.0000
39.9000 457.0000 1.0000
39.9100 456.0000 1.0000
39.9200 495.0000 1.0000
39.9300 489.0000 1.0000
39.9400 460.0000 1.0000
39.9500 480.0000 1.0000
39.9600 476.0000 1.0000
39.9700 468.0000 1.0000
39.9800 455.0000 1.0000
39.9900 460.0000 1.0000
40.0000 498.0000 1.0000
40.0100 455.0000 1.0000
40.0200 467.0000 1.0000
40.0300 445.0000 1.0000
40.0400 474.0000 1.0000
40.0500 464.0000 1.0000
40.0600 425.0000 1.0000
40.0700 450.0000 1.0000
40.0800 447.0000 1.0000
40.0900 437.0000 1.0000
40.1000 448.0000 1.0000
40.1100 459.0000 1.0000
40.1200 481.0000 1.0000
40.1300 490.0000 1.0000
40.1400 428.0000 1.0000
40.1500 469.0000 1.0000
40.1600 445.0000 1.0000
40.1700 476.0000 1.0000
40.1800 445.0000 1.0000
40.1900 441.0000 1.0000
40.2000 459.0000 1.0000
40.2100 473.0000 1.0000
40.2200 437.0000 1.0000
40.2300 446.0000 1.0000
40.2400 502.0000 1.0000
40.2500 472.0000 1.0000
40.2600 458.0000 1.0000
40.2700 474.0000 1.0000
40.2800 487.0000 1.0000
40.2900 468.0000 1.0000
40.3000 474.0000 1.0000
40.3100 457.0000 1.0000
40.3200 447.0000 1.0000
40.3300 442.0000 1.0000
40.3400 438.0000 1.0000
40.3500 471.0000 1.0000
40.3600 468.0000 1.0000
40.3700 485.0000 1.0000
40.3800 430.0000 1.0000
40.3900 494.0000 1.0000
40.4000 452.0000 1.0000
40.4100 476.0000 1.0000
40.4200 459.0000 1.0000
40.4300 441.0000 1.0000
40.4400 469.0000 1.0000
40.4500 487.0000 1.0000
40.4600 473.0000 1.0000
40.4700 440.0000 1.0000
40.4800 465.0000 1.0000
40.4900 437.0000 1.0000
40.5000 485.0000 1.0000
40.5100 452.0000 1.0000
40.5200 477.0000 1.0000
40.5300 495.0000 1.0000
40.5400 428.0000 1.0000
40.5500 466.0000 1.0000
40.5600 498.0000 1.0000
40.5700 466.0000 1.0000
40.5800 451.0000 1.0000
40.5900 440.0000 1.0000
40.6000 494.0000 1.0000
40.6100 472.0000 1.0000
40.6200 496.0000 1.0000
40.6300 475.0000 1.0000
40.6400 456.0000 1.0000
40.6500 470.0000 1.0000
40.6600 489.0000 1.0000
40.6700 469.0000 1.0000
40.6800 477.0000 1.0000
40.6900 456.0000 1.0000
40.7000 492.0000 1.0000
40.7100 506.0000 1.0000
40.7200 490.0000 1.0000
40.7300 504.0000 1.0000
40.7400 494.0000 1.0000
40.7500 482.0000 1.0000
40.7600 482.0000 1.0000
40.7700 502.0000 1.0000
40.7800 431.0000 1.0000
40.7900 505.0000 1.0000
40.8000 531.0000 1.0000
40.8100 499.0000 1.0000
40.8200 466.0000 1.0000
40.8300 512.0000 1.0000
40.8400 497.0000 1.0000
40.8500 471.0000 1.0000
40.8600 482.0000 1.0000
40.8700 493.0000 1.0000
40.8800 443.0000 1.0000
40.8900 443.0000 1.0000
40.9000 487.0000 1.0000
40.9100 490.0000 1.0000
40.9200 504.0000 1.0000
40.9300 473.0000 1.0000
40.9400 463.0000 1.0000
40.9500 457.0000 1.0000
40.9600 449.0000 1.0000
40.9700 449.0000 1.0000
40.9800 454.0000 1.0000
40.9900 474.0000 1.0000
41.0000 439.0000 1.0000
41.0100 487.0000 1.0000
41.0200 456.0000 1.0000
41.0300 444.0000 1.0000
41.0400 466.0000 1.0000
41.0500 439.0000 1.0000
41.0600 466.0000 1.0000
41.0700 473.0000 1.0000
41.0800 468.0000 1.0000
41.0900 455.0000 1.0000
41.1000 451.0000 1.0000
41.1100 456.0000 1.0000
41.1200 424.0000 1.0000
41.1300 459.0000 1.0000
41.1400 435.0000 1.0000
41.1500 458.0000 1.0000
41.1600 448.0000 1.0000
41.1700 476.0000 1.0000
41.1800 419.0000 1.0000
41.1900 458.0000 1.0000
41.2000 465.0000 1.0000
41.2100 453.0000 1.0000
41.2200 462.0000 1.0000
41.2300 477.0000 1.0000
41.2400 457.0000 1.0000
41.2500 446.0000 1.0000
41.2600 461.0000 1.0000
41.2700 460.0000 1.0000
41.2800 458.0000 1.0000
41.2900 458.0000 1.0000
41.3000 442.0000 1.0000
41.3100 450.0000 1.0000
41.3200 440.0000 1.0000
41.3300 436.0000 1.0000
41.3400 428.0000 1.0000
41.3500 479.0000 1.0000
41.3600 443.0000 1.0000
41.3700 447.0000 1.0000
41.3800 422.0000 1.0000
41.3900 455.0000 1.0000
41.4000 452.0000 1.0000
41.4100 483.0000 1.0000
41.4200 469.0000 1.0000
41.4300 430.0000 1.0000
41.4400 417.0000 1.0000
41.4500 451.0000 1.0000
41.4600 485.0000 1.0000
41.4700 502.0000 1.0000
41.4800 478.0000 1.0000
41.4900 462.0000 1.0000
41.5000 427.0000 1.0000
41.5100 431.0000 1.0000
41.5200 433.0000 1.0000
41.5300 411.0000 1.0000
41.5400 460.0000 1.0000
41.5500 459.0000 1.0000
41.5600 420.0000 1.0000
41.5700 437.0000 1.0000
41.5800 490.0000 1.0000
41.5900 458.0000 1.0000
41.6000 425.0000 1.0000
41.6100 443.0000 1.0000
41.6200 459.0000 1.0000
41.6300 480.0000 1.0000
41.6400 437.0000 1.0000
41.6500 437.0000 1.0000
41.6600 428.0000 1.0000
41.6700 437.0000 1.0000
41.6800 448.0000 1.0000
41.6900 450.0000 1.0000
41.7000 458.0000 1.0000
41.7100 446.0000 1.0000
41.7200 417.0000 1.0000
41.7300 460.0000 1.0000
41.7400 434.0000 1.0000
41.7500 412.0000 1.0000
41.7600 443.0000 1.0000
41.7700 443.0000 1.0000
41.7800 418.0000 1.0000
41.7900 454.0000 1.0000
41.8000 464.0000 1.0000
41.8100 466.0000 1.0000
41.8200 442.0000 1.0000
41.8300 442.0000 1.0000
41.8400 418.0000 1.0000
41.8500 457.0000 1.0000
41.8600 472.0000 1.0000
41.8700 432.0000 1.0000
41.8800 434.0000 1.0000
41.8900 441.0000 1.0000
41.9000 480.0000 1.0000
41.9100 452.0000 1.0000
41.9200 462.0000 1.0000
41.9300 433.0000 1.0000
41.9400 438.0000 1.0000
41.9500 489.0000 1.0000
41.9600 450.0000 1.0000
41.9700 462.0000 1.0000
41.9800 439.0000 1.0000
41.9900 441.0000 1.0000
42.0000 471.0000 1.0000
42.0100 476.0000 1.0000
42.0200 438.0000 1.0000
42.0300 456.0000 1.0000
42.0400 465.0000 1.0000
42.0500 413.0000 1.0000
42.0600 437.0000 1.0000
42.0700 448.0000 1.0000
42.0800 451.0000 1.0000
42.0900 429.0000 1.0000
42.1000 444.0000 1.0000
42.1100 463.0000 1.0000
42.1200 427.0000 1.0000
42.1300 440.0000 1.0000
42.1400 467.0000 1.0000
42.1500 459.0000 1.0000
42.1600 473.0000 1.0000
42.1700 460.0000 1.0000
42.1800 460.0000 1.0000
42.1900 457.0000 1.0000
42.2000 454.0000 1.0000
42.2100 468.0000 1.0000
42.2200 516.0000 1.0000
42.2300 498.0000 1.0000
42.2400 449.0000 1.0000
42.2500 481.0000 1.0000
42.2600 488.0000 1.0000
42.2700 465.0000 1.0000
42.2800 461.0000 1.0000
42.2900 481.0000 1.0000
42.3000 488.0000 1.0000
42.3100 471.0000 1.0000
42.3200 478.0000 1.0000
42.3300 504.0000 1.0000
42.3400 491.0000 1.0000
42.3500 493.0000 1.0000
42.3600 495.0000 1.0000
42.3700 529.0000 1.0000
42.3800 518.0000 1.0000
42.3900 495.0000 1.0000
42.4000 494.0000 1.0000
42.4100 492.0000 1.0000
42.4200 499.0000 1.0000
42.4300 482.0000 1.0000
42.4400 473.0000 1.0000
42.4500 472.0000 1.0000
42.4600 494.0000 1.0000
42.4700 467.0000 1.0000
42.4800 490.0000 1.0000
42.4900 504.0000 1.0000
42.5000 436.0000 1.0000
42.5100 468.0000 1.0000
42.5200 467.0000 1.0000
42.5300 487.0000 1.0000
42.5400 455.0000 1.0000
42.5500 471.0000 1.0000
42.5600 482.0000 1.0000
42.5700 445.0000 1.0000
42.5800 460.0000 1.0000
42.5900 487.0000 1.0000
42.6000 474.0000 1.0000
42.6100 489.0000 1.0000
42.6200 498.0000 1.0000
42.6300 480.0000 1.0000
42.6400 460.0000 1.0000
42.6500 436.0000 1.0000
42.6600 446.0000 1.0000
42.6700 412.0000 1.0000
42.6800 429.0000 1.0000
42.6900 459.0000 1.0000
42.7000 407.0000 1.0000
42.7100 454.0000 1.0000
42.7200 474.0000 1.0000
42.7300 458.0000 1.0000
42.7400 441.0000 1.0000
42.7500 425.0000 1.0000
42.7600 440.0000 1.0000
42.7700 443.0000 1.0000
42.7800 423.0000 1.0000
42.7900 419.0000 1.0000
42.8000 425.0000 1.0000
42.8100 444.0000 1.0000
42.8200 459.0000 1.0000
42.8300 468.0000 1.0000
42.8400 444.0000 1.0000
42.8500 443.0000 1.0000
42.8600 433.0000 1.0000
42.8700 445.0000 1.0000
42.8800 457.0000 1.0000
42.8900 498.0000 1.0000
42.9000 417.0000 1.0000
42.9100 426.0000 1.0000
42.9200 441.0000 1.0000
42.9300 467.0000 1.0000
42.9400 440.0000 1.0000
42.9500 444.0000 1.0000
42.9600 418.0000 1.0000
42.9700 411.0000 1.0000
42.9800 466.0000 1.0000
42.9900 432.0000 1.0000
43.0000 413.0000 1.0000
43.0100 424.0000 1.0000
43.0200 420.0000 1.0000
43.0300 489.0000 1.0000
43.0400 451.0000 1.0000
43.0500 425.0000 1.0000
43.0600 451.0000 1.0000
43.0700 432.0000 1.0000
43.0800 425.0000 1.0000
43.0900 442.0000 1.0000
43.1000 408.0000 1.0000
43.1100 439.0000 1.0000
43.1200 444.0000 1.0000
43.1300 447.0000 1.0000
43.1400 439.0000 1.0000
43.1500 430.0000 1.0000
43.1600 459.0000 1.0000
43.1700 468.0000 1.0000
43.1800 442.0000 1.0000
43.1900 435.0000 1.0000
43.2000 400.0000 1.0000
43.2100 457.0000 1.0000
43.2200 432.0000 1.0000
43.2300 423.0000 1.0000
43.2400 438.0000 1.0000
43.2500 431.0000 1.0000
43.2600 455.0000 1.0000
43.2700 456.0000 1.0000
43.2800 427.0000 1.0000
43.2900 414.0000 1.0000
43.3000 421.0000 1.0000
43.3100 436.0000 1.0000
43.3200 431.0000 1.0000
43.3300 428.0000 1.0000
43.3400 409.0000 1.0000
43.3500 431.0000 1.0000
43.3600 431.0000 1.0000
43.3700 458.0000 1.0000
43.3800 432.0000 1.0000
43.3900 427.0000 1.0000
43.4000 466.0000 1.0000
43.4100 441.0000 1.0000
43.4200 459.0000 1.0000
43.4300 418.0000 1.0000
43.4400 474.0000 1.0000
43.4500 412.0000 1.0000
43.4600 460.0000 1.0000
43.4700 436.0000 1.0000
43.4800 453.0000 1.0000
43.4900 479.0000 1.0000
43.5000 462.0000 1.0000
43.5100 437.0000 1.0000
43.5200 462.0000 1.0000
43.5300 474.0000 1.0000
43.5400 465.0000 1.0000
43.5500 396.0000 1.0000
43.5600 435.0000 1.0000
43.5700 411.0000 1.0000
43.5800 447.0000 1.0000
43.5900 419.0000 1.0000
43.6000 444.0000 1.0000
43.6100 456.0000 1.0000
43.6200 435.0000 1.0000
43.6300 439.0000 1.0000
43.6400 429.0000 1.0000
43.6500 430.0000 1.0000
43.6600 425.0000 1.0000
43.6700 465.0000 1.0000
43.6800 438.0000 1.0000
43.6900 458.0000 1.0000
43.7000 425.0000 1.0000
43.7100 443.0000 1.0000
43.7200 440.0000 1.0000
43.7300 413.0000 1.0000
43.7400 436.0000 1.0000
43.7500 426.0000 1.0000
43.7600 397.0000 1.0000
43.7700 428.0000 1.0000
43.7800 432.0000 1.0000
43.7900 442.0000 1.0000
43.8000 439.0000 1.0000
43.8100 422.0000 1.0000
43.8200 411.0000 1.0000
43.8300 418.0000 1.0000
43.8400 424.0000 1.0000
43.8500 412.0000 1.0000
43.8600 396.0000 1.0000
43.8700 422.0000 1.0000
43.8800 425.0000 1.0000
43.8900 395.0000 1.0000
43.9000 430.0000 1.0000
43.9100 400.0000 1.0000
43.9200 399.0000 1.0000
43.9300 420.0000 1.0000
43.9400 473.0000 1.0000
43.9500 428.0000 1.0000
43.9600 400.0000 1.0000
43.9700 432.0000 1.0000
43.9800 398.0000 1.0000
43.9900 446.0000 1.0000
44.0000 416.0000 1.0000
44.0100 421.0000 1.0000
44.0200 437.0000 1.0000
44.0300 423.0000 1.0000
44.0400 425.0000 1.0000
44.0500 444.0000 1.0000
44.0600 419.0000 1.0000
44.0700 396.0000 1.0000
44.0800 411.0000 1.0000
44.0900 457.0000 1.0000
44.1000 426.0000 1.0000
44.1100 446.0000 1.0000
44.1200 417.0000 1.0000
44.1300 404.0000 1.0000
44.1400 401.0000 1.0000
44.1500 438.0000 1.0000
44.1600 458.0000 1.0000
44.1700 422.0000 1.0000
44.1800 413.0000 1.0000
44.1900 419.0000 1.0000
44.2000 448.0000 1.0000
44.2100 424.0000 1.0000
44.2200 404.0000 1.0000
44.2300 409.0000 1.0000
44.2400 437.0000 1.0000
44.2500 405.0000 1.0000
44.2600 427.0000 1.0000
44.2700 467.0000 1.0000
44.2800 440.0000 1.0000
44.2900 430.0000 1.0000
44.3000 405.0000 1.0000
44.3100 426.0000 1.0000
44.3200 403.0000 1.0000
44.3300 409.0000 1.0000
44.3400 387.0000 1.0000
44.3500 425.0000 1.0000
44.3600 417.0000 1.0000
44.3700 388.0000 1.0000
44.3800 450.0000 1.0000
44.3900 437.0000 1.0000
44.4000 461.0000 1.0000
44.4100 425.0000 1.0000
44.4200 410.0000 1.0000
44.4300 427.0000 1.0000
44.4400 421.0000 1.0000
44.4500 404.0000 1.0000
44.4600 396.0000 1.0000
44.4700 428.0000 1.0000
44.4800 423.0000 1.0000
44.4900 432.0000 1.0000
44.5000 438.0000 1.0000
44.5100 432.0000 1.0000
44.5200 426.0000 1.0000
44.5300 392.0000 1.0000
44.5400 386.0000 1.0000
44.5500 433.0000 1.0000
44.5600 442.0000 1.0000
44.5700 406.0000 1.0000
44.5800 420.0000 1.0000
44.5900 411.0000 1.0000
44.6000 402.0000 1.0000
44.6100 415.0000 1.0000
44.6200 413.0000 1.0000
44.6300 433.0000 1.0000
44.6400 446.0000 1.0000
44.6500 444.0000 1.0000
44.6600 436.0000 1.0000
44.6700 424.0000 1.0000
44.6800 439.0000 1.0000
44.6900 395.0000 1.0000
44.7000 401.0000 1.0000
44.7100 406.0000 1.0000
44.7200 418.0000 1.0000
44.7300 370.0000 1.0000
44.7400 431.0000 1.0000
44.7500 425.0000 1.0000
44.7600 405.0000 1.0000
44.7700 417.0000 1.0000
44.7800 402.0000 1.0000
44.7900 444.0000 1.0000
44.8000 454.0000 1.0000
44.8100 404.0000 1.0000
44.8200 417.0000 1.0000
44.8300 444.0000 1.0000
44.8400 423.0000 1.0000
44.8500 397.0000 1.0000
44.8600 423.0000 1.0000
44.8700 410.0000 1.0000
44.8800 408.0000 1.0000
44.8900 416.0000 1.0000
44.9000 402.0000 1.0000
44.9100 430.0000 1.0000
44.9200 417.0000 1.0000
44.9300 412.0000 1.0000
44.9400 406.0000 1.0000
44.9500 392.0000 1.0000
44.9600 405.0000 1.0000
44.9700 440.0000 1.0000
44.9800 411.0000 1.0000
44.9900 394.0000 1.0000
45.0000 434.0000 1.0000
45.0100 386.0000 1.0000
45.0200 420.0000 1.0000
45.0300 430.0000 1.0000
45.0400 392.0000 1.0000
45.0500 419.0000 1.0000
45.0600 431.0000 1.0000
45.0700 415.0000 1.0000
45.0800 376.0000 1.0000
45.0900 404.0000 1.0000
45.1000 405.0000 1.0000
45.1100 410.0000 1.0000
45.1200 394.0000 1.0000
45.1300 389.0000 1.0000
45.1400 420.0000 1.0000
45.1500 394.0000 1.0000
45.1600 410.0000 1.0000
45.1700 396.0000 1.0000
45.1800 397.0000 1.0000
45.1900 404.0000 1.0000
45.2000 422.0000 1.0000
45.2100 404.0000 1.0000
45.2200 441.0000 1.0000
45.2300 405.0000 1.0000
45.2400 394.0000 1.0000
45.2500 406.0000 1.0000
45.2600 418.0000 1.0000
45.2700 410.0000 1.0000
45.2800 414.0000 1.0000
45.2900 417.0000 1.0000
45.3000 402.0000 1.0000
45.3100 402.0000 1.0000
45.3200 418.0000 1.0000
45.3300 416.0000 1.0000
45.3400 405.0000 1.0000
45.3500 397.0000 1.0000
45.3600 428.0000 1.0000
45.3700 416.0000 1.0000
45.3800 420.0000 1.0000
45.3900 444.0000 1.0000
45.4000 440.0000 1.0000
45.4100 422.0000 1.0000
45.4200 411.0000 1.0000
45.4300 392.0000 1.0000
45.4400 401.0000 1.0000
45.4500 386.0000 1.0000
45.4600 404.0000 1.0000
45.4700 429.0000 1.0000
45.4800 414.0000 1.0000
45.4900 406.0000 1.0000
45.5000 427.0000 1.0000
45.5100 421.0000 1.0000
45.5200 412.0000 1.0000
45.5300 428.0000 1.0000
45.5400 431.0000 1.0000
45.5500 441.0000 1.0000
45.5600 440.0000 1.0000
45.5700 442.0000 1.0000
45.5800 382.0000 1.0000
45.5900 408.0000 1.0000
45.6000 402.0000 1.0000
45.6100 422.0000 1.0000
45.6200 408.0000 1.0000
45.6300 410.0000 1.0000
45.6400 431.0000 1.0000
45.6500 424.0000 1.0000
45.6600 420.0000 1.0000
45.6700 394.0000 1.0000
45.6800 399.0000 1.0000
45.6900 390.0000 1.0000
45.7000 392.0000 1.0000
45.7100 383.0000 1.0000
45.7200 395.0000 1.0000
45.7300 363.0000 1.0000
45.7400 415.0000 1.0000
45.7500 418.0000 1.0000
45.7600 426.0000 1.0000
45.7700 404.0000 1.0000
45.7800 399.0000 1.0000
45.7900 443.0000 1.0000
45.8000 420.0000 1.0000
45.8100 388.0000 1.0000
45.8200 381.0000 1.0000
45.8300 399.0000 1.0000
45.8400 380.0000 1.0000
45.8500 425.0000 1.0000
45.8600 403.0000 1.0000
45.8700 412.0000 1.0000
45.8800 372.0000 1.0000
45.8900 408.0000 1.0000
45.9000 404.0000 1.0000
45.9100 388.0000 1.0000
45.9200 411.0000 1.0000
45.9300 413.0000 1.0000
45.9400 410.0000 1.0000
45.9500 432.0000 1.0000
45.9600 426.0000 1.0000
45.9700 368.0000 1.0000
45.9800 403.0000 1.0000
45.9900 425.0000 1.0000
46.0000 425.0000 1.0000
46.0100 395.0000 1.0000
46.0200 418.0000 1.0000
46.0300 431.0000 1.0000
46.0400 419.0000 1.0000
46.0500 420.0000 1.0000
46.0600 431.0000 1.0000
46.0700 423.0000 1.0000
46.0800 447.0000 1.0000
46.0900 434.0000 1.0000
46.1000 438.0000 1.0000
46.1100 408.0000 1.0000
46.1200 465.0000 1.0000
46.1300 413.0000 1.0000
46.1400 388.0000 1.0000
46.1500 432.0000 1.0000
46.1600 445.0000 1.0000
46.1700 425.0000 1.0000
46.1800 437.0000 1.0000
46.1900 450.0000 1.0000
46.2000 402.0000 1.0000
46.2100 436.0000 1.0000
46.2200 400.0000 1.0000
46.2300 434.0000 1.0000
46.2400 431.0000 1.0000
46.2500 421.0000 1.0000
46.2600 409.0000 1.0000
46.2700 417.0000 1.0000
46.2800 418.0000 1.0000
46.2900 400.0000 1.0000
46.3000 388.0000 1.0000
46.3100 417.0000 1.0000
46.3200 382.0000 1.0000
46.3300 404.0000 1.0000
46.3400 404.0000 1.0000
46.3500 407.0000 1.0000
46.3600 378.0000 1.0000
46.3700 395.0000 1.0000
46.3800 427.0000 1.0000
46.3900 422.0000 1.0000
46.4000 399.0000 1.0000
46.4100 419.0000 1.0000
46.4200 403.0000 1.0000
46.4300 379.0000 1.0000
46.4400 417.0000 1.0000
46.4500 381.0000 1.0000
46.4600 391.0000 1.0000
46.4700 416.0000 1.0000
46.4800 369.0000 1.0000
46.4900 380.0000 1.0000
46.5000 405.0000 1.0000
46.5100 393.0000 1.0000
46.5200 444.0000 1.0000
46.5300 405.0000 1.0000
46.5400 367.0000 1.0000
46.5500 397.0000 1.0000
46.5600 399.0000 1.0000
46.5700 412.0000 1.0000
46.5800 400.0000 1.0000
46.5900 392.0000 1.0000
46.6000 370.0000 1.0000
46.6100 390.0000 1.0000
46.6200 373.0000 1.0000
46.6300 372.0000 1.0000
46.6400 402.0000 1.0000
46.6500 398.0000 1.0000
46.6600 409.0000 1.0000
46.6700 410.0000 1.0000
46.6800 403.0000 1.0000
46.6900 384.0000 1.0000
46.7000 394.0000 1.0000
46.7100 394.0000 1.0000
46.7200 421.0000 1.0000
46.7300 404.0000 1.0000
46.7400 425.0000 1.0000
46.7500 399.0000 1.0000
46.7600 376.0000 1.0000
46.7700 387.0000 1.0000
46.7800 386.0000 1.0000
46.7900 393.0000 1.0000
46.8000 391.0000 1.0000
46.8100 414.0000 1.0000
46.8200 429.0000 1.0000
46.8300 413.0000 1.0000
46.8400 410.0000 1.0000
46.8500 388.0000 1.0000
46.8600 379.0000 1.0000
46.8700 394.0000 1.0000
46.8800 389.0000 1.0000
46.8900 383.0000 1.0000
46.9000 416.0000 1.0000
46.9100 421.0000 1.0000
46.9200 366.0000 1.0000
46.9300 388.0000 1.0000
46.9400 372.0000 1.0000
46.9500 379.0000 1.0000
46.9600 400.0000 1.0000
46.9700 397.0000 1.0000
46.9800 418.0000 1.0000
46.9900 412.0000 1.0000
47.0000 399.0000 1.0000
47.0100 370.0000 1.0000
47.0200 410.0000 1.0000
47.0300 391.0000 1.0000
47.0400 370.0000 1.0000
47.0500 382.0000 1.0000
47.0600 434.0000 1.0000
47.0700 440.0000 1.0000
47.0800 424.0000 1.0000
47.0900 397.0000 1.0000
47.1000 418.0000 1.0000
47.1100 371.0000 1.0000
47.1200 411.0000 1.0000
47.1300 377.0000 1.0000
47.1400 392.0000 1.0000
47.1500 373.0000 1.0000
47.1600 417.0000 1.0000
47.1700 395.0000 1.0000
47.1800 391.0000 1.0000
47.1900 394.0000 1.0000
47.2000 385.0000 1.0000
47.2100 420.0000 1.0000
47.2200 401.0000 1.0000
47.2300 402.0000 1.0000
47.2400 354.0000 1.0000
47.2500 352.0000 1.0000
47.2600 384.0000 1.0000
47.2700 390.0000 1.0000
47.2800 376.0000 1.0000
47.2900 402.0000 1.0000
47.3000 416.0000 1.0000
47.3100 364.0000 1.0000
47.3200 396.0000 1.0000
47.3300 383.0000 1.0000
47.3400 395.0000 1.0000
47.3500 393.0000 1.0000
47.3600 374.0000 1.0000
47.3700 396.0000 1.0000
47.3800 404.0000 1.0000
47.3900 411.0000 1.0000
47.4000 380.0000 1.0000
47.4100 370.0000 1.0000
47.4200 393.0000 1.0000
47.4300 365.0000 1.0000
47.4400 373.0000 1.0000
47.4500 366.0000 1.0000
47.4600 380.0000 1.0000
47.4700 387.0000 1.0000
47.4800 395.0000 1.0000
47.4900 368.0000 1.0000
47.5000 348.0000 1.0000
47.5100 385.0000 1.0000
47.5200 419.0000 1.0000
47.5300 413.0000 1.0000
47.5400 388.0000 1.0000
47.5500 370.0000 1.0000
47.5600 394.0000 1.0000
47.5700 403.0000 1.0000
47.5800 432.0000 1.0000
47.5900 406.0000 1.0000
47.6000 403.0000 1.0000
47.6100 432.0000 1.0000
47.6200 383.0000 1.0000
47.6300 371.0000 1.0000
47.6400 369.0000 1.0000
47.6500 414.0000 1.0000
47.6600 367.0000 1.0000
47.6700 376.0000 1.0000
47.6800 364.0000 1.0000
47.6900 371.0000 1.0000
47.7000 385.0000 1.0000
47.7100 379.0000 1.0000
47.7200 355.0000 1.0000
47.7300 361.0000 1.0000
47.7400 408.0000 1.0000
47.7500 361.0000 1.0000
47.7600 367.0000 1.0000
47.7700 376.0000 1.0000
47.7800 354.0000 1.0000
47.7900 374.0000 1.0000
47.8000 393.0000 1.0000
47.8100 387.0000 1.0000
47.8200 383.0000 1.0000
47.8300 361.0000 1.0000
47.8400 387.0000 1.0000
47.8500 377.0000 1.0000
47.8600 412.0000 1.0000
47.8700 381.0000 1.0000
47.8800 366.0000 1.0000
47.8900 390.0000 1.0000
47.9000 384.0000 1.0000
47.9100 358.0000 1.0000
47.9200 380.0000 1.0000
47.9300 395.0000 1.0000
47.9400 364.0000 1.0000
47.9500 398.0000 1.0000
47.9600 383.0000 1.0000
47.9700 396.0000 1.0000
47.9800 375.0000 1.0000
47.9900 353.0000 1.0000
48.0000 377.0000 1.0000
48.0100 408.0000 1.0000
48.0200 423.0000 1.0000
48.0300 387.0000 1.0000
48.0400 364.0000 1.0000
48.0500 384.0000 1.0000
48.0600 350.0000 1.0000
48.0700 397.0000 1.0000
48.0800 380.0000 1.0000
48.0900 404.0000 1.0000
48.1000 388.0000 1.0000
48.1100 391.0000 1.0000
48.1200 377.0000 1.0000
48.1300 386.0000 1.0000
48.1400 363.0000 1.0000
48.1500 384.0000 1.0000
48.1600 368.0000 1.0000
48.1700 395.0000 1.0000
48.1800 392.0000 1.0000
48.1900 370.0000 1.0000
48.2000 378.0000 1.0000
48.2100 385.0000 1.0000
48.2200 390.0000 1.0000
48.2300 375.0000 1.0000
48.2400 366.0000 1.0000
48.2500 382.0000 1.0000
48.2600 373.0000 1.0000
48.2700 404.0000 1.0000
48.2800 399.0000 1.0000
48.2900 390.0000 1.0000
48.3000 402.0000 1.0000
48.3100 384.0000 1.0000
48.3200 372.0000 1.0000
48.3300 378.0000 1.0000
48.3400 412.0000 1.0000
48.3500 362.0000 1.0000
48.3600 372.0000 1.0000
48.3700 359.0000 1.0000
48.3800 356.0000 1.0000
48.3900 364.0000 1.0000
48.4000 363.0000 1.0000
48.4100 401.0000 1.0000
48.4200 393.0000 1.0000
48.4300 381.0000 1.0000
48.4400 377.0000 1.0000
48.4500 397.0000 1.0000
48.4600 386.0000 1.0000
48.4700 384.0000 1.0000
48.4800 387.0000 1.0000
48.4900 405.0000 1.0000
48.5000 388.0000 1.0000
48.5100 393.0000 1.0000
48.5200 382.0000 1.0000
48.5300 390.0000 1.0000
48.5400 384.0000 1.0000
48.5500 369.0000 1.0000
48.5600 377.0000 1.0000
48.5700 352.0000 1.0000
48.5800 354.0000 1.0000
48.5900 368.0000 1.0000
48.6000 368.0000 1.0000
48.6100 399.0000 1.0000
48.6200 381.0000 1.0000
48.6300 412.0000 1.0000
48.6400 366.0000 1.0000
48.6500 394.0000 1.0000
48.6600 387.0000 1.0000
48.6700 382.0000 1.0000
48.6800 369.0000 1.0000
48.6900 324.0000 1.0000
48.7000 359.0000 1.0000
48.7100 346.0000 1.0000
48.7200 410.0000 1.0000
48.7300 401.0000 1.0000
48.7400 375.0000 1.0000
48.7500 396.0000 1.0000
48.7600 378.0000 1.0000
48.7700 428.0000 1.0000
48.7800 368.0000 1.0000
48.7900 380.0000 1.0000
48.8000 355.0000 1.0000
48.8100 398.0000 1.0000
48.8200 376.0000 1.0000
48.8300 384.0000 1.0000
48.8400 379.0000 1.0000
48.8500 383.0000 1.0000
48.8600 383.0000 1.0000
48.8700 365.0000 1.0000
48.8800 365.0000 1.0000
48.8900 382.0000 1.0000
48.9000 361.0000 1.0000
48.9100 389.0000 1.0000
48.9200 384.0000 1.0000
48.9300 369.0000 1.0000
48.9400 368.0000 1.0000
48.9500 413.0000 1.0000
48.9600 355.0000 1.0000
48.9700 365.0000 1.0000
48.9800 378.0000 1.0000
48.9900 373.0000 1.0000
49.0000 374.0000 1.0000
49.0100 360.0000 1.0000
49.0200 355.0000 1.0000
49.0300 385.0000 1.0000
49.0400 407.0000 1.0000
49.0500 381.0000 1.0000
49.0600 369.0000 1.0000
49.0700 347.0000 1.0000
49.0800 389.0000 1.0000
49.0900 380.0000 1.0000
49.1000 383.0000 1.0000
49.1100 374.0000 1.0000
49.1200 376.0000 1.0000
49.1300 371.0000 1.0000
49.1400 393.0000 1.0000
49.1500 395.0000 1.0000
49.1600 383.0000 1.0000
49.1700 366.0000 1.0000
49.1800 383.0000 1.0000
49.1900 394.0000 1.0000
49.2000 391.0000 1.0000
49.2100 405.0000 1.0000
49.2200 401.0000 1.0000
49.2300 406.0000 1.0000
49.2400 400.0000 1.0000
49.2500 395.0000 1.0000
49.2600 368.0000 1.0000
49.2700 387.0000 1.0000
49.2800 362.0000 1.0000
49.2900 415.0000 1.0000
49.3000 405.0000 1.0000
49.3100 419.0000 1.0000
49.3200 387.0000 1.0000
49.3300 436.0000 1.0000
49.3400 415.0000 1.0000
49.3500 417.0000 1.0000
49.3600 435.0000 1.0000
49.3700 424.0000 1.0000
49.3800 428.0000 1.0000
49.3900 457.0000 1.0000
49.4000 410.0000 1.0000
49.4100 449.0000 1.0000
49.4200 397.0000 1.0000
49.4300 430.0000 1.0000
49.4400 411.0000 1.0000
49.4500 444.0000 1.0000
49.4600 416.0000 1.0000
49.4700 405.0000 1.0000
49.4800 413.0000 1.0000
49.4900 382.0000 1.0000
49.5000 415.0000 1.0000
49.5100 396.0000 1.0000
49.5200 419.0000 1.0000
49.5300 384.0000 1.0000
49.5400 386.0000 1.0000
49.5500 401.0000 1.0000
49.5600 382.0000 1.0000
49.5700 404.0000 1.0000
49.5800 408.0000 1.0000
49.5900 420.0000 1.0000
49.6000 388.0000 1.0000
49.6100 366.0000 1.0000
49.6200 380.0000 1.0000
49.6300 415.0000 1.0000
49.6400 404.0000 1.0000
49.6500 390.0000 1.0000
49.6600 401.0000 1.0000
49.6700 368.0000 1.0000
49.6800 374.0000 1.0000
49.6900 388.0000 1.0000
49.7000 399.0000 1.0000
49.7100 371.0000 1.0000
49.7200 367.0000 1.0000
49.7300 406.0000 1.0000
49.7400 422.0000 1.0000
49.7500 385.0000 1.0000
49.7600 363.0000 1.0000
49.7700 388.0000 1.0000
49.7800 372.0000 1.0000
49.7900 380.0000 1.0000
49.8000 388.0000 1.0000
49.8100 386.0000 1.0000
49.8200 377.0000 1.0000
49.8300 404.0000 1.0000
49.8400 366.0000 1.0000
49.8500 375.0000 1.0000
49.8600 391.0000 1.0000
49.8700 386.0000 1.0000
49.8800 442.0000 1.0000
49.8900 388.0000 1.0000
49.9000 369.0000 1.0000
49.9100 416.0000 1.0000
49.9200 385.0000 1.0000
49.9300 371.0000 1.0000
49.9400 377.0000 1.0000
49.9500 393.0000 1.0000
49.9600 375.0000 1.0000
49.9700 392.0000 1.0000
49.9800 377.0000 1.0000
49.9900 414.0000 1.0000
50.0000 379.0000 1.0000
50.0100 388.0000 1.0000
50.0200 378.0000 1.0000
50.0300 389.0000 1.0000
50.0400 399.0000 1.0000
50.0500 394.0000 1.0000
50.0600 401.0000 1.0000
50.0700 373.0000 1.0000
50.0800 373.0000 1.0000
50.0900 373.0000 1.0000
50.1000 360.0000 1.0000
50.1100 390.0000 1.0000
50.1200 385.0000 1.0000
50.1300 367.0000 1.0000
50.1400 345.0000 1.0000
50.1500 363.0000 1.0000
50.1600 401.0000 1.0000
50.1700 384.0000 1.0000
50.1800 369.0000 1.0000
50.1900 385.0000 1.0000
50.2000 417.0000 1.0000
50.2100 367.0000 1.0000
50.2200 369.0000 1.0000
50.2300 403.0000 1.0000
50.2400 385.0000 1.0000
50.2500 393.0000 1.0000
50.2600 370.0000 1.0000
50.2700 365.0000 1.0000
50.2800 389.0000 1.0000
50.2900 396.0000 1.0000
50.3000 357.0000 1.0000
50.3100 387.0000 1.0000
50.3200 411.0000 1.0000
50.3300 388.0000 1.0000
50.3400 404.0000 1.0000
50.3500 363.0000 1.0000
50.3600 395.0000 1.0000
50.3700 393.0000 1.0000
50.3800 381.0000 1.0000
50.3900 377.0000 1.0000
50.4000 418.0000 1.0000
50.4100 392.0000 1.0000
50.4200 375.0000 1.0000
50.4300 368.0000 1.0000
50.4400 396.0000 1.0000
50.4500 359.0000 1.0000
50.4600 403.0000 1.0000
50.4700 363.0000 1.0000
50.4800 376.0000 1.0000
50.4900 390.0000 1.0000
50.5000 380.0000 1.0000
50.5100 397.0000 1.0000
50.5200 378.0000 1.0000
50.5300 383.0000 1.0000
50.5400 383.0000 1.0000
50.5500 389.0000 1.0000
50.5600 367.0000 1.0000
50.5700 406.0000 1.0000
50.5800 391.0000 1.0000
50.5900 390.0000 1.0000
50.6000 397.0000 1.0000
50.6100 375.0000 1.0000
50.6200 397.0000 1.0000
50.6300 386.0000 1.0000
50.6400 363.0000 1.0000
50.6500 378.0000 1.0000
50.6600 380.0000 1.0000
50.6700 379.0000 1.0000
50.6800 352.0000 1.0000
50.6900 368.0000 1.0000
50.7000 396.0000 1.0000
50.7100 405.0000 1.0000
50.7200 403.0000 1.0000
50.7300 395.0000 1.0000
50.7400 395.0000 1.0000
50.7500 375.0000 1.0000
50.7600 397.0000 1.0000
50.7700 405.0000 1.0000
50.7800 394.0000 1.0000
50.7900 392.0000 1.0000
50.8000 414.0000 1.0000
50.8100 379.0000 1.0000
50.8200 404.0000 1.0000
50.8300 382.0000 1.0000
50.8400 376.0000 1.0000
50.8500 416.0000 1.0000
50.8600 416.0000 1.0000
50.8700 403.0000 1.0000
50.8800 376.0000 1.0000
50.8900 390.0000 1.0000
50.9000 457.0000 1.0000
50.9100 430.0000 1.0000
50.9200 437.0000 1.0000
50.9300 382.0000 1.0000
50.9400 429.0000 1.0000
50.9500 419.0000 1.0000
50.9600 432.0000 1.0000
50.9700 444.0000 1.0000
50.9800 407.0000 1.0000
50.9900 444.0000 1.0000
51.0000 452.0000 1.0000
51.0100 448.0000 1.0000
51.0200 469.0000 1.0000
51.0300 467.0000 1.0000
51.0400 435.0000 1.0000
51.0500 411.0000 1.0000
51.0600 448.0000 1.0000
51.0700 445.0000 1.0000
51.0800 449.0000 1.0000
51.0900 496.0000 1.0000
51.1000 504.0000 1.0000
51.1100 482.0000 1.0000
51.1200 514.0000 1.0000
51.1300 511.0000 1.0000
51.1400 543.0000 1.0000
51.1500 576.0000 1.0000
51.1600 605.0000 1.0000
51.1700 579.0000 1.0000
51.1800 590.0000 1.0000
51.1900 627.0000 1.0000
51.2000 618.0000 1.0000
51.2100 623.0000 1.0000
51.2200 653.0000 1.0000
51.2300 709.0000 1.0000
51.2400 690.0000 1.0000
51.2500 755.0000 1.0000
51.2600 810.0000 1.0000
51.2700 838.0000 1.0000
51.2800 843.0000 1.0000
51.2900 914.0000 1.0000
51.3000 927.0000 1.0000
51.3100 1015.0000 1.0000
51.3200 1102.0000 1.0000
51.3300 1180.0000 1.0000
51.3400 1223.0000 1.0000
51.3500 1340.0000 1.0000
51.3600 1389.0000 1.0000
51.3700 1546.0000 1.0000
51.3800 1705.0000 1.0000
51.3900 1803.0000 1.0000
51.4000 1955.0000 1.0000
51.4100 2106.0000 1.0000
51.4200 2162.0000 1.0000
51.4300 2292.0000 1.0000
51.4400 2346.0000 1.0000
51.4500 2442.0000 1.0000
51.4600 2489.0000 1.0000
51.4700 2487.0000 1.0000
51.4800 2463.0000 1.0000
51.4900 2510.0000 1.0000
51.5000 2405.0000 1.0000
51.5100 2339.0000 1.0000
51.5200 2260.0000 1.0000
51.5300 2232.0000 1.0000
51.5400 2190.0000 1.0000
51.5500 2182.0000 1.0000
51.5600 2065.0000 1.0000
51.5700 1972.0000 1.0000
51.5800 1931.0000 1.0000
51.5900 1928.0000 1.0000
51.6000 1790.0000 1.0000
51.6100 1736.0000 1.0000
51.6200 1681.0000 1.0000
51.6300 1592.0000 1.0000
51.6400 1482.0000 1.0000
51.6500 1437.0000 1.0000
51.6600 1400.0000 1.0000
51.6700 1263.0000 1.0000
51.6800 1276.0000 1.0000
51.6900 1139.0000 1.0000
51.7000 1017.0000 1.0000
51.7100 1000.0000 1.0000
51.7200 949.0000 1.0000
51.7300 887.0000 1.0000
51.7400 836.0000 1.0000
51.7500 784.0000 1.0000
51.7600 749.0000 1.0000
51.7700 721.0000 1.0000
51.7800 690.0000 1.0000
51.7900 654.0000 1.0000
51.8000 650.0000 1.0000
51.8100 599.0000 1.0000
51.8200 606.0000 1.0000
51.8300 565.0000 1.0000
51.8400 555.0000 1.0000
51.8500 499.0000 1.0000
51.8600 535.0000 1.0000
51.8700 531.0000 1.0000
51.8800 530.0000 1.0000
51.8900 486.0000 1.0000
51.9000 534.0000 1.0000
51.9100 499.0000 1.0000
51.9200 478.0000 1.0000
51.9300 473.0000 1.0000
51.9400 473.0000 1.0000
51.9500 462.0000 1.0000
51.9600 454.0000 1.0000
51.9700 474.0000 1.0000
51.9800 473.0000 1.0000
51.9900 471.0000 1.0000
52.0000 452.0000 1.0000
52.0100 449.0000 1.0000
52.0200 414.0000 1.0000
52.0300 432.0000 1.0000
52.0400 412.0000 1.0000
52.0500 382.0000 1.0000
52.0600 404.0000 1.0000
52.0700 393.0000 1.0000
52.0800 406.0000 1.0000
52.0900 397.0000 1.0000
52.1000 429.0000 1.0000
52.1100 462.0000 1.0000
52.1200 456.0000 1.0000
52.1300 412.0000 1.0000
52.1400 424.0000 1.0000
52.1500 429.0000 1.0000
52.1600 373.0000 1.0000
52.1700 402.0000 1.0000
52.1800 414.0000 1.0000
52.1900 405.0000 1.0000
52.2000 365.0000 1.0000
52.2100 418.0000 1.0000
52.2200 371.0000 1.0000
52.2300 406.0000 1.0000
52.2400 402.0000 1.0000
52.2500 429.0000 1.0000
52.2600 398.0000 1.0000
52.2700 355.0000 1.0000
52.2800 400.0000 1.0000
52.2900 399.0000 1.0000
52.3000 399.0000 1.0000
52.3100 375.0000 1.0000
52.3200 411.0000 1.0000
52.3300 395.0000 1.0000
52.3400 391.0000 1.0000
52.3500 407.0000 1.0000
52.3600 396.0000 1.0000
52.3700 369.0000 1.0000
52.3800 415.0000 1.0000
52.3900 380.0000 1.0000
52.4000 392.0000 1.0000
52.4100 388.0000 1.0000
52.4200 370.0000 1.0000
52.4300 376.0000 1.0000
52.4400 389.0000 1.0000
52.4500 376.0000 1.0000
52.4600 398.0000 1.0000
52.4700 386.0000 1.0000
52.4800 408.0000 1.0000
52.4900 372.0000 1.0000
52.5000 368.0000 1.0000
52.5100 365.0000 1.0000
52.5200 393.0000 1.0000
52.5300 406.0000 1.0000
52.5400 380.0000 1.0000
52.5500 405.0000 1.0000
52.5600 395.0000 1.0000
52.5700 380.0000 1.0000
52.5800 349.0000 1.0000
52.5900 367.0000 1.0000
52.6000 385.0000 1.0000
52.6100 376.0000 1.0000
52.6200 362.0000 1.0000
52.6300 380.0000 1.0000
52.6400 367.0000 1.0000
52.6500 392.0000 1.0000
52.6600 358.0000 1.0000
52.6700 372.0000 1.0000
52.6800 374.0000 1.0000
52.6900 364.0000 1.0000
52.7000 409.0000 1.0000
52.7100 375.0000 1.0000
52.7200 378.0000 1.0000
52.7300 377.0000 1.0000
52.7400 375.0000 1.0000
52.7500 373.0000 1.0000
52.7600 387.0000 1.0000
52.7700 397.0000 1.0000
52.7800 388.0000 1.0000
52.7900 396.0000 1.0000
52.8000 370.0000 1.0000
52.8100 415.0000 1.0000
52.8200 371.0000 1.0000
52.8300 377.0000 1.0000
52.8400 405.0000 1.0000
52.8500 391.0000 1.0000
52.8600 374.0000 1.0000
52.8700 406.0000 1.0000
52.8800 397.0000 1.0000
52.8900 381.0000 1.0000
52.9000 349.0000 1.0000
52.9100 353.0000 1.0000
52.9200 389.0000 1.0000
52.9300 349.0000 1.0000
52.9400 363.0000 1.0000
52.9500 332.0000 1.0000
52.9600 367.0000 1.0000
52.9700 373.0000 1.0000
52.9800 398.0000 1.0000
52.9900 385.0000 1.0000
53.0000 382.0000 1.0000
53.0100 361.0000 1.0000
53.0200 369.0000 1.0000
53.0300 377.0000 1.0000
53.0400 374.0000 1.0000
53.0500 381.0000 1.0000
53.0600 340.0000 1.0000
53.0700 355.0000 1.0000
53.0800 372.0000 1.0000
53.0900 367.0000 1.0000
53.1000 361.0000 1.0000
53.1100 349.0000 1.0000
53.1200 375.0000 1.0000
53.1300 361.0000 1.0000
53.1400 403.0000 1.0000
53.1500 374.0000 1.0000
53.1600 373.0000 1.0000
53.1700 377.0000 1.0000
53.1800 386.0000 1.0000
53.1900 385.0000 1.0000
53.2000 329.0000 1.0000
53.2100 384.0000 1.0000
53.2200 346.0000 1.0000
53.2300 368.0000 1.0000
53.2400 361.0000 1.0000
53.2500 374.0000 1.0000
53.2600 363.0000 1.0000
53.2700 346.0000 1.0000
53.2800 368.0000 1.0000
53.2900 368.0000 1.0000
53.3000 376.0000 1.0000
53.3100 382.0000 1.0000
53.3200 398.0000 1.0000
53.3300 369.0000 1.0000
53.3400 385.0000 1.0000
53.3500 391.0000 1.0000
53.3600 348.0000 1.0000
53.3700 383.0000 1.0000
53.3800 383.0000 1.0000
53.3900 352.0000 1.0000
53.4000 383.0000 1.0000
53.4100 375.0000 1.0000
53.4200 367.0000 1.0000
53.4300 393.0000 1.0000
53.4400 387.0000 1.0000
53.4500 358.0000 1.0000
53.4600 342.0000 1.0000
53.4700 358.0000 1.0000
53.4800 379.0000 1.0000
53.4900 338.0000 1.0000
53.5000 363.0000 1.0000
53.5100 347.0000 1.0000
53.5200 371.0000 1.0000
53.5300 353.0000 1.0000
53.5400 374.0000 1.0000
53.5500 344.0000 1.0000
53.5600 363.0000 1.0000
53.5700 363.0000 1.0000
53.5800 374.0000 1.0000
53.5900 367.0000 1.0000
53.6000 346.0000 1.0000
53.6100 361.0000 1.0000
53.6200 356.0000 1.0000
53.6300 374.0000 1.0000
53.6400 396.0000 1.0000
53.6500 355.0000 1.0000
53.6600 345.0000 1.0000
53.6700 374.0000 1.0000
53.6800 376.0000 1.0000
53.6900 365.0000 1.0000
53.7000 358.0000 1.0000
53.7100 357.0000 1.0000
53.7200 383.0000 1.0000
53.7300 368.0000 1.0000
53.7400 364.0000 1.0000
53.7500 357.0000 1.0000
53.7600 387.0000 1.0000
53.7700 365.0000 1.0000
53.7800 341.0000 1.0000
53.7900 402.0000 1.0000
53.8000 398.0000 1.0000
53.8100 390.0000 1.0000
53.8200 391.0000 1.0000
53.8300 367.0000 1.0000
53.8400 395.0000 1.0000
53.8500 356.0000 1.0000
53.8600 376.0000 1.0000
53.8700 381.0000 1.0000
53.8800 390.0000 1.0000
53.8900 403.0000 1.0000
53.9000 376.0000 1.0000
53.9100 417.0000 1.0000
53.9200 386.0000 1.0000
53.9300 378.0000 1.0000
53.9400 410.0000 1.0000
53.9500 426.0000 1.0000
53.9600 350.0000 1.0000
53.9700 388.0000 1.0000
53.9800 387.0000 1.0000
53.9900 403.0000 1.0000
54.0000 426.0000 1.0000
54.0100 414.0000 1.0000
54.0200 399.0000 1.0000
54.0300 392.0000 1.0000
54.0400 444.0000 1.0000
54.0500 407.0000 1.0000
54.0600 414.0000 1.0000
54.0700 395.0000 1.0000
54.0800 416.0000 1.0000
54.0900 430.0000 1.0000
54.1000 418.0000 1.0000
54.1100 409.0000 1.0000
54.1200 400.0000 1.0000
54.1300 409.0000 1.0000
54.1400 405.0000 1.0000
54.1500 415.0000 1.0000
54.1600 401.0000 1.0000
54.1700 406.0000 1.0000
54.1800 454.0000 1.0000
54.1900 439.0000 1.0000
54.2000 384.0000 1.0000
54.2100 398.0000 1.0000
54.2200 429.0000 1.0000
54.2300 411.0000 1.0000
54.2400 413.0000 1.0000
54.2500 426.0000 1.0000
54.2600 380.0000 1.0000
54.2700 406.0000 1.0000
54.2800 410.0000 1.0000
54.2900 421.0000 1.0000
54.3000 393.0000 1.0000
54.3100 415.0000 1.0000
54.3200 433.0000 1.0000
54.3300 454.0000 1.0000
54.3400 444.0000 1.0000
54.3500 470.0000 1.0000
54.3600 473.0000 1.0000
54.3700 440.0000 1.0000
54.3800 452.0000 1.0000
54.3900 496.0000 1.0000
54.4000 559.0000 1.0000
54.4100 505.0000 1.0000
54.4200 544.0000 1.0000
54.4300 537.0000 1.0000
54.4400 547.0000 1.0000
54.4500 568.0000 1.0000
54.4600 561.0000 1.0000
54.4700 557.0000 1.0000
54.4800 581.0000 1.0000
54.4900 546.0000 1.0000
54.5000 554.0000 1.0000
54.5100 560.0000 1.0000
54.5200 534.0000 1.0000
54.5300 543.0000 1.0000
54.5400 521.0000 1.0000
54.5500 524.0000 1.0000
54.5600 543.0000 1.0000
54.5700 556.0000 1.0000
54.5800 530.0000 1.0000
54.5900 568.0000 1.0000
54.6000 517.0000 1.0000
54.6100 555.0000 1.0000
54.6200 544.0000 1.0000
54.6300 529.0000 1.0000
54.6400 521.0000 1.0000
54.6500 481.0000 1.0000
54.6600 507.0000 1.0000
54.6700 467.0000 1.0000
54.6800 476.0000 1.0000
54.6900 453.0000 1.0000
54.7000 440.0000 1.0000
54.7100 476.0000 1.0000
54.7200 429.0000 1.0000
54.7300 442.0000 1.0000
54.7400 486.0000 1.0000
54.7500 390.0000 1.0000
54.7600 409.0000 1.0000
54.7700 428.0000 1.0000
54.7800 389.0000 1.0000
54.7900 403.0000 1.0000
54.8000 435.0000 1.0000
54.8100 432.0000 1.0000
54.8200 412.0000 1.0000
54.8300 426.0000 1.0000
54.8400 425.0000 1.0000
54.8500 400.0000 1.0000
54.8600 403.0000 1.0000
54.8700 380.0000 1.0000
54.8800 405.0000 1.0000
54.8900 387.0000 1.0000
54.9000 420.0000 1.0000
54.9100 436.0000 1.0000
54.9200 415.0000 1.0000
54.9300 417.0000 1.0000
54.9400 398.0000 1.0000
54.9500 372.0000 1.0000
54.9600 405.0000 1.0000
54.9700 353.0000 1.0000
54.9800 359.0000 1.0000
54.9900 404.0000 1.0000
55.0000 364.0000 1.0000
55.0100 371.0000 1.0000
55.0200 354.0000 1.0000
55.0300 392.0000 1.0000
55.0400 365.0000 1.0000
55.0500 385.0000 1.0000
55.0600 379.0000 1.0000
55.0700 361.0000 1.0000
55.0800 380.0000 1.0000
55.0900 370.0000 1.0000
55.1000 379.0000 1.0000
55.1100 376.0000 1.0000
55.1200 352.0000 1.0000
55.1300 362.0000 1.0000
55.1400 342.0000 1.0000
55.1500 366.0000 1.0000
55.1600 366.0000 1.0000
55.1700 369.0000 1.0000
55.1800 366.0000 1.0000
55.1900 376.0000 1.0000
55.2000 349.0000 1.0000
55.2100 354.0000 1.0000
55.2200 363.0000 1.0000
55.2300 355.0000 1.0000
55.2400 382.0000 1.0000
55.2500 370.0000 1.0000
55.2600 368.0000 1.0000
55.2700 371.0000 1.0000
55.2800 360.0000 1.0000
55.2900 389.0000 1.0000
55.3000 341.0000 1.0000
55.3100 367.0000 1.0000
55.3200 351.0000 1.0000
55.3300 356.0000 1.0000
55.3400 344.0000 1.0000
55.3500 382.0000 1.0000
55.3600 367.0000 1.0000
55.3700 361.0000 1.0000
55.3800 365.0000 1.0000
55.3900 336.0000 1.0000
55.4000 384.0000 1.0000
55.4100 367.0000 1.0000
55.4200 339.0000 1.0000
55.4300 376.0000 1.0000
55.4400 355.0000 1.0000
55.4500 357.0000 1.0000
55.4600 324.0000 1.0000
55.4700 319.0000 1.0000
55.4800 373.0000 1.0000
55.4900 366.0000 1.0000
55.5000 341.0000 1.0000
55.5100 345.0000 1.0000
55.5200 376.0000 1.0000
55.5300 341.0000 1.0000
55.5400 336.0000 1.0000
55.5500 344.0000 1.0000
55.5600 359.0000 1.0000
55.5700 365.0000 1.0000
55.5800 341.0000 1.0000
55.5900 336.0000 1.0000
55.6000 383.0000 1.0000
55.6100 347.0000 1.0000
55.6200 346.0000 1.0000
55.6300 338.0000 1.0000
55.6400 356.0000 1.0000
55.6500 375.0000 1.0000
55.6600 346.0000 1.0000
55.6700 347.0000 1.0000
55.6800 338.0000 1.0000
55.6900 339.0000 1.0000
55.7000 342.0000 1.0000
55.7100 348.0000 1.0000
55.7200 363.0000 1.0000
55.7300 349.0000 1.0000
55.7400 372.0000 1.0000
55.7500 363.0000 1.0000
55.7600 357.0000 1.0000
55.7700 349.0000 1.0000
55.7800 365.0000 1.0000
55.7900 354.0000 1.0000
55.8000 366.0000 1.0000
55.8100 357.0000 1.0000
55.8200 390.0000 1.0000
55.8300 350.0000 1.0000
55.8400 347.0000 1.0000
55.8500 381.0000 1.0000
55.8600 350.0000 1.0000
55.8700 364.0000 1.0000
55.8800 368.0000 1.0000
55.8900 369.0000 1.0000
55.9000 347.0000 1.0000
55.9100 372.0000 1.0000
55.9200 373.0000 1.0000
55.9300 327.0000 1.0000
55.9400 333.0000 1.0000
55.9500 379.0000 1.0000
55.9600 368.0000 1.0000
55.9700 335.0000 1.0000
55.9800 364.0000 1.0000
55.9900 341.0000 1.0000
56.0000 350.0000 1.0000
56.0100 332.0000 1.0000
56.0200 360.0000 1.0000
56.0300 335.0000 1.0000
56.0400 341.0000 1.0000
56.0500 383.0000 1.0000
56.0600 368.0000 1.0000
56.0700 387.0000 1.0000
56.0800 377.0000 1.0000
56.0900 344.0000 1.0000
56.1000 366.0000 1.0000
56.1100 346.0000 1.0000
56.1200 348.0000 1.0000
56.1300 360.0000 1.0000
56.1400 357.0000 1.0000
56.1500 348.0000 1.0000
56.1600 348.0000 1.0000
56.1700 368.0000 1.0000
56.1800 361.0000 1.0000
56.1900 342.0000 1.0000
56.2000 349.0000 1.0000
56.2100 372.0000 1.0000
56.2200 381.0000 1.0000
56.2300 340.0000 1.0000
56.2400 335.0000 1.0000
56.2500 321.0000 1.0000
56.2600 348.0000 1.0000
56.2700 340.0000 1.0000
56.2800 337.0000 1.0000
56.2900 317.0000 1.0000
56.3000 329.0000 1.0000
56.3100 333.0000 1.0000
56.3200 337.0000 1.0000
56.3300 355.0000 1.0000
56.3400 355.0000 1.0000
56.3500 357.0000 1.0000
56.3600 358.0000 1.0000
56.3700 373.0000 1.0000
56.3800 359.0000 1.0000
56.3900 384.0000 1.0000
56.4000 377.0000 1.0000
56.4100 363.0000 1.0000
56.4200 367.0000 1.0000
56.4300 367.0000 1.0000
56.4400 354.0000 1.0000
56.4500 358.0000 1.0000
56.4600 335.0000 1.0000
56.4700 358.0000 1.0000
56.4800 361.0000 1.0000
56.4900 362.0000 1.0000
56.5000 348.0000 1.0000
56.5100 338.0000 1.0000
56.5200 340.0000 1.0000
56.5300 387.0000 1.0000
56.5400 335.0000 1.0000
56.5500 338.0000 1.0000
56.5600 357.0000 1.0000
56.5700 349.0000 1.0000
56.5800 350.0000 1.0000
56.5900 356.0000 1.0000
56.6000 365.0000 1.0000
56.6100 325.0000 1.0000
56.6200 332.0000 1.0000
56.6300 348.0000 1.0000
56.6400 343.0000 1.0000
56.6500 352.0000 1.0000
56.6600 359.0000 1.0000
56.6700 375.0000 1.0000
56.6800 361.0000 1.0000
56.6900 350.0000 1.0000
56.7000 366.0000 1.0000
56.7100 336.0000 1.0000
56.7200 357.0000 1.0000
56.7300 338.0000 1.0000
56.7400 359.0000 1.0000
56.7500 355.0000 1.0000
56.7600 344.0000 1.0000
56.7700 344.0000 1.0000
56.7800 343.0000 1.0000
56.7900 350.0000 1.0000
56.8000 353.0000 1.0000
56.8100 361.0000 1.0000
56.8200 360.0000 1.0000
56.8300 371.0000 1.0000
56.8400 370.0000 1.0000
56.8500 346.0000 1.0000
56.8600 354.0000 1.0000
56.8700 385.0000 1.0000
56.8800 369.0000 1.0000
56.8900 374.0000 1.0000
56.9000 363.0000 1.0000
56.9100 332.0000 1.0000
56.9200 329.0000 1.0000
56.9300 365.0000 1.0000
56.9400 354.0000 1.0000
56.9500 375.0000 1.0000
56.9600 352.0000 1.0000
56.9700 335.0000 1.0000
56.9800 358.0000 1.0000
56.9900 379.0000 1.0000
57.0000 390.0000 1.0000
57.0100 389.0000 1.0000
57.0200 324.0000 1.0000
57.0300 378.0000 1.0000
57.0400 370.0000 1.0000
57.0500 348.0000 1.0000
57.0600 361.0000 1.0000
57.0700 350.0000 1.0000
57.0800 330.0000 1.0000
57.0900 366.0000 1.0000
57.1000 355.0000 1.0000
57.1100 312.0000 1.0000
57.1200 336.0000 1.0000
57.1300 351.0000 1.0000
57.1400 370.0000 1.0000
57.1500 349.0000 1.0000
57.1600 325.0000 1.0000
57.1700 318.0000 1.0000
57.1800 345.0000 1.0000
57.1900 362.0000 1.0000
57.2000 340.0000 1.0000
57.2100 321.0000 1.0000
57.2200 343.0000 1.0000
57.2300 354.0000 1.0000
57.2400 351.0000 1.0000
57.2500 366.0000 1.0000
57.2600 336.0000 1.0000
57.2700 349.0000 1.0000
57.2800 344.0000 1.0000
57.2900 341.0000 1.0000
57.3000 337.0000 1.0000
57.3100 360.0000 1.0000
57.3200 353.0000 1.0000
57.3300 370.0000 1.0000
57.3400 353.0000 1.0000
57.3500 361.0000 1.0000
57.3600 348.0000 1.0000
57.3700 333.0000 1.0000
57.3800 359.0000 1.0000
57.3900 361.0000 1.0000
57.4000 362.0000 1.0000
57.4100 373.0000 1.0000
57.4200 376.0000 1.0000
57.4300 362.0000 1.0000
57.4400 383.0000 1.0000
57.4500 379.0000 1.0000
57.4600 375.0000 1.0000
57.4700 330.0000 1.0000
57.4800 387.0000 1.0000
57.4900 352.0000 1.0000
57.5000 360.0000 1.0000
57.5100 349.0000 1.0000
57.5200 358.0000 1.0000
57.5300 353.0000 1.0000
57.5400 376.0000 1.0000
57.5500 380.0000 1.0000
57.5600 383.0000 1.0000
57.5700 365.0000 1.0000
57.5800 327.0000 1.0000
57.5900 354.0000 1.0000
57.6000 350.0000 1.0000
57.6100 342.0000 1.0000
57.6200 365.0000 1.0000
57.6300 353.0000 1.0000
57.6400 372.0000 1.0000
57.6500 380.0000 1.0000
57.6600 362.0000 1.0000
57.6700 333.0000 1.0000
57.6800 335.0000 1.0000
57.6900 341.0000 1.0000
57.7000 336.0000 1.0000
57.7100 331.0000 1.0000
57.7200 377.0000 1.0000
57.7300 344.0000 1.0000
57.7400 356.0000 1.0000
57.7500 353.0000 1.0000
57.7600 343.0000 1.0000
57.7700 350.0000 1.0000
57.7800 342.0000 1.0000
57.7900 367.0000 1.0000
57.8000 335.0000 1.0000
57.8100 329.0000 1.0000
57.8200 355.0000 1.0000
57.8300 373.0000 1.0000
57.8400 357.0000 1.0000
57.8500 360.0000 1.0000
57.8600 350.0000 1.0000
57.8700 375.0000 1.0000
57.8800 361.0000 1.0000
57.8900 364.0000 1.0000
57.9000 367.0000 1.0000
57.9100 359.0000 1.0000
57.9200 346.0000 1.0000
57.9300 357.0000 1.0000
57.9400 374.0000 1.0000
57.9500 367.0000 1.0000
57.9600 379.0000 1.0000
57.9700 356.0000 1.0000
57.9800 365.0000 1.0000
57.9900 333.0000 1.0000
58.0000 344.0000 1.0000
58.0100 366.0000 1.0000
58.0200 341.0000 1.0000
58.0300 331.0000 1.0000
58.0400 346.0000 1.0000
58.0500 359.0000 1.0000
58.0600 340.0000 1.0000
58.0700 343.0000 1.0000
58.0800 356.0000 1.0000
58.0900 346.0000 1.0000
58.1000 377.0000 1.0000
58.1100 355.0000 1.0000
58.1200 348.0000 1.0000
58.1300 323.0000 1.0000
58.1400 331.0000 1.0000
58.1500 341.0000 1.0000
58.1600 343.0000 1.0000
58.1700 343.0000 1.0000
58.1800 371.0000 1.0000
58.1900 367.0000 1.0000
58.2000 380.0000 1.0000
58.2100 332.0000 1.0000
58.2200 345.0000 1.0000
58.2300 379.0000 1.0000
58.2400 357.0000 1.0000
58.2500 347.0000 1.0000
58.2600 335.0000 1.0000
58.2700 353.0000 1.0000
58.2800 358.0000 1.0000
58.2900 341.0000 1.0000
58.3000 383.0000 1.0000
58.3100 335.0000 1.0000
58.3200 346.0000 1.0000
58.3300 360.0000 1.0000
58.3400 349.0000 1.0000
58.3500 371.0000 1.0000
58.3600 347.0000 1.0000
58.3700 350.0000 1.0000
58.3800 359.0000 1.0000
58.3900 354.0000 1.0000
58.4000 350.0000 1.0000
58.4100 365.0000 1.0000
58.4200 324.0000 1.0000
58.4300 335.0000 1.0000
58.4400 357.0000 1.0000
58.4500 372.0000 1.0000
58.4600 359.0000 1.0000
58.4700 338.0000 1.0000
58.4800 372.0000 1.0000
58.4900 390.0000 1.0000
58.5000 352.0000 1.0000
58.5100 342.0000 1.0000
58.5200 371.0000 1.0000
58.5300 357.0000 1.0000
58.5400 345.0000 1.0000
58.5500 358.0000 1.0000
58.5600 355.0000 1.0000
58.5700 359.0000 1.0000
58.5800 336.0000 1.0000
58.5900 364.0000 1.0000
58.6000 357.0000 1.0000
58.6100 353.0000 1.0000
58.6200 351.0000 1.0000
58.6300 352.0000 1.0000
58.6400 374.0000 1.0000
58.6500 324.0000 1.0000
58.6600 373.0000 1.0000
58.6700 359.0000 1.0000
58.6800 344.0000 1.0000
58.6900 362.0000 1.0000
58.7000 328.0000 1.0000
58.7100 350.0000 1.0000
58.7200 352.0000 1.0000
58.7300 341.0000 1.0000
58.7400 319.0000 1.0000
58.7500 354.0000 1.0000
58.7600 340.0000 1.0000
58.7700 323.0000 1.0000
58.7800 345.0000 1.0000
58.7900 341.0000 1.0000
58.8000 337.0000 1.0000
58.8100 336.0000 1.0000
58.8200 368.0000 1.0000
58.8300 340.0000 1.0000
58.8400 347.0000 1.0000
58.8500 323.0000 1.0000
58.8600 343.0000 1.0000
58.8700 335.0000 1.0000
58.8800 342.0000 1.0000
58.8900 319.0000 1.0000
58.9000 334.0000 1.0000
58.9100 321.0000 1.0000
58.9200 353.0000 1.0000
58.9300 358.0000 1.0000
58.9400 335.0000 1.0000
58.9500 362.0000 1.0000
58.9600 355.0000 1.0000
58.9700 342.0000 1.0000
58.9800 347.0000 1.0000
58.9900 360.0000 1.0000
59.0000 349.0000 1.0000
59.0100 342.0000 1.0000
59.0200 351.0000 1.0000
59.0300 343.0000 1.0000
59.0400 346.0000 1.0000
59.0500 334.0000 1.0000
59.0600 339.0000 1.0000
59.0700 373.0000 1.0000
59.0800 329.0000 1.0000
59.0900 328.0000 1.0000
59.1000 349.0000 1.0000
59.1100 366.0000 1.0000
59.1200 337.0000 1.0000
59.1300 330.0000 1.0000
59.1400 353.0000 1.0000
59.1500 329.0000 1.0000
59.1600 346.0000 1.0000
59.1700 328.0000 1.0000
59.1800 332.0000 1.0000
59.1900 355.0000 1.0000
59.2000 326.0000 1.0000
59.2100 379.0000 1.0000
59.2200 378.0000 1.0000
59.2300 379.0000 1.0000
59.2400 348.0000 1.0000
59.2500 356.0000 1.0000
59.2600 371.0000 1.0000
59.2700 361.0000 1.0000
59.2800 356.0000 1.0000
59.2900 359.0000 1.0000
59.3000 329.0000 1.0000
59.3100 357.0000 1.0000
59.3200 336.0000 1.0000
59.3300 341.0000 1.0000
59.3400 320.0000 1.0000
59.3500 341.0000 1.0000
59.3600 332.0000 1.0000
59.3700 346.0000 1.0000
59.3800 357.0000 1.0000
59.3900 341.0000 1.0000
59.4000 331.0000 1.0000
59.4100 333.0000 1.0000
59.4200 393.0000 1.0000
59.4300 354.0000 1.0000
59.4400 334.0000 1.0000
59.4500 327.0000 1.0000
59.4600 364.0000 1.0000
59.4700 373.0000 1.0000
59.4800 326.0000 1.0000
59.4900 325.0000 1.0000
59.5000 343.0000 1.0000
59.5100 353.0000 1.0000
59.5200 355.0000 1.0000
59.5300 325.0000 1.0000
59.5400 353.0000 1.0000
59.5500 344.0000 1.0000
59.5600 345.0000 1.0000
59.5700 366.0000 1.0000
59.5800 329.0000 1.0000
59.5900 359.0000 1.0000
59.6000 341.0000 1.0000
59.6100 316.0000 1.0000
59.6200 370.0000 1.0000
59.6300 396.0000 1.0000
59.6400 372.0000 1.0000
59.6500 363.0000 1.0000
59.6600 337.0000 1.0000
59.6700 355.0000 1.0000
59.6800 365.0000 1.0000
59.6900 374.0000 1.0000
59.7000 323.0000 1.0000
59.7100 332.0000 1.0000
59.7200 345.0000 1.0000
59.7300 334.0000 1.0000
59.7400 362.0000 1.0000
59.7500 397.0000 1.0000
59.7600 361.0000 1.0000
59.7700 340.0000 1.0000
59.7800 324.0000 1.0000
59.7900 355.0000 1.0000
59.8000 370.0000 1.0000
59.8100 336.0000 1.0000
59.8200 335.0000 1.0000
59.8300 356.0000 1.0000
59.8400 365.0000 1.0000
59.8500 358.0000 1.0000
59.8600 374.0000 1.0000
59.8700 366.0000 1.0000
59.8800 305.0000 1.0000
59.8900 335.0000 1.0000
59.9000 316.0000 1.0000
59.9100 319.0000 1.0000
59.9200 347.0000 1.0000
59.9300 374.0000 1.0000
59.9400 365.0000 1.0000
59.9500 359.0000 1.0000
59.9600 353.0000 1.0000
59.9700 343.0000 1.0000
59.9800 340.0000 1.0000
59.9900 344.0000 1.0000
60.0000 327.0000 1.0000
60.0100 334.0000 1.0000
60.0200 368.0000 1.0000
60.0300 328.0000 1.0000
60.0400 353.0000 1.0000
60.0500 342.0000 1.0000
60.0600 351.0000 1.0000
60.0700 343.0000 1.0000
60.0800 362.0000 1.0000
60.0900 313.0000 1.0000
60.1000 366.0000 1.0000
60.1100 345.0000 1.0000
60.1200 339.0000 1.0000
60.1300 325.0000 1.0000
60.1400 311.0000 1.0000
60.1500 337.0000 1.0000
60.1600 351.0000 1.0000
60.1700 354.0000 1.0000
60.1800 371.0000 1.0000
60.1900 358.0000 1.0000
60.2000 384.0000 1.0000
60.2100 356.0000 1.0000
60.2200 335.0000 1.0000
60.2300 355.0000 1.0000
60.2400 348.0000 1.0000
60.2500 357.0000 1.0000
60.2600 342.0000 1.0000
60.2700 345.0000 1.0000
60.2800 348.0000 1.0000
60.2900 351.0000 1.0000
60.3000 353.0000 1.0000
60.3100 333.0000 1.0000
60.3200 353.0000 1.0000
60.3300 354.0000 1.0000
60.3400 351.0000 1.0000
60.3500 337.0000 1.0000
60.3600 361.0000 1.0000
60.3700 359.0000 1.0000
60.3800 337.0000 1.0000
60.3900 348.0000 1.0000
60.4000 371.0000 1.0000
60.4100 362.0000 1.0000
60.4200 339.0000 1.0000
60.4300 378.0000 1.0000
60.4400 348.0000 1.0000
60.4500 339.0000 1.0000
60.4600 341.0000 1.0000
60.4700 350.0000 1.0000
60.4800 352.0000 1.0000
60.4900 323.0000 1.0000
60.5000 340.0000 1.0000
60.5100 370.0000 1.0000
60.5200 347.0000 1.0000
60.5300 329.0000 1.0000
60.5400 327.0000 1.0000
60.5500 354.0000 1.0000
60.5600 361.0000 1.0000
60.5700 364.0000 1.0000
60.5800 362.0000 1.0000
60.5900 342.0000 1.0000
60.6000 334.0000 1.0000
60.6100 352.0000 1.0000
60.6200 340.0000 1.0000
60.6300 358.0000 1.0000
60.6400 355.0000 1.0000
60.6500 333.0000 1.0000
60.6600 318.0000 1.0000
60.6700 333.0000 1.0000
60.6800 351.0000 1.0000
60.6900 343.0000 1.0000
60.7000 353.0000 1.0000
60.7100 325.0000 1.0000
60.7200 337.0000 1.0000
60.7300 370.0000 1.0000
60.7400 354.0000 1.0000
60.7500 370.0000 1.0000
60.7600 370.0000 1.0000
60.7700 367.0000 1.0000
60.7800 318.0000 1.0000
60.7900 344.0000 1.0000
60.8000 366.0000 1.0000
60.8100 353.0000 1.0000
60.8200 364.0000 1.0000
60.8300 380.0000 1.0000
60.8400 356.0000 1.0000
60.8500 369.0000 1.0000
60.8600 328.0000 1.0000
60.8700 347.0000 1.0000
60.8800 347.0000 1.0000
60.8900 319.0000 1.0000
60.9000 366.0000 1.0000
60.9100 369.0000 1.0000
60.9200 364.0000 1.0000
60.9300 359.0000 1.0000
60.9400 372.0000 1.0000
60.9500 378.0000 1.0000
60.9600 326.0000 1.0000
60.9700 337.0000 1.0000
60.9800 342.0000 1.0000
60.9900 350.0000 1.0000
61.0000 349.0000 1.0000
61.0100 386.0000 1.0000
61.0200 366.0000 1.0000
61.0300 355.0000 1.0000
61.0400 364.0000 1.0000
61.0500 371.0000 1.0000
61.0600 375.0000 1.0000
61.0700 365.0000 1.0000
61.0800 376.0000 1.0000
61.0900 400.0000 1.0000
61.1000 406.0000 1.0000
61.1100 412.0000 1.0000
61.1200 372.0000 1.0000
61.1300 370.0000 1.0000
61.1400 401.0000 1.0000
61.1500 396.0000 1.0000
61.1600 396.0000 1.0000
61.1700 404.0000 1.0000
61.1800 413.0000 1.0000
61.1900 416.0000 1.0000
61.2000 416.0000 1.0000
61.2100 388.0000 1.0000
61.2200 403.0000 1.0000
61.2300 420.0000 1.0000
61.2400 425.0000 1.0000
61.2500 486.0000 1.0000
61.2600 464.0000 1.0000
61.2700 479.0000 1.0000
61.2800 441.0000 1.0000
61.2900 467.0000 1.0000
61.3000 486.0000 1.0000
61.3100 502.0000 1.0000
61.3200 517.0000 1.0000
61.3300 518.0000 1.0000
61.3400 529.0000 1.0000
61.3500 542.0000 1.0000
61.3600 543.0000 1.0000
61.3700 564.0000 1.0000
61.3800 619.0000 1.0000
61.3900 622.0000 1.0000
61.4000 667.0000 1.0000
61.4100 673.0000 1.0000
61.4200 663.0000 1.0000
61.4300 652.0000 1.0000
61.4400 643.0000 1.0000
61.4500 712.0000 1.0000
61.4600 701.0000 1.0000
61.4700 699.0000 1.0000
61.4800 733.0000 1.0000
61.4900 722.0000 1.0000
61.5000 778.0000 1.0000
61.5100 796.0000 1.0000
61.5200 770.0000 1.0000
61.5300 749.0000 1.0000
61.5400 780.0000 1.0000
61.5500 762.0000 1.0000
61.5600 764.0000 1.0000
61.5700 759.0000 1.0000
61.5800 740.0000 1.0000
61.5900 769.0000 1.0000
61.6000 776.0000 1.0000
61.6100 735.0000 1.0000
61.6200 777.0000 1.0000
61.6300 764.0000 1.0000
61.6400 735.0000 1.0000
61.6500 710.0000 1.0000
61.6600 685.0000 1.0000
61.6700 692.0000 1.0000
61.6800 670.0000 1.0000
61.6900 676.0000 1.0000
61.7000 669.0000 1.0000
61.7100 671.0000 1.0000
61.7200 618.0000 1.0000
61.7300 562.0000 1.0000
61.7400 599.0000 1.0000
61.7500 602.0000 1.0000
61.7600 610.0000 1.0000
61.7700 566.0000 1.0000
61.7800 543.0000 1.0000
61.7900 550.0000 1.0000
61.8000 522.0000 1.0000
61.8100 554.0000 1.0000
61.8200 524.0000 1.0000
61.8300 509.0000 1.0000
61.8400 483.0000 1.0000
61.8500 475.0000 1.0000
61.8600 474.0000 1.0000
61.8700 469.0000 1.0000
61.8800 469.0000 1.0000
61.8900 435.0000 1.0000
61.9000 478.0000 1.0000
61.9100 429.0000 1.0000
61.9200 466.0000 1.0000
61.9300 420.0000 1.0000
61.9400 447.0000 1.0000
61.9500 410.0000 1.0000
61.9600 411.0000 1.0000
61.9700 421.0000 1.0000
61.9800 436.0000 1.0000
61.9900 408.0000 1.0000
62.0000 409.0000 1.0000
62.0100 392.0000 1.0000
62.0200 394.0000 1.0000
62.0300 403.0000 1.0000
62.0400 436.0000 1.0000
62.0500 419.0000 1.0000
62.0600 388.0000 1.0000
62.0700 395.0000 1.0000
62.0800 380.0000 1.0000
62.0900 401.0000 1.0000
62.1000 436.0000 1.0000
62.1100 385.0000 1.0000
62.1200 373.0000 1.0000
62.1300 362.0000 1.0000
62.1400 390.0000 1.0000
62.1500 387.0000 1.0000
62.1600 375.0000 1.0000
62.1700 385.0000 1.0000
62.1800 391.0000 1.0000
62.1900 378.0000 1.0000
62.2000 377.0000 1.0000
62.2100 366.0000 1.0000
62.2200 375.0000 1.0000
62.2300 397.0000 1.0000
62.2400 395.0000 1.0000
62.2500 388.0000 1.0000
62.2600 402.0000 1.0000
62.2700 418.0000 1.0000
62.2800 388.0000 1.0000
62.2900 392.0000 1.0000
62.3000 391.0000 1.0000
62.3100 363.0000 1.0000
62.3200 375.0000 1.0000
62.3300 373.0000 1.0000
62.3400 428.0000 1.0000
62.3500 417.0000 1.0000
62.3600 399.0000 1.0000
62.3700 417.0000 1.0000
62.3800 383.0000 1.0000
62.3900 378.0000 1.0000
62.4000 392.0000 1.0000
62.4100 363.0000 1.0000
62.4200 400.0000 1.0000
62.4300 365.0000 1.0000
62.4400 444.0000 1.0000
62.4500 393.0000 1.0000
62.4600 402.0000 1.0000
62.4700 405.0000 1.0000
62.4800 395.0000 1.0000
62.4900 380.0000 1.0000
62.5000 396.0000 1.0000
62.5100 359.0000 1.0000
62.5200 348.0000 1.0000
62.5300 365.0000 1.0000
62.5400 370.0000 1.0000
62.5500 364.0000 1.0000
62.5600 393.0000 1.0000
62.5700 397.0000 1.0000
62.5800 361.0000 1.0000
62.5900 361.0000 1.0000
62.6000 373.0000 1.0000
62.6100 354.0000 1.0000
62.6200 359.0000 1.0000
62.6300 375.0000 1.0000
62.6400 387.0000 1.0000
62.6500 384.0000 1.0000
62.6600 359.0000 1.0000
62.6700 360.0000 1.0000
62.6800 350.0000 1.0000
62.6900 329.0000 1.0000
62.7000 336.0000 1.0000
62.7100 359.0000 1.0000
62.7200 344.0000 1.0000
62.7300 341.0000 1.0000
62.7400 350.0000 1.0000
62.7500 375.0000 1.0000
62.7600 363.0000 1.0000
62.7700 355.0000 1.0000
62.7800 340.0000 1.0000
62.7900 343.0000 1.0000
62.8000 338.0000 1.0000
62.8100 341.0000 1.0000
62.8200 369.0000 1.0000
62.8300 315.0000 1.0000
62.8400 307.0000 1.0000
62.8500 353.0000 1.0000
62.8600 370.0000 1.0000
62.8700 328.0000 1.0000
62.8800 359.0000 1.0000
62.8900 353.0000 1.0000
62.9000 354.0000 1.0000
62.9100 346.0000 1.0000
62.9200 375.0000 1.0000
62.9300 384.0000 1.0000
62.9400 349.0000 1.0000
62.9500 362.0000 1.0000
62.9600 342.0000 1.0000
62.9700 388.0000 1.0000
62.9800 352.0000 1.0000
62.9900 333.0000 1.0000
63.0000 349.0000 1.0000
63.0100 370.0000 1.0000
63.0200 358.0000 1.0000
63.0300 378.0000 1.0000
63.0400 355.0000 1.0000
63.0500 343.0000 1.0000
63.0600 308.0000 1.0000
63.0700 358.0000 1.0000
63.0800 336.0000 1.0000
63.0900 350.0000 1.0000
63.1000 374.0000 1.0000
63.1100 343.0000 1.0000
63.1200 324.0000 1.0000
63.1300 354.0000 1.0000
63.1400 321.0000 1.0000
63.1500 337.0000 1.0000
63.1600 322.0000 1.0000
63.1700 380.0000 1.0000
63.1800 370.0000 1.0000
63.1900 358.0000 1.0000
63.2000 341.0000 1.0000
63.2100 349.0000 1.0000
63.2200 331.0000 1.0000
63.2300 342.0000 1.0000
63.2400 327.0000 1.0000
63.2500 367.0000 1.0000
63.2600 334.0000 1.0000
63.2700 313.0000 1.0000
63.2800 359.0000 1.0000
63.2900 348.0000 1.0000
63.3000 315.0000 1.0000
63.3100 327.0000 1.0000
63.3200 348.0000 1.0000
63.3300 383.0000 1.0000
63.3400 351.0000 1.0000
63.3500 364.0000 1.0000
63.3600 343.0000 1.0000
63.3700 352.0000 1.0000
63.3800 368.0000 1.0000
63.3900 333.0000 1.0000
63.4000 351.0000 1.0000
63.4100 335.0000 1.0000
63.4200 329.0000 1.0000
63.4300 354.0000 1.0000
63.4400 344.0000 1.0000
63.4500 371.0000 1.0000
63.4600 381.0000 1.0000
63.4700 383.0000 1.0000
63.4800 365.0000 1.0000
63.4900 363.0000 1.0000
63.5000 332.0000 1.0000
63.5100 340.0000 1.0000
63.5200 338.0000 1.0000
63.5300 323.0000 1.0000
63.5400 323.0000 1.0000
63.5500 356.0000 1.0000
63.5600 375.0000 1.0000
63.5700 374.0000 1.0000
63.5800 410.0000 1.0000
63.5900 350.0000 1.0000
63.6000 365.0000 1.0000
63.6100 374.0000 1.0000
63.6200 362.0000 1.0000
63.6300 402.0000 1.0000
63.6400 368.0000 1.0000
63.6500 394.0000 1.0000
63.6600 354.0000 1.0000
63.6700 392.0000 1.0000
63.6800 388.0000 1.0000
63.6900 363.0000 1.0000
63.7000 341.0000 1.0000
63.7100 371.0000 1.0000
63.7200 364.0000 1.0000
63.7300 386.0000 1.0000
63.7400 416.0000 1.0000
63.7500 403.0000 1.0000
63.7600 391.0000 1.0000
63.7700 388.0000 1.0000
63.7800 395.0000 1.0000
63.7900 400.0000 1.0000
63.8000 436.0000 1.0000
63.8100 409.0000 1.0000
63.8200 452.0000 1.0000
63.8300 461.0000 1.0000
63.8400 471.0000 1.0000
63.8500 469.0000 1.0000
63.8600 482.0000 1.0000
63.8700 519.0000 1.0000
63.8800 530.0000 1.0000
63.8900 573.0000 1.0000
63.9000 551.0000 1.0000
63.9100 545.0000 1.0000
63.9200 581.0000 1.0000
63.9300 548.0000 1.0000
63.9400 554.0000 1.0000
63.9500 530.0000 1.0000
63.9600 532.0000 1.0000
63.9700 502.0000 1.0000
63.9800 483.0000 1.0000
63.9900 481.0000 1.0000
64.0000 507.0000 1.0000
64.0100 511.0000 1.0000
64.0200 511.0000 1.0000
64.0300 492.0000 1.0000
64.0400 502.0000 1.0000
64.0500 480.0000 1.0000
64.0600 472.0000 1.0000
64.0700 476.0000 1.0000
64.0800 473.0000 1.0000
64.0900 478.0000 1.0000
64.1000 489.0000 1.0000
64.1100 508.0000 1.0000
64.1200 472.0000 1.0000
64.1300 448.0000 1.0000
64.1400 432.0000 1.0000
64.1500 462.0000 1.0000
64.1600 438.0000 1.0000
64.1700 455.0000 1.0000
64.1800 425.0000 1.0000
64.1900 395.0000 1.0000
64.2000 425.0000 1.0000
64.2100 423.0000 1.0000
64.2200 413.0000 1.0000
64.2300 415.0000 1.0000
64.2400 399.0000 1.0000
64.2500 366.0000 1.0000
64.2600 389.0000 1.0000
64.2700 384.0000 1.0000
64.2800 365.0000 1.0000
64.2900 400.0000 1.0000
64.3000 362.0000 1.0000
64.3100 353.0000 1.0000
64.3200 371.0000 1.0000
64.3300 400.0000 1.0000
64.3400 389.0000 1.0000
64.3500 372.0000 1.0000
64.3600 346.0000 1.0000
64.3700 363.0000 1.0000
64.3800 351.0000 1.0000
64.3900 353.0000 1.0000
64.4000 388.0000 1.0000
64.4100 378.0000 1.0000
64.4200 421.0000 1.0000
64.4300 354.0000 1.0000
64.4400 384.0000 1.0000
64.4500 368.0000 1.0000
64.4600 355.0000 1.0000
64.4700 341.0000 1.0000
64.4800 380.0000 1.0000
64.4900 366.0000 1.0000
64.5000 378.0000 1.0000
64.5100 364.0000 1.0000
64.5200 386.0000 1.0000
64.5300 360.0000 1.0000
64.5400 376.0000 1.0000
64.5500 404.0000 1.0000
64.5600 350.0000 1.0000
64.5700 365.0000 1.0000
64.5800 355.0000 1.0000
64.5900 362.0000 1.0000
64.6000 379.0000 1.0000
64.6100 349.0000 1.0000
64.6200 351.0000 1.0000
64.6300 342.0000 1.0000
64.6400 346.0000 1.0000
64.6500 353.0000 1.0000
64.6600 346.0000 1.0000
64.6700 390.0000 1.0000
64.6800 377.0000 1.0000
64.6900 361.0000 1.0000
64.7000 336.0000 1.0000
64.7100 381.0000 1.0000
64.7200 364.0000 1.0000
64.7300 312.0000 1.0000
64.7400 396.0000 1.0000
64.7500 360.0000 1.0000
64.7600 362.0000 1.0000
64.7700 388.0000 1.0000
64.7800 383.0000 1.0000
64.7900 363.0000 1.0000
64.8000 357.0000 1.0000
64.8100 363.0000 1.0000
64.8200 346.0000 1.0000
64.8300 359.0000 1.0000
64.8400 349.0000 1.0000
64.8500 353.0000 1.0000
64.8600 371.0000 1.0000
64.8700 352.0000 1.0000
64.8800 385.0000 1.0000
64.8900 345.0000 1.0000
64.9000 342.0000 1.0000
64.9100 366.0000 1.0000
64.9200 368.0000 1.0000
64.9300 387.0000 1.0000
64.9400 394.0000 1.0000
64.9500 373.0000 1.0000
64.9600 400.0000 1.0000
64.9700 391.0000 1.0000
64.9800 407.0000 1.0000
64.9900 369.0000 1.0000
65.0000 361.0000 1.0000
65.0100 376.0000 1.0000
65.0200 401.0000 1.0000
65.0300 376.0000 1.0000
65.0400 361.0000 1.0000
65.0500 394.0000 1.0000
65.0600 405.0000 1.0000
65.0700 377.0000 1.0000
65.0800 385.0000 1.0000
65.0900 406.0000 1.0000
65.1000 405.0000 1.0000
65.1100 409.0000 1.0000
65.1200 421.0000 1.0000
65.1300 432.0000 1.0000
65.1400 404.0000 1.0000
65.1500 446.0000 1.0000
65.1600 428.0000 1.0000
65.1700 463.0000 1.0000
65.1800 451.0000 1.0000
65.1900 428.0000 1.0000
65.2000 455.0000 1.0000
65.2100 473.0000 1.0000
65.2200 490.0000 1.0000
65.2300 499.0000 1.0000
65.2400 492.0000 1.0000
65.2500 502.0000 1.0000
65.2600 549.0000 1.0000
65.2700 535.0000 1.0000
65.2800 541.0000 1.0000
65.2900 571.0000 1.0000
65.3000 622.0000 1.0000
65.3100 623.0000 1.0000
65.3200 582.0000 1.0000
65.3300 628.0000 1.0000
65.3400 691.0000 1.0000
65.3500 689.0000 1.0000
65.3600 731.0000 1.0000
65.3700 758.0000 1.0000
65.3800 827.0000 1.0000
65.3900 844.0000 1.0000
65.4000 880.0000 1.0000
65.4100 932.0000 1.0000
65.4200 985.0000 1.0000
65.4300 982.0000 1.0000
65.4400 1030.0000 1.0000
65.4500 1062.0000 1.0000
65.4600 1143.0000 1.0000
65.4700 1163.0000 1.0000
65.4800 1206.0000 1.0000
65.4900 1217.0000 1.0000
65.5000 1281.0000 1.0000
65.5100 1227.0000 1.0000
65.5200 1284.0000 1.0000
65.5300 1283.0000 1.0000
65.5400 1311.0000 1.0000
65.5500 1311.0000 1.0000
65.5600 1313.0000 1.0000
65.5700 1229.0000 1.0000
65.5800 1181.0000 1.0000
65.5900 1206.0000 1.0000
65.6000 1218.0000 1.0000
65.6100 1170.0000 1.0000
65.6200 1108.0000 1.0000
65.6300 1101.0000 1.0000
65.6400 1104.0000 1.0000
65.6500 1068.0000 1.0000
65.6600 1088.0000 1.0000
65.6700 1106.0000 1.0000
65.6800 1030.0000 1.0000
65.6900 963.0000 1.0000
65.7000 1032.0000 1.0000
65.7100 993.0000 1.0000
65.7200 960.0000 1.0000
65.7300 926.0000 1.0000
65.7400 922.0000 1.0000
65.7500 896.0000 1.0000
65.7600 873.0000 1.0000
65.7700 751.0000 1.0000
65.7800 774.0000 1.0000
65.7900 767.0000 1.0000
65.8000 749.0000 1.0000
65.8100 671.0000 1.0000
65.8200 669.0000 1.0000
65.8300 608.0000 1.0000
65.8400 602.0000 1.0000
65.8500 600.0000 1.0000
65.8600 583.0000 1.0000
65.8700 535.0000 1.0000
65.8800 525.0000 1.0000
65.8900 518.0000 1.0000
65.9000 511.0000 1.0000
65.9100 503.0000 1.0000
65.9200 496.0000 1.0000
65.9300 490.0000 1.0000
65.9400 477.0000 1.0000
65.9500 449.0000 1.0000
65.9600 425.0000 1.0000
65.9700 457.0000 1.0000
65.9800 405.0000 1.0000
65.9900 430.0000 1.0000
66.0000 408.0000 1.0000
66.0100 413.0000 1.0000
66.0200 402.0000 1.0000
66.0300 415.0000 1.0000
66.0400 422.0000 1.0000
66.0500 413.0000 1.0000
66.0600 392.0000 1.0000
66.0700 420.0000 1.0000
66.0800 381.0000 1.0000
66.0900 395.0000 1.0000
66.1000 417.0000 1.0000
66.1100 369.0000 1.0000
66.1200 381.0000 1.0000
66.1300 426.0000 1.0000
66.1400 364.0000 1.0000
66.1500 342.0000 1.0000
66.1600 380.0000 1.0000
66.1700 360.0000 1.0000
66.1800 329.0000 1.0000
66.1900 335.0000 1.0000
66.2000 366.0000 1.0000
66.2100 378.0000 1.0000
66.2200 351.0000 1.0000
66.2300 395.0000 1.0000
66.2400 377.0000 1.0000
66.2500 369.0000 1.0000
66.2600 375.0000 1.0000
66.2700 373.0000 1.0000
66.2800 369.0000 1.0000
66.2900 366.0000 1.0000
66.3000 352.0000 1.0000
66.3100 324.0000 1.0000
66.3200 340.0000 1.0000
66.3300 344.0000 1.0000
66.3400 344.0000 1.0000
66.3500 348.0000 1.0000
66.3600 329.0000 1.0000
66.3700 324.0000 1.0000
66.3800 338.0000 1.0000
66.3900 343.0000 1.0000
66.4000 346.0000 1.0000
66.4100 330.0000 1.0000
66.4200 331.0000 1.0000
66.4300 338.0000 1.0000
66.4400 335.0000 1.0000
66.4500 328.0000 1.0000
66.4600 334.0000 1.0000
66.4700 324.0000 1.0000
66.4800 351.0000 1.0000
66.4900 352.0000 1.0000
66.5000 334.0000 1.0000
66.5100 315.0000 1.0000
66.5200 327.0000 1.0000
66.5300 301.0000 1.0000
66.5400 315.0000 1.0000
66.5500 321.0000 1.0000
66.5600 341.0000 1.0000
66.5700 315.0000 1.0000
66.5800 309.0000 1.0000
66.5900 322.0000 1.0000
66.6000 348.0000 1.0000
66.6100 316.0000 1.0000
66.6200 313.0000 1.0000
66.6300 336.0000 1.0000
66.6400 314.0000 1.0000
66.6500 332.0000 1.0000
66.6600 305.0000 1.0000
66.6700 302.0000 1.0000
66.6800 312.0000 1.0000
66.6900 329.0000 1.0000
66.7000 346.0000 1.0000
66.7100 355.0000 1.0000
66.7200 334.0000 1.0000
66.7300 333.0000 1.0000
66.7400 339.0000 1.0000
66.7500 303.0000 1.0000
66.7600 325.0000 1.0000
66.7700 332.0000 1.0000
66.7800 329.0000 1.0000
66.7900 336.0000 1.0000
66.8000 334.0000 1.0000
66.8100 316.0000 1.0000
66.8200 328.0000 1.0000
66.8300 347.0000 1.0000
66.8400 343.0000 1.0000
66.8500 354.0000 1.0000
66.8600 340.0000 1.0000
66.8700 318.0000 1.0000
66.8800 336.0000 1.0000
66.8900 314.0000 1.0000
66.9000 339.0000 1.0000
66.9100 293.0000 1.0000
66.9200 309.0000 1.0000
66.9300 304.0000 1.0000
66.9400 339.0000 1.0000
66.9500 350.0000 1.0000
66.9600 323.0000 1.0000
66.9700 334.0000 1.0000
66.9800 316.0000 1.0000
66.9900 311.0000 1.0000
67.0000 306.0000 1.0000
67.0100 321.0000 1.0000
67.0200 326.0000 1.0000
67.0300 343.0000 1.0000
67.0400 347.0000 1.0000
67.0500 316.0000 1.0000
67.0600 353.0000 1.0000
67.0700 302.0000 1.0000
67.0800 323.0000 1.0000
67.0900 318.0000 1.0000
67.1000 338.0000 1.0000
67.1100 294.0000 1.0000
67.1200 336.0000 1.0000
67.1300 317.0000 1.0000
67.1400 313.0000 1.0000
67.1500 316.0000 1.0000
67.1600 303.0000 1.0000
67.1700 314.0000 1.0000
67.1800 337.0000 1.0000
67.1900 351.0000 1.0000
67.2000 313.0000 1.0000
67.2100 289.0000 1.0000
67.2200 334.0000 1.0000
67.2300 348.0000 1.0000
67.2400 314.0000 1.0000
67.2500 308.0000 1.0000
67.2600 316.0000 1.0000
67.2700 313.0000 1.0000
67.2800 324.0000 1.0000
67.2900 301.0000 1.0000
67.3000 341.0000 1.0000
67.3100 327.0000 1.0000
67.3200 318.0000 1.0000
67.3300 306.0000 1.0000
67.3400 328.0000 1.0000
67.3500 309.0000 1.0000
67.3600 316.0000 1.0000
67.3700 306.0000 1.0000
67.3800 312.0000 1.0000
67.3900 307.0000 1.0000
67.4000 309.0000 1.0000
67.4100 311.0000 1.0000
67.4200 336.0000 1.0000
67.4300 310.0000 1.0000
67.4400 322.0000 1.0000
67.4500 305.0000 1.0000
67.4600 285.0000 1.0000
67.4700 301.0000 1.0000
67.4800 270.0000 1.0000
67.4900 306.0000 1.0000
67.5000 314.0000 1.0000
67.5100 336.0000 1.0000
67.5200 306.0000 1.0000
67.5300 334.0000 1.0000
67.5400 321.0000 1.0000
67.5500 330.0000 1.0000
67.5600 312.0000 1.0000
67.5700 318.0000 1.0000
67.5800 282.0000 1.0000
67.5900 316.0000 1.0000
67.6000 300.0000 1.0000
67.6100 308.0000 1.0000
67.6200 323.0000 1.0000
67.6300 298.0000 1.0000
67.6400 311.0000 1.0000
67.6500 309.0000 1.0000
67.6600 298.0000 1.0000
67.6700 320.0000 1.0000
67.6800 302.0000 1.0000
67.6900 290.0000 1.0000
67.7000 291.0000 1.0000
67.7100 291.0000 1.0000
67.7200 332.0000 1.0000
67.7300 324.0000 1.0000
67.7400 298.0000 1.0000
67.7500 320.0000 1.0000
67.7600 330.0000 1.0000
67.7700 298.0000 1.0000
67.7800 313.0000 1.0000
67.7900 315.0000 1.0000
67.8000 314.0000 1.0000
67.8100 297.0000 1.0000
67.8200 310.0000 1.0000
67.8300 304.0000 1.0000
67.8400 308.0000 1.0000
67.8500 294.0000 1.0000
67.8600 298.0000 1.0000
67.8700 311.0000 1.0000
67.8800 322.0000 1.0000
67.8900 291.0000 1.0000
67.9000 288.0000 1.0000
67.9100 306.0000 1.0000
67.9200 307.0000 1.0000
67.9300 327.0000 1.0000
67.9400 332.0000 1.0000
67.9500 326.0000 1.0000
67.9600 291.0000 1.0000
67.9700 324.0000 1.0000
67.9800 325.0000 1.0000
67.9900 291.0000 1.0000
68.0000 289.0000 1.0000
68.0100 338.0000 1.0000
68.0200 328.0000 1.0000
68.0300 345.0000 1.0000
68.0400 315.0000 1.0000
68.0500 305.0000 1.0000
68.0600 315.0000 1.0000
68.0700 291.0000 1.0000
68.0800 280.0000 1.0000
68.0900 295.0000 1.0000
68.1000 308.0000 1.0000
68.1100 309.0000 1.0000
68.1200 308.0000 1.0000
68.1300 307.0000 1.0000
68.1400 343.0000 1.0000
68.1500 333.0000 1.0000
68.1600 306.0000 1.0000
68.1700 305.0000 1.0000
68.1800 300.0000 1.0000
68.1900 306.0000 1.0000
68.2000 315.0000 1.0000
68.2100 273.0000 1.0000
68.2200 306.0000 1.0000
68.2300 295.0000 1.0000
68.2400 304.0000 1.0000
68.2500 313.0000 1.0000
68.2600 327.0000 1.0000
68.2700 327.0000 1.0000
68.2800 304.0000 1.0000
68.2900 284.0000 1.0000
68.3000 322.0000 1.0000
68.3100 325.0000 1.0000
68.3200 297.0000 1.0000
68.3300 276.0000 1.0000
68.3400 339.0000 1.0000
68.3500 314.0000 1.0000
68.3600 317.0000 1.0000
68.3700 323.0000 1.0000
68.3800 296.0000 1.0000
68.3900 335.0000 1.0000
68.4000 299.0000 1.0000
68.4100 290.0000 1.0000
68.4200 301.0000 1.0000
68.4300 322.0000 1.0000
68.4400 302.0000 1.0000
68.4500 301.0000 1.0000
68.4600 304.0000 1.0000
68.4700 304.0000 1.0000
68.4800 316.0000 1.0000
68.4900 302.0000 1.0000
68.5000 352.0000 1.0000
68.5100 291.0000 1.0000
68.5200 292.0000 1.0000
68.5300 304.0000 1.0000
68.5400 313.0000 1.0000
68.5500 323.0000 1.0000
68.5600 324.0000 1.0000
68.5700 287.0000 1.0000
68.5800 309.0000 1.0000
68.5900 302.0000 1.0000
68.6000 274.0000 1.0000
68.6100 306.0000 1.0000
68.6200 314.0000 1.0000
68.6300 312.0000 1.0000
68.6400 351.0000 1.0000
68.6500 340.0000 1.0000
68.6600 332.0000 1.0000
68.6700 308.0000 1.0000
68.6800 326.0000 1.0000
68.6900 309.0000 1.0000
68.7000 285.0000 1.0000
68.7100 285.0000 1.0000
68.7200 313.0000 1.0000
68.7300 308.0000 1.0000
68.7400 305.0000 1.0000
68.7500 324.0000 1.0000
68.7600 301.0000 1.0000
68.7700 323.0000 1.0000
68.7800 317.0000 1.0000
68.7900 292.0000 1.0000
68.8000 314.0000 1.0000
68.8100 310.0000 1.0000
68.8200 291.0000 1.0000
68.8300 298.0000 1.0000
68.8400 319.0000 1.0000
68.8500 316.0000 1.0000
68.8600 310.0000 1.0000
68.8700 319.0000 1.0000
68.8800 336.0000 1.0000
68.8900 336.0000 1.0000
68.9000 337.0000 1.0000
68.9100 316.0000 1.0000
68.9200 292.0000 1.0000
68.9300 300.0000 1.0000
68.9400 277.0000 1.0000
68.9500 310.0000 1.0000
68.9600 294.0000 1.0000
68.9700 283.0000 1.0000
68.9800 315.0000 1.0000
68.9900 295.0000 1.0000
69.0000 320.0000 1.0000
69.0100 299.0000 1.0000
69.0200 325.0000 1.0000
69.0300 335.0000 1.0000
69.0400 350.0000 1.0000
69.0500 313.0000 1.0000
69.0600 315.0000 1.0000
69.0700 320.0000 1.0000
69.0800 307.0000 1.0000
69.0900 316.0000 1.0000
69.1000 325.0000 1.0000
69.1100 296.0000 1.0000
69.1200 299.0000 1.0000
69.1300 297.0000 1.0000
69.1400 303.0000 1.0000
69.1500 334.0000 1.0000
69.1600 323.0000 1.0000
69.1700 304.0000 1.0000
69.1800 328.0000 1.0000
69.1900 296.0000 1.0000
69.2000 280.0000 1.0000
69.2100 290.0000 1.0000
69.2200 308.0000 1.0000
69.2300 322.0000 1.0000
69.2400 304.0000 1.0000
69.2500 290.0000 1.0000
69.2600 323.0000 1.0000
69.2700 313.0000 1.0000
69.2800 323.0000 1.0000
69.2900 296.0000 1.0000
69.3000 314.0000 1.0000
69.3100 315.0000 1.0000
69.3200 271.0000 1.0000
69.3300 283.0000 1.0000
69.3400 320.0000 1.0000
69.3500 317.0000 1.0000
69.3600 283.0000 1.0000
69.3700 267.0000 1.0000
69.3800 301.0000 1.0000
69.3900 327.0000 1.0000
69.4000 330.0000 1.0000
69.4100 310.0000 1.0000
69.4200 313.0000 1.0000
69.4300 330.0000 1.0000
69.4400 325.0000 1.0000
69.4500 305.0000 1.0000
69.4600 274.0000 1.0000
69.4700 297.0000 1.0000
69.4800 310.0000 1.0000
69.4900 314.0000 1.0000
69.5000 303.0000 1.0000
69.5100 286.0000 1.0000
69.5200 299.0000 1.0000
69.5300 323.0000 1.0000
69.5400 302.0000 1.0000
69.5500 305.0000 1.0000
69.5600 302.0000 1.0000
69.5700 296.0000 1.0000
69.5800 313.0000 1.0000
69.5900 321.0000 1.0000
69.6000 294.0000 1.0000
69.6100 303.0000 1.0000
69.6200 291.0000 1.0000
69.6300 311.0000 1.0000
69.6400 275.0000 1.0000
69.6500 318.0000 1.0000
69.6600 280.0000 1.0000
69.6700 292.0000 1.0000
69.6800 323.0000 1.0000
69.6900 299.0000 1.0000
69.7000 291.0000 1.0000
69.7100 284.0000 1.0000
69.7200 303.0000 1.0000
69.7300 306.0000 1.0000
69.7400 281.0000 1.0000
69.7500 286.0000 1.0000
69.7600 296.0000 1.0000
69.7700 291.0000 1.0000
69.7800 310.0000 1.0000
69.7900 293.0000 1.0000
69.8000 270.0000 1.0000
69.8100 308.0000 1.0000
69.8200 274.0000 1.0000
69.8300 331.0000 1.0000
69.8400 288.0000 1.0000
69.8500 291.0000 1.0000
69.8600 302.0000 1.0000
69.8700 335.0000 1.0000
69.8800 299.0000 1.0000
69.8900 292.0000 1.0000
69.9000 309.0000 1.0000
69.9100 277.0000 1.0000
69.9200 332.0000 1.0000
69.9300 300.0000 1.0000
69.9400 306.0000 1.0000
69.9500 280.0000 1.0000
69.9600 307.0000 1.0000
69.9700 268.0000 1.0000
69.9800 311.0000 1.0000
69.9900 263.0000 1.0000
70.0000 285.0000 1.0000
*RAS_INT_END
*RAS_TEMPERATURE_START
*RAS_TEMPERATURE_END
*RAS_DATA_END
