*RAS_DATA_START
*RAS_HEADER_START
*DISP_FMT_X "%.2f"
*DISP_FMT_Y "%.0f"
*DISP_FULLSCALE "13225.0000000000"
*DISP_LINE_COLOR "255.0000000000"
*DISP_LINE_STYLE "0.0000000000"
*DISP_LINE_WIDTH "0.2500000000"
*DISP_NOTE "測定データ-3"
*DISP_OFFSET_Y "0.0000000000"
*DISP_PEAKSEARCH_UNIT_Y "cps"
*DISP_RANGE_BOTTOM "0.0000000000"
*DISP_RANGE_LEFT "20.0000000000"
*DISP_RANGE_LOGCUTOFF "0.0100000000"
*DISP_RANGE_RIGHT "70.0000000000"
*DISP_RANGE_TOP "13225.0000000000"
*DISP_SCALE_MODE_Y "0.0000000000"
*DISP_TAB_NAME "2θ/θ"
*DISP_TITLE_Y "強度"
*DISP_UNIT_Y "cps"
*DISP_WINDOW_NAME "MSG_MACROENGINE"
*FILE_COMMENT " "
*FILE_MD5 ""
*FILE_MEMO " "
*FILE_OPERATOR "Administrator"
*FILE_SAMPLE " "
*FILE_TYPE "RAS_RAW"
*FILE_USERGROUP "システムマネージャ"
*FILE_VERSION "1.0000000000"
*HW_ATTACHMENT_ID "ATT0025"
*HW_ATTACHMENT_NAME "標準|Standard"
*HW_COUNTER_ID-0 "CUT0025"
*HW_COUNTER_ID-1 "CUT0020"
*HW_COUNTER_ID-2 "CUT0020"
*HW_COUNTER_ID-3 "CSL0021"
*HW_COUNTER_ID-4 "CMC0021"
*HW_COUNTER_NAME-0 "D/teX Ultra|D/teX Ultra"
*HW_COUNTER_NAME-1 "None|None"
*HW_COUNTER_NAME-2 "None|None"
*HW_COUNTER_NAME-3 "BBM|BBM"
*HW_COUNTER_NAME-4 "検出器モノクロメータ|Detector monochromator"
*HW_COUNTER_SELECT_NAME "D/teX Ultra|D/teX Ultra"
*HW_GONIOMETER_ID "GON0023"
*HW_GONIOMETER_NAME "SmartLab|SmartLab"
*HW_GONIOMETER_RADIUS-0 "90.0"
*HW_GONIOMETER_RADIUS-1 "114.0"
*HW_GONIOMETER_RADIUS-2 "190.0"
*HW_GONIOMETER_RADIUS-3 "300.0"
*HW_GONIOMETER_RADIUS-4 "187.0"
*HW_GONIOMETER_RADIUS-5 "300.0"
*HW_GONIOMETER_RADIUS-6 "113.0"
*HW_GONIOMETER_RADIUS-7 "331.0"
*HW_I_OPT_ID-0 "CBO0021"
*HW_I_OPT_ID-1 "ICR0023"
*HW_I_OPT_ID-2 "ISL0021"
*HW_I_OPT_ID-3 "ISO0021"
*HW_I_OPT_ID-4 "IAD0021"
*HW_I_OPT_ID-5 "IPR0001"
*HW_I_OPT_NAME-0 "CBOユニット|CBO unit"
*HW_I_OPT_NAME-1 "標準入射光学ユニット|Standard incident optical unit"
*HW_I_OPT_NAME-2 "標準入射スリットボックス|Standard incident slit box"
*HW_I_OPT_NAME-3 "入射平行スリット|Incident parallel slit"
*HW_I_OPT_NAME-4 "長手制限スリット|Length limiting slit"
*HW_I_OPT_NAME-5 "None|None"
*HW_R_ATTENUATER_AUTOMODE "0"
*HW_R_OPT_ID-0 "RSS0021"
*HW_R_OPT_ID-1 "RCR0023"
*HW_R_OPT_ID-2 "RSO0021"
*HW_R_OPT_ID-3 "RRS0021"
*HW_R_OPT_ID-4 "ATN0021"
*HW_R_OPT_ID-5 "RFL0021"
*HW_R_OPT_ID-6 "RAD0021"
*HW_R_OPT_NAME-0 "標準受光スリットボックス1|Standard receiving slit box # 1"
*HW_R_OPT_NAME-1 "標準受光光学ユニット1|Standard receiving unit # 1"
*HW_R_OPT_NAME-2 "標準受光光学ユニット2|Standard receiving optical unit # 2"
*HW_R_OPT_NAME-3 "標準受光スリットボックス2|Standard receiving slit box # 2"
*HW_R_OPT_NAME-4 "標準アッテネータ|Standard Attenuator"
*HW_R_OPT_NAME-5 "Cu Kβ|Cu K-beta"
*HW_R_OPT_NAME-6 "調整用受光スリット|Alignment receiving slit"
*HW_SAMPLE_HOLDER_ID "SMP0023"
*HW_SAMPLE_HOLDER_NAME "標準Zステージ|Standard Z stage"
*HW_XG_CURRENT_MAX "50"
*HW_XG_CURRENT_MIN "2"
*HW_XG_CURRENT_RESOLUTION "1"
*HW_XG_CURRENT_UNIT "mA"
*HW_XG_FOCUS "1mm x 10mm"
*HW_XG_FOCUS_TYPE "Normal"
*HW_XG_ID ""
*HW_XG_NAME "3kW 封入管(ID:1200)|3kW Sealed tube(ID:1200)"
*HW_XG_TARGET_ATOMIC_NUMBER "29.0000000000"
*HW_XG_TARGET_NAME "Cu"
*HW_XG_TYPE "Hermetic"
*HW_XG_VOLTAGE_MAX "60"
*HW_XG_VOLTAGE_MIN "20"
*HW_XG_VOLTAGE_RESOLUTION "1"
*HW_XG_VOLTAGE_UNIT "kV"
*HW_XG_WATT_MAX "1.500"
*HW_XG_WATT_UNIT "kW"
*HW_XG_WAVE_LENGTH_ALPHA1 "1.540593"
*HW_XG_WAVE_LENGTH_ALPHA2 "1.544414"
*HW_XG_WAVE_LENGTH_BETA "1.392250"
*MEAS_COND_AXIS_NAME-0 "2θ/θ"
*MEAS_COND_AXIS_NAME-1 "2θ"
*MEAS_COND_AXIS_NAME-2 "ω"
*MEAS_COND_AXIS_NAME-3 "Z"
*MEAS_COND_AXIS_NAME-4 "2θ/ω"
*MEAS_COND_AXIS_NAME-5 "θs"
*MEAS_COND_AXIS_NAME-6 "θd"
*MEAS_COND_AXIS_NAME-7 "Ts"
*MEAS_COND_AXIS_NAME-8 "CBO選択スリット"
*MEAS_COND_AXIS_NAME-9 "M"
*MEAS_COND_AXIS_NAME-10 "入射平行スリット"
*MEAS_COND_AXIS_NAME-11 "入射スリット"
*MEAS_COND_AXIS_NAME-12 ""
*MEAS_COND_AXIS_NAME-13 "Zs"
*MEAS_COND_AXIS_NAME-14 "入射光学素子"
*MEAS_COND_AXIS_NAME-15 "長手制限スリット"
*MEAS_COND_AXIS_NAME-16 "センタースリット"
*MEAS_COND_AXIS_NAME-17 "フィルター"
*MEAS_COND_AXIS_NAME-18 "受光スリット1"
*MEAS_COND_AXIS_NAME-19 "受光スリット2"
*MEAS_COND_AXIS_NAME-20 "受光光学素子"
*MEAS_COND_AXIS_NAME-21 "受光平行スリット"
*MEAS_COND_AXIS_NAME-22 "調整用受光スリット"
*MEAS_COND_AXIS_NAME-23 ""
*MEAS_COND_AXIS_NAME-24 ""
*MEAS_COND_AXIS_NAME-25 "Zd"
*MEAS_COND_AXIS_NAME-26 "アッテネータ"
*MEAS_COND_AXIS_NAME-27 "検出器モノクロメータ"
*MEAS_COND_AXIS_NAME-28 "モノクロメータスリット"
*MEAS_COND_AXIS_NAME-29 "プライマリビーム"
*MEAS_COND_AXIS_NAME-30 "PHA"
*MEAS_COND_AXIS_NAME_INTERNAL-0 "TwoThetaTheta"
*MEAS_COND_AXIS_NAME_INTERNAL-1 "TwoTheta"
*MEAS_COND_AXIS_NAME_INTERNAL-2 "Omega"
*MEAS_COND_AXIS_NAME_INTERNAL-3 "Z"
*MEAS_COND_AXIS_NAME_INTERNAL-4 "TwoThetaOmega"
*MEAS_COND_AXIS_NAME_INTERNAL-5 "ThetaS"
*MEAS_COND_AXIS_NAME_INTERNAL-6 "ThetaD"
*MEAS_COND_AXIS_NAME_INTERNAL-7 "Ts"
*MEAS_COND_AXIS_NAME_INTERNAL-8 "CBO"
*MEAS_COND_AXIS_NAME_INTERNAL-9 "CBO-M"
*MEAS_COND_AXIS_NAME_INTERNAL-10 "IncidentSollerSlit"
*MEAS_COND_AXIS_NAME_INTERNAL-11 "IncidentSlitBox"
*MEAS_COND_AXIS_NAME_INTERNAL-12 "IncidentSlitBox-_Axis"
*MEAS_COND_AXIS_NAME_INTERNAL-13 "Zs"
*MEAS_COND_AXIS_NAME_INTERNAL-14 "IncidentMonochromator"
*MEAS_COND_AXIS_NAME_INTERNAL-15 "IncidentAxdSlit"
*MEAS_COND_AXIS_NAME_INTERNAL-16 "CenterSlit"
*MEAS_COND_AXIS_NAME_INTERNAL-17 "Filter"
*MEAS_COND_AXIS_NAME_INTERNAL-18 "ReceivingSlitBox1"
*MEAS_COND_AXIS_NAME_INTERNAL-19 "ReceivingSlitBox2"
*MEAS_COND_AXIS_NAME_INTERNAL-20 "ReceivingOptics"
*MEAS_COND_AXIS_NAME_INTERNAL-21 "ReceivingSollerSlit"
*MEAS_COND_AXIS_NAME_INTERNAL-22 "ReceivingAxdSlit"
*MEAS_COND_AXIS_NAME_INTERNAL-23 "ReceivingSlitBox1-_Axis"
*MEAS_COND_AXIS_NAME_INTERNAL-24 "ReceivingSlitBox2-_Axis"
*MEAS_COND_AXIS_NAME_INTERNAL-25 "ReceivingSlitBox2-Zd"
*MEAS_COND_AXIS_NAME_INTERNAL-26 "Attenuator"
*MEAS_COND_AXIS_NAME_INTERNAL-27 "CounterMonochromator"
*MEAS_COND_AXIS_NAME_INTERNAL-28 "CounterSlit"
*MEAS_COND_AXIS_NAME_INTERNAL-29 "IncidentPrimary"
*MEAS_COND_AXIS_NAME_INTERNAL-30 "PHA"
*MEAS_COND_AXIS_NAME_MAGICNO-0 "83951616.0000000000"
*MEAS_COND_AXIS_NAME_MAGICNO-1 "268632064.0000000000"
*MEAS_COND_AXIS_NAME_MAGICNO-2 "268500992.0000000000"
*MEAS_COND_AXIS_NAME_MAGICNO-3 "285278208.0000000000"
*MEAS_COND_AXIS_NAME_MAGICNO-4 "83951616.0000000000"
*MEAS_COND_AXIS_NAME_MAGICNO-5 "131072.0000000000"
*MEAS_COND_AXIS_NAME_MAGICNO-6 "131072.0000000000"
*MEAS_COND_AXIS_NAME_MAGICNO-7 "318898176.0000000000"
*MEAS_COND_AXIS_NAME_MAGICNO-8 "20971521.0000000000"
*MEAS_COND_AXIS_NAME_MAGICNO-9 "285343744.0000000000"
*MEAS_COND_AXIS_NAME_MAGICNO-10 "20971521.0000000000"
*MEAS_COND_AXIS_NAME_MAGICNO-11 "22020097.0000000000"
*MEAS_COND_AXIS_NAME_MAGICNO-12 "25165824.0000000000"
*MEAS_COND_AXIS_NAME_MAGICNO-13 "318898176.0000000000"
*MEAS_COND_AXIS_NAME_MAGICNO-14 "1.0000000000"
*MEAS_COND_AXIS_NAME_MAGICNO-15 "20971521.0000000000"
*MEAS_COND_AXIS_NAME_MAGICNO-16 "20971521.0000000000"
*MEAS_COND_AXIS_NAME_MAGICNO-17 "20971521.0000000000"
*MEAS_COND_AXIS_NAME_MAGICNO-18 "23068673.0000000000"
*MEAS_COND_AXIS_NAME_MAGICNO-19 "23068673.0000000000"
*MEAS_COND_AXIS_NAME_MAGICNO-20 "20971521.0000000000"
*MEAS_COND_AXIS_NAME_MAGICNO-21 "20971521.0000000000"
*MEAS_COND_AXIS_NAME_MAGICNO-22 "20971521.0000000000"
*MEAS_COND_AXIS_NAME_MAGICNO-23 "25165824.0000000000"
*MEAS_COND_AXIS_NAME_MAGICNO-24 "25165824.0000000000"
*MEAS_COND_AXIS_NAME_MAGICNO-25 "285343744.0000000000"
*MEAS_COND_AXIS_NAME_MAGICNO-26 "17301505.0000000000"
*MEAS_COND_AXIS_NAME_MAGICNO-27 "20971521.0000000000"
*MEAS_COND_AXIS_NAME_MAGICNO-28 "20971521.0000000000"
*MEAS_COND_AXIS_NAME_MAGICNO-29 "20971521.0000000000"
*MEAS_COND_AXIS_NAME_MAGICNO-30 "0.0000000000"
*MEAS_COND_AXIS_OFFSET-0 "-"
*MEAS_COND_AXIS_OFFSET-1 "-0.1081000000"
*MEAS_COND_AXIS_OFFSET-2 "0.3758000000"
*MEAS_COND_AXIS_OFFSET-3 "-"
*MEAS_COND_AXIS_OFFSET-4 "-"
*MEAS_COND_AXIS_OFFSET-5 "0.3758000000"
*MEAS_COND_AXIS_OFFSET-6 "-0.4839000000"
*MEAS_COND_AXIS_OFFSET-7 "-"
*MEAS_COND_AXIS_OFFSET-8 "-"
*MEAS_COND_AXIS_OFFSET-9 "-"
*MEAS_COND_AXIS_OFFSET-10 "-"
*MEAS_COND_AXIS_OFFSET-11 "-"
*MEAS_COND_AXIS_OFFSET-12 "-"
*MEAS_COND_AXIS_OFFSET-13 "-"
*MEAS_COND_AXIS_OFFSET-14 "-"
*MEAS_COND_AXIS_OFFSET-15 "-"
*MEAS_COND_AXIS_OFFSET-16 "-"
*MEAS_COND_AXIS_OFFSET-17 "-"
*MEAS_COND_AXIS_OFFSET-18 "-"
*MEAS_COND_AXIS_OFFSET-19 "-"
*MEAS_COND_AXIS_OFFSET-20 "-"
*MEAS_COND_AXIS_OFFSET-21 "-"
*MEAS_COND_AXIS_OFFSET-22 "-"
*MEAS_COND_AXIS_OFFSET-23 "-"
*MEAS_COND_AXIS_OFFSET-24 "-"
*MEAS_COND_AXIS_OFFSET-25 "-"
*MEAS_COND_AXIS_OFFSET-26 "-"
*MEAS_COND_AXIS_OFFSET-27 "-"
*MEAS_COND_AXIS_OFFSET-28 "-"
*MEAS_COND_AXIS_OFFSET-29 "-"
*MEAS_COND_AXIS_OFFSET-30 "-"
*MEAS_COND_AXIS_POSITION-0 "0.0000000000"
*MEAS_COND_AXIS_POSITION-1 "0.0000000000"
*MEAS_COND_AXIS_POSITION-2 "0.0000000000"
*MEAS_COND_AXIS_POSITION-3 "-0.5500000000"
*MEAS_COND_AXIS_POSITION-4 "0.0000000000"
*MEAS_COND_AXIS_POSITION-5 "0.0000000000"
*MEAS_COND_AXIS_POSITION-6 "0.0000000000"
*MEAS_COND_AXIS_POSITION-7 "-0.4278800000"
*MEAS_COND_AXIS_POSITION-8 "BB"
*MEAS_COND_AXIS_POSITION-9 "0.0000000000"
*MEAS_COND_AXIS_POSITION-10 "Soller_slit_5.0deg"
*MEAS_COND_AXIS_POSITION-11 "2/3deg"
*MEAS_COND_AXIS_POSITION-12 "2.2088000000"
*MEAS_COND_AXIS_POSITION-13 "-0.4140600000"
*MEAS_COND_AXIS_POSITION-14 "0.0000000000"
*MEAS_COND_AXIS_POSITION-15 "10.0mm"
*MEAS_COND_AXIS_POSITION-16 "None"
*MEAS_COND_AXIS_POSITION-17 "Cu_K-beta"
*MEAS_COND_AXIS_POSITION-18 "13.000mm"
*MEAS_COND_AXIS_POSITION-19 "13.000mm"
*MEAS_COND_AXIS_POSITION-20 "No_unit"
*MEAS_COND_AXIS_POSITION-21 "Soller_slit_5.0deg"
*MEAS_COND_AXIS_POSITION-22 "None"
*MEAS_COND_AXIS_POSITION-23 "13.0000000000"
*MEAS_COND_AXIS_POSITION-24 "13.0000000000"
*MEAS_COND_AXIS_POSITION-25 "0.0109400000"
*MEAS_COND_AXIS_POSITION-26 "Open"
*MEAS_COND_AXIS_POSITION-27 "None"
*MEAS_COND_AXIS_POSITION-28 "None"
*MEAS_COND_AXIS_POSITION-29 "None"
*MEAS_COND_AXIS_POSITION-30 "38.0000000000"
*MEAS_COND_AXIS_UNIT-0 "deg"
*MEAS_COND_AXIS_UNIT-1 "deg"
*MEAS_COND_AXIS_UNIT-2 "deg"
*MEAS_COND_AXIS_UNIT-3 "mm"
*MEAS_COND_AXIS_UNIT-4 "deg"
*MEAS_COND_AXIS_UNIT-5 "deg"
*MEAS_COND_AXIS_UNIT-6 "deg"
*MEAS_COND_AXIS_UNIT-7 "mm"
*MEAS_COND_AXIS_UNIT-8 ""
*MEAS_COND_AXIS_UNIT-9 "pulse"
*MEAS_COND_AXIS_UNIT-10 ""
*MEAS_COND_AXIS_UNIT-11 ""
*MEAS_COND_AXIS_UNIT-12 "mm"
*MEAS_COND_AXIS_UNIT-13 "mm"
*MEAS_COND_AXIS_UNIT-14 ""
*MEAS_COND_AXIS_UNIT-15 ""
*MEAS_COND_AXIS_UNIT-16 ""
*MEAS_COND_AXIS_UNIT-17 ""
*MEAS_COND_AXIS_UNIT-18 ""
*MEAS_COND_AXIS_UNIT-19 ""
*MEAS_COND_AXIS_UNIT-20 ""
*MEAS_COND_AXIS_UNIT-21 ""
*MEAS_COND_AXIS_UNIT-22 ""
*MEAS_COND_AXIS_UNIT-23 "mm"
*MEAS_COND_AXIS_UNIT-24 "mm"
*MEAS_COND_AXIS_UNIT-25 "mm"
*MEAS_COND_AXIS_UNIT-26 ""
*MEAS_COND_AXIS_UNIT-27 ""
*MEAS_COND_AXIS_UNIT-28 ""
*MEAS_COND_AXIS_UNIT-29 ""
*MEAS_COND_AXIS_UNIT-30 "div"
*MEAS_COND_COUNTER_CNTLOSS_CORR "0.0000000000"
*MEAS_COND_COUNTER_PHABASE "38.0000000000"
*MEAS_COND_COUNTER_PHAWINDOW "16.0000000000"
*MEAS_COND_COUNTER_PHA_UNIT "div"
*MEAS_COND_COUNTER_TAUDIFF "30.0000000000"
*MEAS_COND_COUNTER_TAUINT "0.0000000000"
*MEAS_COND_IRRADIATION_MODE "OFF"
*MEAS_COND_IRRADIATION_WIDTH ""
*MEAS_COND_OPT_ATTR "集中法"
*MEAS_COND_OPT_NAME "@集中法"
*MEAS_COND_UNSYMMETRIC_MODE "OFF"
*MEAS_COND_XG_CURRENT "30.0000000000"
*MEAS_COND_XG_VOLTAGE "40.0000000000"
*MEAS_COND_XG_WAVE_TYPE "Ka"
*MEAS_DATA_COUNT "5001.0000000000"
*MEAS_SCAN_AXIS_X "2θ/θ"
*MEAS_SCAN_AXIS_X_INTERNAL "TwoThetaTheta"
*MEAS_SCAN_END_TIME "08/03/21 12:23:39"
*MEAS_SCAN_MODE "CONTINUOUS"
*MEAS_SCAN_MONITOR "0"
*MEAS_SCAN_RESOLUTION_X "0.0002"
*MEAS_SCAN_SPEED "2.5"
*MEAS_SCAN_SPEED_UNIT "deg/min"
*MEAS_SCAN_START "20.0000000000"
*MEAS_SCAN_START_TIME "08/03/21 12:02:15"
*MEAS_SCAN_STEP "0.0100000000"
*MEAS_SCAN_STOP "70.0000000000"
*MEAS_SCAN_UNIT_X "deg"
*MEAS_SCAN_UNIT_Y "counts"
*RAS_HEADER_END
*RAS_INT_START
20.0000 628.0000 1.0000
20.0100 675.0000 1.0000
20.0200 635.0000 1.0000
20.0300 674.0000 1.0000
20.0400 647.0000 1.0000
20.0500 667.0000 1.0000
20.0600 608.0000 1.0000
20.0700 649.0000 1.0000
20.0800 615.0000 1.0000
20.0900 616.0000 1.0000
20.1000 580.0000 1.0000
20.1100 631.0000 1.0000
20.1200 648.0000 1.0000
20.1300 655.0000 1.0000
20.1400 659.0000 1.0000
20.1500 608.0000 1.0000
20.1600 626.0000 1.0000
20.1700 650.0000 1.0000
20.1800 646.0000 1.0000
20.1900 659.0000 1.0000
20.2000 671.0000 1.0000
20.2100 640.0000 1.0000
20.2200 633.0000 1.0000
20.2300 634.0000 1.0000
20.2400 619.0000 1.0000
20.2500 609.0000 1.0000
20.2600 621.0000 1.0000
20.2700 623.0000 1.0000
20.2800 627.0000 1.0000
20.2900 620.0000 1.0000
20.3000 643.0000 1.0000
20.3100 626.0000 1.0000
20.3200 605.0000 1.0000
20.3300 632.0000 1.0000
20.3400 568.0000 1.0000
20.3500 632.0000 1.0000
20.3600 637.0000 1.0000
20.3700 646.0000 1.0000
20.3800 605.0000 1.0000
20.3900 662.0000 1.0000
20.4000 659.0000 1.0000
20.4100 663.0000 1.0000
20.4200 675.0000 1.0000
20.4300 634.0000 1.0000
20.4400 641.0000 1.0000
20.4500 632.0000 1.0000
20.4600 638.0000 1.0000
20.4700 627.0000 1.0000
20.4800 647.0000 1.0000
20.4900 635.0000 1.0000
20.5000 637.0000 1.0000
20.5100 614.0000 1.0000
20.5200 626.0000 1.0000
20.5300 645.0000 1.0000
20.5400 653.0000 1.0000
20.5500 636.0000 1.0000
20.5600 655.0000 1.0000
20.5700 611.0000 1.0000
20.5800 667.0000 1.0000
20.5900 624.0000 1.0000
20.6000 675.0000 1.0000
20.6100 622.0000 1.0000
20.6200 642.0000 1.0000
20.6300 648.0000 1.0000
20.6400 631.0000 1.0000
20.6500 634.0000 1.0000
20.6600 642.0000 1.0000
20.6700 689.0000 1.0000
20.6800 644.0000 1.0000
20.6900 624.0000 1.0000
20.7000 618.0000 1.0000
20.7100 657.0000 1.0000
20.7200 638.0000 1.0000
20.7300 627.0000 1.0000
20.7400 642.0000 1.0000
20.7500 657.0000 1.0000
20.7600 649.0000 1.0000
20.7700 659.0000 1.0000
20.7800 654.0000 1.0000
20.7900 625.0000 1.0000
20.8000 654.0000 1.0000
20.8100 621.0000 1.0000
20.8200 640.0000 1.0000
20.8300 618.0000 1.0000
20.8400 637.0000 1.0000
20.8500 634.0000 1.0000
20.8600 656.0000 1.0000
20.8700 643.0000 1.0000
20.8800 646.0000 1.0000
20.8900 657.0000 1.0000
20.9000 662.0000 1.0000
20.9100 628.0000 1.0000
20.9200 650.0000 1.0000
20.9300 629.0000 1.0000
20.9400 639.0000 1.0000
20.9500 626.0000 1.0000
20.9600 668.0000 1.0000
20.9700 659.0000 1.0000
20.9800 656.0000 1.0000
20.9900 609.0000 1.0000
21.0000 618.0000 1.0000
21.0100 672.0000 1.0000
21.0200 643.0000 1.0000
21.0300 633.0000 1.0000
21.0400 649.0000 1.0000
21.0500 690.0000 1.0000
21.0600 661.0000 1.0000
21.0700 629.0000 1.0000
21.0800 582.0000 1.0000
21.0900 640.0000 1.0000
21.1000 624.0000 1.0000
21.1100 643.0000 1.0000
21.1200 626.0000 1.0000
21.1300 635.0000 1.0000
21.1400 629.0000 1.0000
21.1500 668.0000 1.0000
21.1600 695.0000 1.0000
21.1700 648.0000 1.0000
21.1800 641.0000 1.0000
21.1900 587.0000 1.0000
21.2000 668.0000 1.0000
21.2100 626.0000 1.0000
21.2200 649.0000 1.0000
21.2300 668.0000 1.0000
21.2400 644.0000 1.0000
21.2500 668.0000 1.0000
21.2600 645.0000 1.0000
21.2700 648.0000 1.0000
21.2800 691.0000 1.0000
21.2900 642.0000 1.0000
21.3000 642.0000 1.0000
21.3100 666.0000 1.0000
21.3200 638.0000 1.0000
21.3300 639.0000 1.0000
21.3400 636.0000 1.0000
21.3500 639.0000 1.0000
21.3600 599.0000 1.0000
21.3700 637.0000 1.0000
21.3800 655.0000 1.0000
21.3900 673.0000 1.0000
21.4000 656.0000 1.0000
21.4100 648.0000 1.0000
21.4200 639.0000 1.0000
21.4300 662.0000 1.0000
21.4400 626.0000 1.0000
21.4500 641.0000 1.0000
21.4600 638.0000 1.0000
21.4700 603.0000 1.0000
21.4800 639.0000 1.0000
21.4900 673.0000 1.0000
21.5000 683.0000 1.0000
21.5100 628.0000 1.0000
21.5200 651.0000 1.0000
21.5300 661.0000 1.0000
21.5400 659.0000 1.0000
21.5500 705.0000 1.0000
21.5600 642.0000 1.0000
21.5700 632.0000 1.0000
21.5800 626.0000 1.0000
21.5900 653.0000 1.0000
21.6000 643.0000 1.0000
21.6100 674.0000 1.0000
21.6200 627.0000 1.0000
21.6300 619.0000 1.0000
21.6400 626.0000 1.0000
21.6500 611.0000 1.0000
21.6600 627.0000 1.0000
21.6700 611.0000 1.0000
21.6800 650.0000 1.0000
21.6900 648.0000 1.0000
21.7000 637.0000 1.0000
21.7100 650.0000 1.0000
21.7200 667.0000 1.0000
21.7300 637.0000 1.0000
21.7400 624.0000 1.0000
21.7500 640.0000 1.0000
21.7600 644.0000 1.0000
21.7700 643.0000 1.0000
21.7800 672.0000 1.0000
21.7900 648.0000 1.0000
21.8000 655.0000 1.0000
21.8100 626.0000 1.0000
21.8200 617.0000 1.0000
21.8300 682.0000 1.0000
21.8400 668.0000 1.0000
21.8500 651.0000 1.0000
21.8600 643.0000 1.0000
21.8700 633.0000 1.0000
21.8800 634.0000 1.0000
21.8900 607.0000 1.0000
21.9000 650.0000 1.0000
21.9100 644.0000 1.0000
21.9200 648.0000 1.0000
21.9300 603.0000 1.0000
21.9400 668.0000 1.0000
21.9500 682.0000 1.0000
21.9600 659.0000 1.0000
21.9700 615.0000 1.0000
21.9800 660.0000 1.0000
21.9900 639.0000 1.0000
22.0000 663.0000 1.0000
22.0100 663.0000 1.0000
22.0200 688.0000 1.0000
22.0300 611.0000 1.0000
22.0400 648.0000 1.0000
22.0500 635.0000 1.0000
22.0600 669.0000 1.0000
22.0700 647.0000 1.0000
22.0800 668.0000 1.0000
22.0900 672.0000 1.0000
22.1000 645.0000 1.0000
22.1100 673.0000 1.0000
22.1200 648.0000 1.0000
22.1300 661.0000 1.0000
22.1400 663.0000 1.0000
22.1500 621.0000 1.0000
22.1600 651.0000 1.0000
22.1700 640.0000 1.0000
22.1800 703.0000 1.0000
22.1900 658.0000 1.0000
22.2000 681.0000 1.0000
22.2100 678.0000 1.0000
22.2200 654.0000 1.0000
22.2300 627.0000 1.0000
22.2400 609.0000 1.0000
22.2500 622.0000 1.0000
22.2600 662.0000 1.0000
22.2700 627.0000 1.0000
22.2800 625.0000 1.0000
22.2900 634.0000 1.0000
22.3000 612.0000 1.0000
22.3100 679.0000 1.0000
22.3200 649.0000 1.0000
22.3300 647.0000 1.0000
22.3400 644.0000 1.0000
22.3500 657.0000 1.0000
22.3600 651.0000 1.0000
22.3700 662.0000 1.0000
22.3800 638.0000 1.0000
22.3900 670.0000 1.0000
22.4000 651.0000 1.0000
22.4100 633.0000 1.0000
22.4200 648.0000 1.0000
22.4300 669.0000 1.0000
22.4400 654.0000 1.0000
22.4500 672.0000 1.0000
22.4600 670.0000 1.0000
22.4700 648.0000 1.0000
22.4800 677.0000 1.0000
22.4900 650.0000 1.0000
22.5000 606.0000 1.0000
22.5100 622.0000 1.0000
22.5200 651.0000 1.0000
22.5300 692.0000 1.0000
22.5400 687.0000 1.0000
22.5500 691.0000 1.0000
22.5600 698.0000 1.0000
22.5700 647.0000 1.0000
22.5800 638.0000 1.0000
22.5900 670.0000 1.0000
22.6000 697.0000 1.0000
22.6100 660.0000 1.0000
22.6200 679.0000 1.0000
22.6300 640.0000 1.0000
22.6400 660.0000 1.0000
22.6500 668.0000 1.0000
22.6600 641.0000 1.0000
22.6700 686.0000 1.0000
22.6800 663.0000 1.0000
22.6900 673.0000 1.0000
22.7000 661.0000 1.0000
22.7100 674.0000 1.0000
22.7200 701.0000 1.0000
22.7300 633.0000 1.0000
22.7400 629.0000 1.0000
22.7500 648.0000 1.0000
22.7600 694.0000 1.0000
22.7700 666.0000 1.0000
22.7800 644.0000 1.0000
22.7900 641.0000 1.0000
22.8000 637.0000 1.0000
22.8100 659.0000 1.0000
22.8200 652.0000 1.0000
22.8300 679.0000 1.0000
22.8400 653.0000 1.0000
22.8500 679.0000 1.0000
22.8600 643.0000 1.0000
22.8700 662.0000 1.0000
22.8800 695.0000 1.0000
22.8900 643.0000 1.0000
22.9000 661.0000 1.0000
22.9100 656.0000 1.0000
22.9200 654.0000 1.0000
22.9300 653.0000 1.0000
22.9400 680.0000 1.0000
22.9500 676.0000 1.0000
22.9600 671.0000 1.0000
22.9700 670.0000 1.0000
22.9800 616.0000 1.0000
22.9900 705.0000 1.0000
23.0000 631.0000 1.0000
23.0100 686.0000 1.0000
23.0200 680.0000 1.0000
23.0300 642.0000 1.0000
23.0400 685.0000 1.0000
23.0500 716.0000 1.0000
23.0600 638.0000 1.0000
23.0700 669.0000 1.0000
23.0800 636.0000 1.0000
23.0900 699.0000 1.0000
23.1000 668.0000 1.0000
23.1100 689.0000 1.0000
23.1200 650.0000 1.0000
23.1300 680.0000 1.0000
23.1400 648.0000 1.0000
23.1500 650.0000 1.0000
23.1600 673.0000 1.0000
23.1700 683.0000 1.0000
23.1800 655.0000 1.0000
23.1900 660.0000 1.0000
23.2000 694.0000 1.0000
23.2100 660.0000 1.0000
23.2200 688.0000 1.0000
23.2300 661.0000 1.0000
23.2400 628.0000 1.0000
23.2500 618.0000 1.0000
23.2600 651.0000 1.0000
23.2700 681.0000 1.0000
23.2800 724.0000 1.0000
23.2900 652.0000 1.0000
23.3000 608.0000 1.0000
23.3100 659.0000 1.0000
23.3200 650.0000 1.0000
23.3300 691.0000 1.0000
23.3400 681.0000 1.0000
23.3500 680.0000 1.0000
23.3600 669.0000 1.0000
23.3700 662.0000 1.0000
23.3800 658.0000 1.0000
23.3900 651.0000 1.0000
23.4000 698.0000 1.0000
23.4100 645.0000 1.0000
23.4200 635.0000 1.0000
23.4300 667.0000 1.0000
23.4400 693.0000 1.0000
23.4500 657.0000 1.0000
23.4600 644.0000 1.0000
23.4700 656.0000 1.0000
23.4800 637.0000 1.0000
23.4900 655.0000 1.0000
23.5000 645.0000 1.0000
23.5100 671.0000 1.0000
23.5200 632.0000 1.0000
23.5300 633.0000 1.0000
23.5400 700.0000 1.0000
23.5500 702.0000 1.0000
23.5600 692.0000 1.0000
23.5700 709.0000 1.0000
23.5800 689.0000 1.0000
23.5900 673.0000 1.0000
23.6000 676.0000 1.0000
23.6100 688.0000 1.0000
23.6200 634.0000 1.0000
23.6300 678.0000 1.0000
23.6400 671.0000 1.0000
23.6500 618.0000 1.0000
23.6600 670.0000 1.0000
23.6700 682.0000 1.0000
23.6800 686.0000 1.0000
23.6900 680.0000 1.0000
23.7000 671.0000 1.0000
23.7100 653.0000 1.0000
23.7200 696.0000 1.0000
23.7300 628.0000 1.0000
23.7400 638.0000 1.0000
23.7500 699.0000 1.0000
23.7600 638.0000 1.0000
23.7700 654.0000 1.0000
23.7800 680.0000 1.0000
23.7900 665.0000 1.0000
23.8000 664.0000 1.0000
23.8100 681.0000 1.0000
23.8200 681.0000 1.0000
23.8300 659.0000 1.0000
23.8400 647.0000 1.0000
23.8500 676.0000 1.0000
23.8600 683.0000 1.0000
23.8700 656.0000 1.0000
23.8800 669.0000 1.0000
23.8900 691.0000 1.0000
23.9000 678.0000 1.0000
23.9100 654.0000 1.0000
23.9200 670.0000 1.0000
23.9300 645.0000 1.0000
23.9400 664.0000 1.0000
23.9500 687.0000 1.0000
23.9600 686.0000 1.0000
23.9700 680.0000 1.0000
23.9800 662.0000 1.0000
23.9900 635.0000 1.0000
24.0000 726.0000 1.0000
24.0100 648.0000 1.0000
24.0200 686.0000 1.0000
24.0300 663.0000 1.0000
24.0400 658.0000 1.0000
24.0500 648.0000 1.0000
24.0600 701.0000 1.0000
24.0700 673.0000 1.0000
24.0800 654.0000 1.0000
24.0900 689.0000 1.0000
24.1000 654.0000 1.0000
24.1100 633.0000 1.0000
24.1200 694.0000 1.0000
24.1300 673.0000 1.0000
24.1400 652.0000 1.0000
24.1500 682.0000 1.0000
24.1600 667.0000 1.0000
24.1700 658.0000 1.0000
24.1800 662.0000 1.0000
24.1900 711.0000 1.0000
24.2000 674.0000 1.0000
24.2100 652.0000 1.0000
24.2200 687.0000 1.0000
24.2300 647.0000 1.0000
24.2400 686.0000 1.0000
24.2500 664.0000 1.0000
24.2600 687.0000 1.0000
24.2700 665.0000 1.0000
24.2800 646.0000 1.0000
24.2900 703.0000 1.0000
24.3000 644.0000 1.0000
24.3100 681.0000 1.0000
24.3200 695.0000 1.0000
24.3300 693.0000 1.0000
24.3400 713.0000 1.0000
24.3500 682.0000 1.0000
24.3600 659.0000 1.0000
24.3700 652.0000 1.0000
24.3800 652.0000 1.0000
24.3900 637.0000 1.0000
24.4000 706.0000 1.0000
24.4100 703.0000 1.0000
24.4200 664.0000 1.0000
24.4300 701.0000 1.0000
24.4400 715.0000 1.0000
24.4500 645.0000 1.0000
24.4600 671.0000 1.0000
24.4700 709.0000 1.0000
24.4800 699.0000 1.0000
24.4900 672.0000 1.0000
24.5000 684.0000 1.0000
24.5100 698.0000 1.0000
24.5200 664.0000 1.0000
24.5300 713.0000 1.0000
24.5400 704.0000 1.0000
24.5500 707.0000 1.0000
24.5600 712.0000 1.0000
24.5700 691.0000 1.0000
24.5800 700.0000 1.0000
24.5900 713.0000 1.0000
24.6000 709.0000 1.0000
24.6100 685.0000 1.0000
24.6200 670.0000 1.0000
24.6300 675.0000 1.0000
24.6400 671.0000 1.0000
24.6500 695.0000 1.0000
24.6600 695.0000 1.0000
24.6700 705.0000 1.0000
24.6800 721.0000 1.0000
24.6900 688.0000 1.0000
24.7000 706.0000 1.0000
24.7100 678.0000 1.0000
24.7200 730.0000 1.0000
24.7300 705.0000 1.0000
24.7400 709.0000 1.0000
24.7500 696.0000 1.0000
24.7600 650.0000 1.0000
24.7700 674.0000 1.0000
24.7800 667.0000 1.0000
24.7900 671.0000 1.0000
24.8000 718.0000 1.0000
24.8100 698.0000 1.0000
24.8200 678.0000 1.0000
24.8300 687.0000 1.0000
24.8400 744.0000 1.0000
24.8500 671.0000 1.0000
24.8600 711.0000 1.0000
24.8700 741.0000 1.0000
24.8800 708.0000 1.0000
24.8900 695.0000 1.0000
24.9000 680.0000 1.0000
24.9100 718.0000 1.0000
24.9200 705.0000 1.0000
24.9300 715.0000 1.0000
24.9400 703.0000 1.0000
24.9500 717.0000 1.0000
24.9600 746.0000 1.0000
24.9700 710.0000 1.0000
24.9800 715.0000 1.0000
24.9900 730.0000 1.0000
25.0000 716.0000 1.0000
25.0100 700.0000 1.0000
25.0200 686.0000 1.0000
25.0300 725.0000 1.0000
25.0400 688.0000 1.0000
25.0500 700.0000 1.0000
25.0600 697.0000 1.0000
25.0700 686.0000 1.0000
25.0800 688.0000 1.0000
25.0900 719.0000 1.0000
25.1000 715.0000 1.0000
25.1100 690.0000 1.0000
25.1200 721.0000 1.0000
25.1300 695.0000 1.0000
25.1400 698.0000 1.0000
25.1500 664.0000 1.0000
25.1600 646.0000 1.0000
25.1700 700.0000 1.0000
25.1800 665.0000 1.0000
25.1900 700.0000 1.0000
25.2000 659.0000 1.0000
25.2100 701.0000 1.0000
25.2200 717.0000 1.0000
25.2300 682.0000 1.0000
25.2400 683.0000 1.0000
25.2500 693.0000 1.0000
25.2600 708.0000 1.0000
25.2700 686.0000 1.0000
25.2800 705.0000 1.0000
25.2900 712.0000 1.0000
25.3000 694.0000 1.0000
25.3100 725.0000 1.0000
25.3200 668.0000 1.0000
25.3300 689.0000 1.0000
25.3400 722.0000 1.0000
25.3500 684.0000 1.0000
25.3600 702.0000 1.0000
25.3700 713.0000 1.0000
25.3800 718.0000 1.0000
25.3900 627.0000 1.0000
25.4000 616.0000 1.0000
25.4100 690.0000 1.0000
25.4200 712.0000 1.0000
25.4300 657.0000 1.0000
25.4400 651.0000 1.0000
25.4500 693.0000 1.0000
25.4600 682.0000 1.0000
25.4700 680.0000 1.0000
25.4800 720.0000 1.0000
25.4900 661.0000 1.0000
25.5000 735.0000 1.0000
25.5100 696.0000 1.0000
25.5200 658.0000 1.0000
25.5300 680.0000 1.0000
25.5400 692.0000 1.0000
25.5500 726.0000 1.0000
25.5600 697.0000 1.0000
25.5700 698.0000 1.0000
25.5800 710.0000 1.0000
25.5900 686.0000 1.0000
25.6000 686.0000 1.0000
25.6100 630.0000 1.0000
25.6200 681.0000 1.0000
25.6300 660.0000 1.0000
25.6400 743.0000 1.0000
25.6500 722.0000 1.0000
25.6600 645.0000 1.0000
25.6700 681.0000 1.0000
25.6800 692.0000 1.0000
25.6900 711.0000 1.0000
25.7000 704.0000 1.0000
25.7100 722.0000 1.0000
25.7200 694.0000 1.0000
25.7300 716.0000 1.0000
25.7400 698.0000 1.0000
25.7500 659.0000 1.0000
25.7600 677.0000 1.0000
25.7700 708.0000 1.0000
25.7800 721.0000 1.0000
25.7900 680.0000 1.0000
25.8000 707.0000 1.0000
25.8100 668.0000 1.0000
25.8200 684.0000 1.0000
25.8300 670.0000 1.0000
25.8400 697.0000 1.0000
25.8500 700.0000 1.0000
25.8600 765.0000 1.0000
25.8700 675.0000 1.0000
25.8800 669.0000 1.0000
25.8900 675.0000 1.0000
25.9000 675.0000 1.0000
25.9100 713.0000 1.0000
25.9200 648.0000 1.0000
25.9300 698.0000 1.0000
25.9400 715.0000 1.0000
25.9500 633.0000 1.0000
25.9600 692.0000 1.0000
25.9700 643.0000 1.0000
25.9800 687.0000 1.0000
25.9900 717.0000 1.0000
26.0000 680.0000 1.0000
26.0100 656.0000 1.0000
26.0200 691.0000 1.0000
26.0300 681.0000 1.0000
26.0400 700.0000 1.0000
26.0500 718.0000 1.0000
26.0600 674.0000 1.0000
26.0700 697.0000 1.0000
26.0800 709.0000 1.0000
26.0900 678.0000 1.0000
26.1000 692.0000 1.0000
26.1100 675.0000 1.0000
26.1200 684.0000 1.0000
26.1300 694.0000 1.0000
26.1400 690.0000 1.0000
26.1500 693.0000 1.0000
26.1600 671.0000 1.0000
26.1700 692.0000 1.0000
26.1800 687.0000 1.0000
26.1900 691.0000 1.0000
26.2000 711.0000 1.0000
26.2100 688.0000 1.0000
26.2200 686.0000 1.0000
26.2300 693.0000 1.0000
26.2400 717.0000 1.0000
26.2500 671.0000 1.0000
26.2600 718.0000 1.0000
26.2700 704.0000 1.0000
26.2800 689.0000 1.0000
26.2900 664.0000 1.0000
26.3000 752.0000 1.0000
26.3100 717.0000 1.0000
26.3200 690.0000 1.0000
26.3300 700.0000 1.0000
26.3400 712.0000 1.0000
26.3500 734.0000 1.0000
26.3600 693.0000 1.0000
26.3700 708.0000 1.0000
26.3800 724.0000 1.0000
26.3900 703.0000 1.0000
26.4000 707.0000 1.0000
26.4100 722.0000 1.0000
26.4200 731.0000 1.0000
26.4300 739.0000 1.0000
26.4400 741.0000 1.0000
26.4500 718.0000 1.0000
26.4600 661.0000 1.0000
26.4700 649.0000 1.0000
26.4800 726.0000 1.0000
26.4900 719.0000 1.0000
26.5000 703.0000 1.0000
26.5100 703.0000 1.0000
26.5200 679.0000 1.0000
26.5300 730.0000 1.0000
26.5400 733.0000 1.0000
26.5500 666.0000 1.0000
26.5600 726.0000 1.0000
26.5700 735.0000 1.0000
26.5800 700.0000 1.0000
26.5900 716.0000 1.0000
26.6000 722.0000 1.0000
26.6100 734.0000 1.0000
26.6200 708.0000 1.0000
26.6300 734.0000 1.0000
26.6400 754.0000 1.0000
26.6500 790.0000 1.0000
26.6600 727.0000 1.0000
26.6700 677.0000 1.0000
26.6800 770.0000 1.0000
26.6900 774.0000 1.0000
26.7000 718.0000 1.0000
26.7100 727.0000 1.0000
26.7200 712.0000 1.0000
26.7300 684.0000 1.0000
26.7400 728.0000 1.0000
26.7500 734.0000 1.0000
26.7600 746.0000 1.0000
26.7700 738.0000 1.0000
26.7800 756.0000 1.0000
26.7900 764.0000 1.0000
26.8000 790.0000 1.0000
26.8100 779.0000 1.0000
26.8200 763.0000 1.0000
26.8300 774.0000 1.0000
26.8400 800.0000 1.0000
26.8500 778.0000 1.0000
26.8600 798.0000 1.0000
26.8700 783.0000 1.0000
26.8800 782.0000 1.0000
26.8900 816.0000 1.0000
26.9000 810.0000 1.0000
26.9100 821.0000 1.0000
26.9200 788.0000 1.0000
26.9300 802.0000 1.0000
26.9400 857.0000 1.0000
26.9500 848.0000 1.0000
26.9600 871.0000 1.0000
26.9700 851.0000 1.0000
26.9800 847.0000 1.0000
26.9900 899.0000 1.0000
27.0000 895.0000 1.0000
27.0100 900.0000 1.0000
27.0200 937.0000 1.0000
27.0300 958.0000 1.0000
27.0400 943.0000 1.0000
27.0500 991.0000 1.0000
27.0600 1002.0000 1.0000
27.0700 1057.0000 1.0000
27.0800 1057.0000 1.0000
27.0900 1092.0000 1.0000
27.1000 1150.0000 1.0000
27.1100 1130.0000 1.0000
27.1200 1128.0000 1.0000
27.1300 1172.0000 1.0000
27.1400 1268.0000 1.0000
27.1500 1338.0000 1.0000
27.1600 1352.0000 1.0000
27.1700 1426.0000 1.0000
27.1800 1527.0000 1.0000
27.1900 1574.0000 1.0000
27.2000 1663.0000 1.0000
27.2100 1738.0000 1.0000
27.2200 1797.0000 1.0000
27.2300 1960.0000 1.0000
27.2400 1981.0000 1.0000
27.2500 2055.0000 1.0000
27.2600 2157.0000 1.0000
27.2700 2256.0000 1.0000
27.2800 2427.0000 1.0000
27.2900 2481.0000 1.0000
27.3000 2546.0000 1.0000
27.3100 2617.0000 1.0000
27.3200 2606.0000 1.0000
27.3300 2645.0000 1.0000
27.3400 2483.0000 1.0000
27.3500 2523.0000 1.0000
27.3600 2557.0000 1.0000
27.3700 2432.0000 1.0000
27.3800 2354.0000 1.0000
27.3900 2158.0000 1.0000
27.4000 2054.0000 1.0000
27.4100 1997.0000 1.0000
27.4200 1873.0000 1.0000
27.4300 1784.0000 1.0000
27.4400 1651.0000 1.0000
27.4500 1598.0000 1.0000
27.4600 1447.0000 1.0000
27.4700 1401.0000 1.0000
27.4800 1379.0000 1.0000
27.4900 1352.0000 1.0000
27.5000 1265.0000 1.0000
27.5100 1221.0000 1.0000
27.5200 1179.0000 1.0000
27.5300 1137.0000 1.0000
27.5400 1115.0000 1.0000
27.5500 1054.0000 1.0000
27.5600 1068.0000 1.0000
27.5700 1021.0000 1.0000
27.5800 979.0000 1.0000
27.5900 942.0000 1.0000
27.6000 946.0000 1.0000
27.6100 950.0000 1.0000
27.6200 899.0000 1.0000
27.6300 905.0000 1.0000
27.6400 887.0000 1.0000
27.6500 851.0000 1.0000
27.6600 858.0000 1.0000
27.6700 823.0000 1.0000
27.6800 852.0000 1.0000
27.6900 847.0000 1.0000
27.7000 808.0000 1.0000
27.7100 807.0000 1.0000
27.7200 802.0000 1.0000
27.7300 791.0000 1.0000
27.7400 796.0000 1.0000
27.7500 851.0000 1.0000
27.7600 774.0000 1.0000
27.7700 769.0000 1.0000
27.7800 787.0000 1.0000
27.7900 744.0000 1.0000
27.8000 737.0000 1.0000
27.8100 754.0000 1.0000
27.8200 702.0000 1.0000
27.8300 726.0000 1.0000
27.8400 715.0000 1.0000
27.8500 766.0000 1.0000
27.8600 776.0000 1.0000
27.8700 686.0000 1.0000
27.8800 754.0000 1.0000
27.8900 713.0000 1.0000
27.9000 734.0000 1.0000
27.9100 741.0000 1.0000
27.9200 708.0000 1.0000
27.9300 725.0000 1.0000
27.9400 716.0000 1.0000
27.9500 737.0000 1.0000
27.9600 717.0000 1.0000
27.9700 690.0000 1.0000
27.9800 707.0000 1.0000
27.9900 719.0000 1.0000
28.0000 696.0000 1.0000
28.0100 728.0000 1.0000
28.0200 725.0000 1.0000
28.0300 710.0000 1.0000
28.0400 687.0000 1.0000
28.0500 695.0000 1.0000
28.0600 734.0000 1.0000
28.0700 717.0000 1.0000
28.0800 721.0000 1.0000
28.0900 695.0000 1.0000
28.1000 672.0000 1.0000
28.1100 679.0000 1.0000
28.1200 691.0000 1.0000
28.1300 716.0000 1.0000
28.1400 697.0000 1.0000
28.1500 637.0000 1.0000
28.1600 665.0000 1.0000
28.1700 660.0000 1.0000
28.1800 685.0000 1.0000
28.1900 700.0000 1.0000
28.2000 689.0000 1.0000
28.2100 692.0000 1.0000
28.2200 688.0000 1.0000
28.2300 667.0000 1.0000
28.2400 660.0000 1.0000
28.2500 697.0000 1.0000
28.2600 680.0000 1.0000
28.2700 666.0000 1.0000
28.2800 694.0000 1.0000
28.2900 671.0000 1.0000
28.3000 664.0000 1.0000
28.3100 646.0000 1.0000
28.3200 684.0000 1.0000
28.3300 613.0000 1.0000
28.3400 653.0000 1.0000
28.3500 685.0000 1.0000
28.3600 671.0000 1.0000
28.3700 679.0000 1.0000
28.3800 652.0000 1.0000
28.3900 637.0000 1.0000
28.4000 666.0000 1.0000
28.4100 665.0000 1.0000
28.4200 649.0000 1.0000
28.4300 647.0000 1.0000
28.4400 653.0000 1.0000
28.4500 669.0000 1.0000
28.4600 634.0000 1.0000
28.4700 656.0000 1.0000
28.4800 655.0000 1.0000
28.4900 680.0000 1.0000
28.5000 672.0000 1.0000
28.5100 670.0000 1.0000
28.5200 699.0000 1.0000
28.5300 664.0000 1.0000
28.5400 657.0000 1.0000
28.5500 629.0000 1.0000
28.5600 681.0000 1.0000
28.5700 662.0000 1.0000
28.5800 667.0000 1.0000
28.5900 643.0000 1.0000
28.6000 681.0000 1.0000
28.6100 651.0000 1.0000
28.6200 657.0000 1.0000
28.6300 660.0000 1.0000
28.6400 661.0000 1.0000
28.6500 651.0000 1.0000
28.6600 638.0000 1.0000
28.6700 615.0000 1.0000
28.6800 636.0000 1.0000
28.6900 618.0000 1.0000
28.7000 624.0000 1.0000
28.7100 659.0000 1.0000
28.7200 653.0000 1.0000
28.7300 696.0000 1.0000
28.7400 618.0000 1.0000
28.7500 653.0000 1.0000
28.7600 676.0000 1.0000
28.7700 662.0000 1.0000
28.7800 644.0000 1.0000
28.7900 630.0000 1.0000
28.8000 604.0000 1.0000
28.8100 662.0000 1.0000
28.8200 643.0000 1.0000
28.8300 613.0000 1.0000
28.8400 664.0000 1.0000
28.8500 669.0000 1.0000
28.8600 661.0000 1.0000
28.8700 625.0000 1.0000
28.8800 648.0000 1.0000
28.8900 646.0000 1.0000
28.9000 622.0000 1.0000
28.9100 677.0000 1.0000
28.9200 635.0000 1.0000
28.9300 682.0000 1.0000
28.9400 650.0000 1.0000
28.9500 605.0000 1.0000
28.9600 646.0000 1.0000
28.9700 631.0000 1.0000
28.9800 615.0000 1.0000
28.9900 634.0000 1.0000
29.0000 636.0000 1.0000
29.0100 651.0000 1.0000
29.0200 618.0000 1.0000
29.0300 605.0000 1.0000
29.0400 595.0000 1.0000
29.0500 670.0000 1.0000
29.0600 648.0000 1.0000
29.0700 656.0000 1.0000
29.0800 649.0000 1.0000
29.0900 626.0000 1.0000
29.1000 614.0000 1.0000
29.1100 663.0000 1.0000
29.1200 682.0000 1.0000
29.1300 632.0000 1.0000
29.1400 640.0000 1.0000
29.1500 613.0000 1.0000
29.1600 650.0000 1.0000
29.1700 635.0000 1.0000
29.1800 675.0000 1.0000
29.1900 656.0000 1.0000
29.2000 607.0000 1.0000
29.2100 596.0000 1.0000
29.2200 634.0000 1.0000
29.2300 634.0000 1.0000
29.2400 664.0000 1.0000
29.2500 630.0000 1.0000
29.2600 613.0000 1.0000
29.2700 677.0000 1.0000
29.2800 663.0000 1.0000
29.2900 661.0000 1.0000
29.3000 632.0000 1.0000
29.3100 646.0000 1.0000
29.3200 607.0000 1.0000
29.3300 608.0000 1.0000
29.3400 643.0000 1.0000
29.3500 639.0000 1.0000
29.3600 594.0000 1.0000
29.3700 598.0000 1.0000
29.3800 629.0000 1.0000
29.3900 594.0000 1.0000
29.4000 686.0000 1.0000
29.4100 663.0000 1.0000
29.4200 622.0000 1.0000
29.4300 614.0000 1.0000
29.4400 627.0000 1.0000
29.4500 616.0000 1.0000
29.4600 621.0000 1.0000
29.4700 626.0000 1.0000
29.4800 607.0000 1.0000
29.4900 615.0000 1.0000
29.5000 605.0000 1.0000
29.5100 625.0000 1.0000
29.5200 615.0000 1.0000
29.5300 610.0000 1.0000
29.5400 610.0000 1.0000
29.5500 597.0000 1.0000
29.5600 632.0000 1.0000
29.5700 621.0000 1.0000
29.5800 599.0000 1.0000
29.5900 590.0000 1.0000
29.6000 559.0000 1.0000
29.6100 572.0000 1.0000
29.6200 598.0000 1.0000
29.6300 588.0000 1.0000
29.6400 640.0000 1.0000
29.6500 621.0000 1.0000
29.6600 613.0000 1.0000
29.6700 634.0000 1.0000
29.6800 636.0000 1.0000
29.6900 592.0000 1.0000
29.7000 596.0000 1.0000
29.7100 619.0000 1.0000
29.7200 635.0000 1.0000
29.7300 593.0000 1.0000
29.7400 614.0000 1.0000
29.7500 633.0000 1.0000
29.7600 637.0000 1.0000
29.7700 615.0000 1.0000
29.7800 596.0000 1.0000
29.7900 638.0000 1.0000
29.8000 592.0000 1.0000
29.8100 607.0000 1.0000
29.8200 642.0000 1.0000
29.8300 584.0000 1.0000
29.8400 632.0000 1.0000
29.8500 653.0000 1.0000
29.8600 603.0000 1.0000
29.8700 606.0000 1.0000
29.8800 592.0000 1.0000
29.8900 613.0000 1.0000
29.9000 583.0000 1.0000
29.9100 613.0000 1.0000
29.9200 605.0000 1.0000
29.9300 596.0000 1.0000
29.9400 604.0000 1.0000
29.9500 621.0000 1.0000
29.9600 579.0000 1.0000
29.9700 584.0000 1.0000
29.9800 603.0000 1.0000
29.9900 602.0000 1.0000
30.0000 590.0000 1.0000
30.0100 591.0000 1.0000
30.0200 619.0000 1.0000
30.0300 591.0000 1.0000
30.0400 589.0000 1.0000
30.0500 560.0000 1.0000
30.0600 593.0000 1.0000
30.0700 609.0000 1.0000
30.0800 533.0000 1.0000
30.0900 603.0000 1.0000
30.1000 631.0000 1.0000
30.1100 613.0000 1.0000
30.1200 588.0000 1.0000
30.1300 596.0000 1.0000
30.1400 558.0000 1.0000
30.1500 621.0000 1.0000
30.1600 580.0000 1.0000
30.1700 612.0000 1.0000
30.1800 607.0000 1.0000
30.1900 598.0000 1.0000
30.2000 578.0000 1.0000
30.2100 619.0000 1.0000
30.2200 599.0000 1.0000
30.2300 586.0000 1.0000
30.2400 619.0000 1.0000
30.2500 569.0000 1.0000
30.2600 593.0000 1.0000
30.2700 585.0000 1.0000
30.2800 583.0000 1.0000
30.2900 564.0000 1.0000
30.3000 568.0000 1.0000
30.3100 592.0000 1.0000
30.3200 626.0000 1.0000
30.3300 569.0000 1.0000
30.3400 589.0000 1.0000
30.3500 547.0000 1.0000
30.3600 568.0000 1.0000
30.3700 558.0000 1.0000
30.3800 592.0000 1.0000
30.3900 542.0000 1.0000
30.4000 587.0000 1.0000
30.4100 605.0000 1.0000
30.4200 624.0000 1.0000
30.4300 556.0000 1.0000
30.4400 623.0000 1.0000
30.4500 588.0000 1.0000
30.4600 611.0000 1.0000
30.4700 583.0000 1.0000
30.4800 586.0000 1.0000
30.4900 583.0000 1.0000
30.5000 589.0000 1.0000
30.5100 598.0000 1.0000
30.5200 623.0000 1.0000
30.5300 578.0000 1.0000
30.5400 559.0000 1.0000
30.5500 595.0000 1.0000
30.5600 564.0000 1.0000
30.5700 585.0000 1.0000
30.5800 617.0000 1.0000
30.5900 593.0000 1.0000
30.6000 585.0000 1.0000
30.6100 552.0000 1.0000
30.6200 580.0000 1.0000
30.6300 599.0000 1.0000
30.6400 596.0000 1.0000
30.6500 604.0000 1.0000
30.6600 577.0000 1.0000
30.6700 578.0000 1.0000
30.6800 592.0000 1.0000
30.6900 586.0000 1.0000
30.7000 609.0000 1.0000
30.7100 607.0000 1.0000
30.7200 583.0000 1.0000
30.7300 576.0000 1.0000
30.7400 590.0000 1.0000
30.7500 593.0000 1.0000
30.7600 580.0000 1.0000
30.7700 556.0000 1.0000
30.7800 607.0000 1.0000
30.7900 594.0000 1.0000
30.8000 576.0000 1.0000
30.8100 546.0000 1.0000
30.8200 589.0000 1.0000
30.8300 590.0000 1.0000
30.8400 555.0000 1.0000
30.8500 585.0000 1.0000
30.8600 583.0000 1.0000
30.8700 595.0000 1.0000
30.8800 551.0000 1.0000
30.8900 549.0000 1.0000
30.9000 574.0000 1.0000
30.9100 578.0000 1.0000
30.9200 579.0000 1.0000
30.9300 610.0000 1.0000
30.9400 580.0000 1.0000
30.9500 543.0000 1.0000
30.9600 575.0000 1.0000
30.9700 578.0000 1.0000
30.9800 593.0000 1.0000
30.9900 576.0000 1.0000
31.0000 595.0000 1.0000
31.0100 557.0000 1.0000
31.0200 583.0000 1.0000
31.0300 563.0000 1.0000
31.0400 597.0000 1.0000
31.0500 584.0000 1.0000
31.0600 613.0000 1.0000
31.0700 579.0000 1.0000
31.0800 597.0000 1.0000
31.0900 548.0000 1.0000
31.1000 578.0000 1.0000
31.1100 609.0000 1.0000
31.1200 617.0000 1.0000
31.1300 588.0000 1.0000
31.1400 596.0000 1.0000
31.1500 565.0000 1.0000
31.1600 594.0000 1.0000
31.1700 593.0000 1.0000
31.1800 586.0000 1.0000
31.1900 555.0000 1.0000
31.2000 559.0000 1.0000
31.2100 559.0000 1.0000
31.2200 568.0000 1.0000
31.2300 576.0000 1.0000
31.2400 563.0000 1.0000
31.2500 597.0000 1.0000
31.2600 617.0000 1.0000
31.2700 561.0000 1.0000
31.2800 581.0000 1.0000
31.2900 550.0000 1.0000
31.3000 581.0000 1.0000
31.3100 594.0000 1.0000
31.3200 586.0000 1.0000
31.3300 563.0000 1.0000
31.3400 561.0000 1.0000
31.3500 573.0000 1.0000
31.3600 539.0000 1.0000
31.3700 578.0000 1.0000
31.3800 587.0000 1.0000
31.3900 583.0000 1.0000
31.4000 567.0000 1.0000
31.4100 582.0000 1.0000
31.4200 576.0000 1.0000
31.4300 597.0000 1.0000
31.4400 596.0000 1.0000
31.4500 557.0000 1.0000
31.4600 560.0000 1.0000
31.4700 544.0000 1.0000
31.4800 547.0000 1.0000
31.4900 527.0000 1.0000
31.5000 549.0000 1.0000
31.5100 529.0000 1.0000
31.5200 579.0000 1.0000
31.5300 576.0000 1.0000
31.5400 561.0000 1.0000
31.5500 573.0000 1.0000
31.5600 564.0000 1.0000
31.5700 571.0000 1.0000
31.5800 599.0000 1.0000
31.5900 578.0000 1.0000
31.6000 558.0000 1.0000
31.6100 592.0000 1.0000
31.6200 561.0000 1.0000
31.6300 578.0000 1.0000
31.6400 527.0000 1.0000
31.6500 555.0000 1.0000
31.6600 566.0000 1.0000
31.6700 565.0000 1.0000
31.6800 544.0000 1.0000
31.6900 562.0000 1.0000
31.7000 547.0000 1.0000
31.7100 519.0000 1.0000
31.7200 571.0000 1.0000
31.7300 572.0000 1.0000
31.7400 618.0000 1.0000
31.7500 604.0000 1.0000
31.7600 576.0000 1.0000
31.7700 568.0000 1.0000
31.7800 576.0000 1.0000
31.7900 565.0000 1.0000
31.8000 574.0000 1.0000
31.8100 533.0000 1.0000
31.8200 528.0000 1.0000
31.8300 528.0000 1.0000
31.8400 555.0000 1.0000
31.8500 545.0000 1.0000
31.8600 560.0000 1.0000
31.8700 549.0000 1.0000
31.8800 596.0000 1.0000
31.8900 604.0000 1.0000
31.9000 597.0000 1.0000
31.9100 536.0000 1.0000
31.9200 567.0000 1.0000
31.9300 556.0000 1.0000
31.9400 540.0000 1.0000
31.9500 561.0000 1.0000
31.9600 550.0000 1.0000
31.9700 571.0000 1.0000
31.9800 559.0000 1.0000
31.9900 571.0000 1.0000
32.0000 557.0000 1.0000
32.0100 583.0000 1.0000
32.0200 595.0000 1.0000
32.0300 579.0000 1.0000
32.0400 605.0000 1.0000
32.0500 582.0000 1.0000
32.0600 569.0000 1.0000
32.0700 539.0000 1.0000
32.0800 561.0000 1.0000
32.0900 586.0000 1.0000
32.1000 576.0000 1.0000
32.1100 558.0000 1.0000
32.1200 560.0000 1.0000
32.1300 576.0000 1.0000
32.1400 578.0000 1.0000
32.1500 590.0000 1.0000
32.1600 546.0000 1.0000
32.1700 558.0000 1.0000
32.1800 550.0000 1.0000
32.1900 580.0000 1.0000
32.2000 557.0000 1.0000
32.2100 566.0000 1.0000
32.2200 577.0000 1.0000
32.2300 573.0000 1.0000
32.2400 574.0000 1.0000
32.2500 563.0000 1.0000
32.2600 546.0000 1.0000
32.2700 572.0000 1.0000
32.2800 562.0000 1.0000
32.2900 579.0000 1.0000
32.3000 520.0000 1.0000
32.3100 546.0000 1.0000
32.3200 564.0000 1.0000
32.3300 524.0000 1.0000
32.3400 558.0000 1.0000
32.3500 516.0000 1.0000
32.3600 528.0000 1.0000
32.3700 541.0000 1.0000
32.3800 565.0000 1.0000
32.3900 560.0000 1.0000
32.4000 576.0000 1.0000
32.4100 566.0000 1.0000
32.4200 588.0000 1.0000
32.4300 556.0000 1.0000
32.4400 581.0000 1.0000
32.4500 549.0000 1.0000
32.4600 516.0000 1.0000
32.4700 561.0000 1.0000
32.4800 570.0000 1.0000
32.4900 570.0000 1.0000
32.5000 531.0000 1.0000
32.5100 538.0000 1.0000
32.5200 558.0000 1.0000
32.5300 562.0000 1.0000
32.5400 524.0000 1.0000
32.5500 551.0000 1.0000
32.5600 565.0000 1.0000
32.5700 555.0000 1.0000
32.5800 527.0000 1.0000
32.5900 519.0000 1.0000
32.6000 540.0000 1.0000
32.6100 512.0000 1.0000
32.6200 537.0000 1.0000
32.6300 519.0000 1.0000
32.6400 515.0000 1.0000
32.6500 541.0000 1.0000
32.6600 538.0000 1.0000
32.6700 564.0000 1.0000
32.6800 558.0000 1.0000
32.6900 531.0000 1.0000
32.7000 521.0000 1.0000
32.7100 543.0000 1.0000
32.7200 505.0000 1.0000
32.7300 535.0000 1.0000
32.7400 558.0000 1.0000
32.7500 563.0000 1.0000
32.7600 582.0000 1.0000
32.7700 558.0000 1.0000
32.7800 527.0000 1.0000
32.7900 504.0000 1.0000
32.8000 513.0000 1.0000
32.8100 519.0000 1.0000
32.8200 563.0000 1.0000
32.8300 520.0000 1.0000
32.8400 524.0000 1.0000
32.8500 539.0000 1.0000
32.8600 531.0000 1.0000
32.8700 550.0000 1.0000
32.8800 515.0000 1.0000
32.8900 596.0000 1.0000
32.9000 559.0000 1.0000
32.9100 549.0000 1.0000
32.9200 543.0000 1.0000
32.9300 560.0000 1.0000
32.9400 552.0000 1.0000
32.9500 572.0000 1.0000
32.9600 575.0000 1.0000
32.9700 523.0000 1.0000
32.9800 537.0000 1.0000
32.9900 548.0000 1.0000
33.0000 551.0000 1.0000
33.0100 554.0000 1.0000
33.0200 563.0000 1.0000
33.0300 546.0000 1.0000
33.0400 557.0000 1.0000
33.0500 522.0000 1.0000
33.0600 545.0000 1.0000
33.0700 542.0000 1.0000
33.0800 509.0000 1.0000
33.0900 513.0000 1.0000
33.1000 533.0000 1.0000
33.1100 538.0000 1.0000
33.1200 521.0000 1.0000
33.1300 536.0000 1.0000
33.1400 526.0000 1.0000
33.1500 529.0000 1.0000
33.1600 522.0000 1.0000
33.1700 516.0000 1.0000
33.1800 503.0000 1.0000
33.1900 560.0000 1.0000
33.2000 517.0000 1.0000
33.2100 583.0000 1.0000
33.2200 553.0000 1.0000
33.2300 566.0000 1.0000
33.2400 621.0000 1.0000
33.2500 555.0000 1.0000
33.2600 540.0000 1.0000
33.2700 528.0000 1.0000
33.2800 529.0000 1.0000
33.2900 493.0000 1.0000
33.3000 550.0000 1.0000
33.3100 542.0000 1.0000
33.3200 536.0000 1.0000
33.3300 559.0000 1.0000
33.3400 535.0000 1.0000
33.3500 537.0000 1.0000
33.3600 537.0000 1.0000
33.3700 533.0000 1.0000
33.3800 528.0000 1.0000
33.3900 535.0000 1.0000
33.4000 513.0000 1.0000
33.4100 535.0000 1.0000
33.4200 566.0000 1.0000
33.4300 545.0000 1.0000
33.4400 521.0000 1.0000
33.4500 522.0000 1.0000
33.4600 528.0000 1.0000
33.4700 530.0000 1.0000
33.4800 565.0000 1.0000
33.4900 523.0000 1.0000
33.5000 577.0000 1.0000
33.5100 540.0000 1.0000
33.5200 516.0000 1.0000
33.5300 546.0000 1.0000
33.5400 567.0000 1.0000
33.5500 551.0000 1.0000
33.5600 531.0000 1.0000
33.5700 537.0000 1.0000
33.5800 562.0000 1.0000
33.5900 521.0000 1.0000
33.6000 533.0000 1.0000
33.6100 561.0000 1.0000
33.6200 531.0000 1.0000
33.6300 526.0000 1.0000
33.6400 557.0000 1.0000
33.6500 588.0000 1.0000
33.6600 539.0000 1.0000
33.6700 538.0000 1.0000
33.6800 544.0000 1.0000
33.6900 585.0000 1.0000
33.7000 483.0000 1.0000
33.7100 546.0000 1.0000
33.7200 558.0000 1.0000
33.7300 525.0000 1.0000
33.7400 564.0000 1.0000
33.7500 589.0000 1.0000
33.7600 544.0000 1.0000
33.7700 607.0000 1.0000
33.7800 597.0000 1.0000
33.7900 554.0000 1.0000
33.8000 579.0000 1.0000
33.8100 544.0000 1.0000
33.8200 556.0000 1.0000
33.8300 601.0000 1.0000
33.8400 565.0000 1.0000
33.8500 554.0000 1.0000
33.8600 594.0000 1.0000
33.8700 559.0000 1.0000
33.8800 548.0000 1.0000
33.8900 561.0000 1.0000
33.9000 640.0000 1.0000
33.9100 626.0000 1.0000
33.9200 602.0000 1.0000
33.9300 608.0000 1.0000
33.9400 614.0000 1.0000
33.9500 615.0000 1.0000
33.9600 608.0000 1.0000
33.9700 583.0000 1.0000
33.9800 578.0000 1.0000
33.9900 610.0000 1.0000
34.0000 632.0000 1.0000
34.0100 602.0000 1.0000
34.0200 608.0000 1.0000
34.0300 567.0000 1.0000
34.0400 593.0000 1.0000
34.0500 608.0000 1.0000
34.0600 600.0000 1.0000
34.0700 633.0000 1.0000
34.0800 682.0000 1.0000
34.0900 595.0000 1.0000
34.1000 562.0000 1.0000
34.1100 572.0000 1.0000
34.1200 605.0000 1.0000
34.1300 567.0000 1.0000
34.1400 574.0000 1.0000
34.1500 605.0000 1.0000
34.1600 574.0000 1.0000
34.1700 615.0000 1.0000
34.1800 630.0000 1.0000
34.1900 610.0000 1.0000
34.2000 608.0000 1.0000
34.2100 613.0000 1.0000
34.2200 632.0000 1.0000
34.2300 608.0000 1.0000
34.2400 652.0000 1.0000
34.2500 669.0000 1.0000
34.2600 678.0000 1.0000
34.2700 647.0000 1.0000
34.2800 680.0000 1.0000
34.2900 694.0000 1.0000
34.3000 728.0000 1.0000
34.3100 744.0000 1.0000
34.3200 713.0000 1.0000
34.3300 697.0000 1.0000
34.3400 782.0000 1.0000
34.3500 842.0000 1.0000
34.3600 811.0000 1.0000
34.3700 859.0000 1.0000
34.3800 915.0000 1.0000
34.3900 879.0000 1.0000
34.4000 987.0000 1.0000
34.4100 1043.0000 1.0000
34.4200 1033.0000 1.0000
34.4300 1052.0000 1.0000
34.4400 1157.0000 1.0000
34.4500 1194.0000 1.0000
34.4600 1215.0000 1.0000
34.4700 1297.0000 1.0000
34.4800 1324.0000 1.0000
34.4900 1363.0000 1.0000
34.5000 1362.0000 1.0000
34.5100 1359.0000 1.0000
34.5200 1405.0000 1.0000
34.5300 1389.0000 1.0000
34.5400 1300.0000 1.0000
34.5500 1323.0000 1.0000
34.5600 1277.0000 1.0000
34.5700 1279.0000 1.0000
34.5800 1248.0000 1.0000
34.5900 1208.0000 1.0000
34.6000 1136.0000 1.0000
34.6100 1129.0000 1.0000
34.6200 1028.0000 1.0000
34.6300 1051.0000 1.0000
34.6400 970.0000 1.0000
34.6500 965.0000 1.0000
34.6600 929.0000 1.0000
34.6700 882.0000 1.0000
34.6800 843.0000 1.0000
34.6900 823.0000 1.0000
34.7000 762.0000 1.0000
34.7100 765.0000 1.0000
34.7200 756.0000 1.0000
34.7300 719.0000 1.0000
34.7400 690.0000 1.0000
34.7500 708.0000 1.0000
34.7600 725.0000 1.0000
34.7700 650.0000 1.0000
34.7800 644.0000 1.0000
34.7900 672.0000 1.0000
34.8000 658.0000 1.0000
34.8100 649.0000 1.0000
34.8200 656.0000 1.0000
34.8300 623.0000 1.0000
34.8400 582.0000 1.0000
34.8500 573.0000 1.0000
34.8600 567.0000 1.0000
34.8700 589.0000 1.0000
34.8800 590.0000 1.0000
34.8900 556.0000 1.0000
34.9000 542.0000 1.0000
34.9100 606.0000 1.0000
34.9200 570.0000 1.0000
34.9300 556.0000 1.0000
34.9400 543.0000 1.0000
34.9500 540.0000 1.0000
34.9600 521.0000 1.0000
34.9700 549.0000 1.0000
34.9800 537.0000 1.0000
34.9900 532.0000 1.0000
35.0000 534.0000 1.0000
35.0100 502.0000 1.0000
35.0200 507.0000 1.0000
35.0300 551.0000 1.0000
35.0400 513.0000 1.0000
35.0500 525.0000 1.0000
35.0600 549.0000 1.0000
35.0700 558.0000 1.0000
35.0800 516.0000 1.0000
35.0900 477.0000 1.0000
35.1000 514.0000 1.0000
35.1100 512.0000 1.0000
35.1200 540.0000 1.0000
35.1300 528.0000 1.0000
35.1400 494.0000 1.0000
35.1500 493.0000 1.0000
35.1600 503.0000 1.0000
35.1700 480.0000 1.0000
35.1800 475.0000 1.0000
35.1900 501.0000 1.0000
35.2000 484.0000 1.0000
35.2100 513.0000 1.0000
35.2200 487.0000 1.0000
35.2300 489.0000 1.0000
35.2400 500.0000 1.0000
35.2500 493.0000 1.0000
35.2600 524.0000 1.0000
35.2700 497.0000 1.0000
35.2800 536.0000 1.0000
35.2900 521.0000 1.0000
35.3000 515.0000 1.0000
35.3100 471.0000 1.0000
35.3200 484.0000 1.0000
35.3300 470.0000 1.0000
35.3400 475.0000 1.0000
35.3500 493.0000 1.0000
35.3600 460.0000 1.0000
35.3700 506.0000 1.0000
35.3800 488.0000 1.0000
35.3900 485.0000 1.0000
35.4000 495.0000 1.0000
35.4100 455.0000 1.0000
35.4200 466.0000 1.0000
35.4300 512.0000 1.0000
35.4400 471.0000 1.0000
35.4500 492.0000 1.0000
35.4600 471.0000 1.0000
35.4700 499.0000 1.0000
35.4800 449.0000 1.0000
35.4900 458.0000 1.0000
35.5000 471.0000 1.0000
35.5100 432.0000 1.0000
35.5200 495.0000 1.0000
35.5300 480.0000 1.0000
35.5400 474.0000 1.0000
35.5500 475.0000 1.0000
35.5600 486.0000 1.0000
35.5700 440.0000 1.0000
35.5800 476.0000 1.0000
35.5900 454.0000 1.0000
35.6000 433.0000 1.0000
35.6100 468.0000 1.0000
35.6200 456.0000 1.0000
35.6300 457.0000 1.0000
35.6400 472.0000 1.0000
35.6500 469.0000 1.0000
35.6600 465.0000 1.0000
35.6700 490.0000 1.0000
35.6800 482.0000 1.0000
35.6900 487.0000 1.0000
35.7000 491.0000 1.0000
35.7100 457.0000 1.0000
35.7200 501.0000 1.0000
35.7300 468.0000 1.0000
35.7400 502.0000 1.0000
35.7500 455.0000 1.0000
35.7600 466.0000 1.0000
35.7700 490.0000 1.0000
35.7800 466.0000 1.0000
35.7900 467.0000 1.0000
35.8000 427.0000 1.0000
35.8100 457.0000 1.0000
35.8200 461.0000 1.0000
35.8300 499.0000 1.0000
35.8400 452.0000 1.0000
35.8500 469.0000 1.0000
35.8600 446.0000 1.0000
35.8700 433.0000 1.0000
35.8800 463.0000 1.0000
35.8900 475.0000 1.0000
35.9000 440.0000 1.0000
35.9100 471.0000 1.0000
35.9200 449.0000 1.0000
35.9300 420.0000 1.0000
35.9400 446.0000 1.0000
35.9500 472.0000 1.0000
35.9600 472.0000 1.0000
35.9700 488.0000 1.0000
35.9800 472.0000 1.0000
35.9900 450.0000 1.0000
36.0000 472.0000 1.0000
36.0100 474.0000 1.0000
36.0200 450.0000 1.0000
36.0300 491.0000 1.0000
36.0400 492.0000 1.0000
36.0500 453.0000 1.0000
36.0600 454.0000 1.0000
36.0700 427.0000 1.0000
36.0800 489.0000 1.0000
36.0900 487.0000 1.0000
36.1000 497.0000 1.0000
36.1100 494.0000 1.0000
36.1200 467.0000 1.0000
36.1300 480.0000 1.0000
36.1400 485.0000 1.0000
36.1500 481.0000 1.0000
36.1600 470.0000 1.0000
36.1700 492.0000 1.0000
36.1800 496.0000 1.0000
36.1900 455.0000 1.0000
36.2000 495.0000 1.0000
36.2100 536.0000 1.0000
36.2200 510.0000 1.0000
36.2300 495.0000 1.0000
36.2400 496.0000 1.0000
36.2500 517.0000 1.0000
36.2600 566.0000 1.0000
36.2700 554.0000 1.0000
36.2800 548.0000 1.0000
36.2900 599.0000 1.0000
36.3000 614.0000 1.0000
36.3100 582.0000 1.0000
36.3200 583.0000 1.0000
36.3300 610.0000 1.0000
36.3400 631.0000 1.0000
36.3500 646.0000 1.0000
36.3600 652.0000 1.0000
36.3700 709.0000 1.0000
36.3800 710.0000 1.0000
36.3900 696.0000 1.0000
36.4000 734.0000 1.0000
36.4100 731.0000 1.0000
36.4200 752.0000 1.0000
36.4300 755.0000 1.0000
36.4400 771.0000 1.0000
36.4500 762.0000 1.0000
36.4600 720.0000 1.0000
36.4700 719.0000 1.0000
36.4800 747.0000 1.0000
36.4900 692.0000 1.0000
36.5000 681.0000 1.0000
36.5100 688.0000 1.0000
36.5200 664.0000 1.0000
36.5300 626.0000 1.0000
36.5400 636.0000 1.0000
36.5500 624.0000 1.0000
36.5600 653.0000 1.0000
36.5700 635.0000 1.0000
36.5800 600.0000 1.0000
36.5900 575.0000 1.0000
36.6000 511.0000 1.0000
36.6100 515.0000 1.0000
36.6200 532.0000 1.0000
36.6300 508.0000 1.0000
36.6400 511.0000 1.0000
36.6500 502.0000 1.0000
36.6600 500.0000 1.0000
36.6700 484.0000 1.0000
36.6800 535.0000 1.0000
36.6900 502.0000 1.0000
36.7000 503.0000 1.0000
36.7100 469.0000 1.0000
36.7200 409.0000 1.0000
36.7300 465.0000 1.0000
36.7400 457.0000 1.0000
36.7500 426.0000 1.0000
36.7600 448.0000 1.0000
36.7700 445.0000 1.0000
36.7800 460.0000 1.0000
36.7900 471.0000 1.0000
36.8000 423.0000 1.0000
36.8100 423.0000 1.0000
36.8200 414.0000 1.0000
36.8300 410.0000 1.0000
36.8400 383.0000 1.0000
36.8500 429.0000 1.0000
36.8600 445.0000 1.0000
36.8700 410.0000 1.0000
36.8800 414.0000 1.0000
36.8900 403.0000 1.0000
36.9000 407.0000 1.0000
36.9100 430.0000 1.0000
36.9200 425.0000 1.0000
36.9300 430.0000 1.0000
36.9400 447.0000 1.0000
36.9500 452.0000 1.0000
36.9600 429.0000 1.0000
36.9700 402.0000 1.0000
36.9800 423.0000 1.0000
36.9900 409.0000 1.0000
37.0000 419.0000 1.0000
37.0100 398.0000 1.0000
37.0200 408.0000 1.0000
37.0300 416.0000 1.0000
37.0400 398.0000 1.0000
37.0500 415.0000 1.0000
37.0600 409.0000 1.0000
37.0700 423.0000 1.0000
37.0800 437.0000 1.0000
37.0900 421.0000 1.0000
37.1000 413.0000 1.0000
37.1100 424.0000 1.0000
37.1200 382.0000 1.0000
37.1300 383.0000 1.0000
37.1400 420.0000 1.0000
37.1500 405.0000 1.0000
37.1600 411.0000 1.0000
37.1700 384.0000 1.0000
37.1800 377.0000 1.0000
37.1900 400.0000 1.0000
37.2000 434.0000 1.0000
37.2100 411.0000 1.0000
37.2200 440.0000 1.0000
37.2300 423.0000 1.0000
37.2400 395.0000 1.0000
37.2500 411.0000 1.0000
37.2600 409.0000 1.0000
37.2700 431.0000 1.0000
37.2800 441.0000 1.0000
37.2900 437.0000 1.0000
37.3000 431.0000 1.0000
37.3100 413.0000 1.0000
37.3200 422.0000 1.0000
37.3300 398.0000 1.0000
37.3400 397.0000 1.0000
37.3500 428.0000 1.0000
37.3600 411.0000 1.0000
37.3700 398.0000 1.0000
37.3800 430.0000 1.0000
37.3900 413.0000 1.0000
37.4000 423.0000 1.0000
37.4100 422.0000 1.0000
37.4200 423.0000 1.0000
37.4300 403.0000 1.0000
37.4400 423.0000 1.0000
37.4500 438.0000 1.0000
37.4600 419.0000 1.0000
37.4700 452.0000 1.0000
37.4800 407.0000 1.0000
37.4900 389.0000 1.0000
37.5000 429.0000 1.0000
37.5100 419.0000 1.0000
37.5200 420.0000 1.0000
37.5300 414.0000 1.0000
37.5400 387.0000 1.0000
37.5500 405.0000 1.0000
37.5600 415.0000 1.0000
37.5700 404.0000 1.0000
37.5800 418.0000 1.0000
37.5900 415.0000 1.0000
37.6000 424.0000 1.0000
37.6100 428.0000 1.0000
37.6200 452.0000 1.0000
37.6300 417.0000 1.0000
37.6400 388.0000 1.0000
37.6500 448.0000 1.0000
37.6600 423.0000 1.0000
37.6700 417.0000 1.0000
37.6800 424.0000 1.0000
37.6900 403.0000 1.0000
37.7000 438.0000 1.0000
37.7100 414.0000 1.0000
37.7200 415.0000 1.0000
37.7300 430.0000 1.0000
37.7400 431.0000 1.0000
37.7500 373.0000 1.0000
37.7600 426.0000 1.0000
37.7700 392.0000 1.0000
37.7800 449.0000 1.0000
37.7900 399.0000 1.0000
37.8000 434.0000 1.0000
37.8100 437.0000 1.0000
37.8200 415.0000 1.0000
37.8300 447.0000 1.0000
37.8400 430.0000 1.0000
37.8500 394.0000 1.0000
37.8600 437.0000 1.0000
37.8700 416.0000 1.0000
37.8800 415.0000 1.0000
37.8900 425.0000 1.0000
37.9000 416.0000 1.0000
37.9100 410.0000 1.0000
37.9200 414.0000 1.0000
37.9300 419.0000 1.0000
37.9400 428.0000 1.0000
37.9500 432.0000 1.0000
37.9600 434.0000 1.0000
37.9700 424.0000 1.0000
37.9800 426.0000 1.0000
37.9900 444.0000 1.0000
38.0000 394.0000 1.0000
38.0100 457.0000 1.0000
38.0200 454.0000 1.0000
38.0300 420.0000 1.0000
38.0400 437.0000 1.0000
38.0500 423.0000 1.0000
38.0600 429.0000 1.0000
38.0700 451.0000 1.0000
38.0800 453.0000 1.0000
38.0900 458.0000 1.0000
38.1000 467.0000 1.0000
38.1100 472.0000 1.0000
38.1200 455.0000 1.0000
38.1300 472.0000 1.0000
38.1400 476.0000 1.0000
38.1500 502.0000 1.0000
38.1600 503.0000 1.0000
38.1700 491.0000 1.0000
38.1800 502.0000 1.0000
38.1900 523.0000 1.0000
38.2000 550.0000 1.0000
38.2100 569.0000 1.0000
38.2200 597.0000 1.0000
38.2300 588.0000 1.0000
38.2400 621.0000 1.0000
38.2500 607.0000 1.0000
38.2600 605.0000 1.0000
38.2700 613.0000 1.0000
38.2800 621.0000 1.0000
38.2900 634.0000 1.0000
38.3000 661.0000 1.0000
38.3100 708.0000 1.0000
38.3200 739.0000 1.0000
38.3300 775.0000 1.0000
38.3400 780.0000 1.0000
38.3500 826.0000 1.0000
38.3600 925.0000 1.0000
38.3700 914.0000 1.0000
38.3800 990.0000 1.0000
38.3900 1046.0000 1.0000
38.4000 1117.0000 1.0000
38.4100 1184.0000 1.0000
38.4200 1288.0000 1.0000
38.4300 1357.0000 1.0000
38.4400 1470.0000 1.0000
38.4500 1566.0000 1.0000
38.4600 1668.0000 1.0000
38.4700 1744.0000 1.0000
38.4800 1866.0000 1.0000
38.4900 2017.0000 1.0000
38.5000 2092.0000 1.0000
38.5100 2271.0000 1.0000
38.5200 2307.0000 1.0000
38.5300 2324.0000 1.0000
38.5400 2452.0000 1.0000
38.5500 2360.0000 1.0000
38.5600 2440.0000 1.0000
38.5700 2339.0000 1.0000
38.5800 2328.0000 1.0000
38.5900 2306.0000 1.0000
38.6000 2280.0000 1.0000
38.6100 2160.0000 1.0000
38.6200 2148.0000 1.0000
38.6300 2070.0000 1.0000
38.6400 1926.0000 1.0000
38.6500 1847.0000 1.0000
38.6600 1793.0000 1.0000
38.6700 1705.0000 1.0000
38.6800 1615.0000 1.0000
38.6900 1493.0000 1.0000
38.7000 1389.0000 1.0000
38.7100 1316.0000 1.0000
38.7200 1280.0000 1.0000
38.7300 1155.0000 1.0000
38.7400 1082.0000 1.0000
38.7500 1030.0000 1.0000
38.7600 967.0000 1.0000
38.7700 911.0000 1.0000
38.7800 828.0000 1.0000
38.7900 818.0000 1.0000
38.8000 771.0000 1.0000
38.8100 718.0000 1.0000
38.8200 743.0000 1.0000
38.8300 712.0000 1.0000
38.8400 655.0000 1.0000
38.8500 613.0000 1.0000
38.8600 600.0000 1.0000
38.8700 553.0000 1.0000
38.8800 572.0000 1.0000
38.8900 540.0000 1.0000
38.9000 527.0000 1.0000
38.9100 478.0000 1.0000
38.9200 497.0000 1.0000
38.9300 459.0000 1.0000
38.9400 509.0000 1.0000
38.9500 479.0000 1.0000
38.9600 452.0000 1.0000
38.9700 471.0000 1.0000
38.9800 443.0000 1.0000
38.9900 450.0000 1.0000
39.0000 440.0000 1.0000
39.0100 454.0000 1.0000
39.0200 414.0000 1.0000
39.0300 440.0000 1.0000
39.0400 424.0000 1.0000
39.0500 414.0000 1.0000
39.0600 422.0000 1.0000
39.0700 409.0000 1.0000
39.0800 403.0000 1.0000
39.0900 429.0000 1.0000
39.1000 394.0000 1.0000
39.1100 398.0000 1.0000
39.1200 391.0000 1.0000
39.1300 399.0000 1.0000
39.1400 394.0000 1.0000
39.1500 371.0000 1.0000
39.1600 422.0000 1.0000
39.1700 416.0000 1.0000
39.1800 381.0000 1.0000
39.1900 368.0000 1.0000
39.2000 392.0000 1.0000
39.2100 410.0000 1.0000
39.2200 391.0000 1.0000
39.2300 383.0000 1.0000
39.2400 403.0000 1.0000
39.2500 380.0000 1.0000
39.2600 398.0000 1.0000
39.2700 380.0000 1.0000
39.2800 401.0000 1.0000
39.2900 393.0000 1.0000
39.3000 371.0000 1.0000
39.3100 371.0000 1.0000
39.3200 389.0000 1.0000
39.3300 376.0000 1.0000
39.3400 372.0000 1.0000
39.3500 424.0000 1.0000
39.3600 408.0000 1.0000
39.3700 385.0000 1.0000
39.3800 372.0000 1.0000
39.3900 387.0000 1.0000
39.4000 374.0000 1.0000
39.4100 357.0000 1.0000
39.4200 356.0000 1.0000
39.4300 350.0000 1.0000
39.4400 380.0000 1.0000
39.4500 383.0000 1.0000
39.4600 383.0000 1.0000
39.4700 396.0000 1.0000
39.4800 378.0000 1.0000
39.4900 369.0000 1.0000
39.5000 409.0000 1.0000
39.5100 388.0000 1.0000
39.5200 379.0000 1.0000
39.5300 383.0000 1.0000
39.5400 372.0000 1.0000
39.5500 357.0000 1.0000
39.5600 410.0000 1.0000
39.5700 428.0000 1.0000
39.5800 397.0000 1.0000
39.5900 397.0000 1.0000
39.6000 386.0000 1.0000
39.6100 377.0000 1.0000
39.6200 403.0000 1.0000
39.6300 397.0000 1.0000
39.6400 383.0000 1.0000
39.6500 385.0000 1.0000
39.6600 375.0000 1.0000
39.6700 390.0000 1.0000
39.6800 391.0000 1.0000
39.6900 392.0000 1.0000
39.7000 393.0000 1.0000
39.7100 404.0000 1.0000
39.7200 368.0000 1.0000
39.7300 382.0000 1.0000
39.7400 394.0000 1.0000
39.7500 405.0000 1.0000
39.7600 358.0000 1.0000
39.7700 376.0000 1.0000
39.7800 381.0000 1.0000
39.7900 335.0000 1.0000
39.8000 366.0000 1.0000
39.8100 379.0000 1.0000
39.8200 345.0000 1.0000
39.8300 394.0000 1.0000
39.8400 357.0000 1.0000
39.8500 384.0000 1.0000
39.8600 374.0000 1.0000
39.8700 354.0000 1.0000
39.8800 358.0000 1.0000
39.8900 361.0000 1.0000
39.9000 385.0000 1.0000
39.9100 364.0000 1.0000
39.9200 371.0000 1.0000
39.9300 385.0000 1.0000
39.9400 390.0000 1.0000
39.9500 363.0000 1.0000
39.9600 380.0000 1.0000
39.9700 376.0000 1.0000
39.9800 366.0000 1.0000
39.9900 346.0000 1.0000
40.0000 377.0000 1.0000
40.0100 384.0000 1.0000
40.0200 351.0000 1.0000
40.0300 348.0000 1.0000
40.0400 334.0000 1.0000
40.0500 359.0000 1.0000
40.0600 342.0000 1.0000
40.0700 347.0000 1.0000
40.0800 326.0000 1.0000
40.0900 348.0000 1.0000
40.1000 386.0000 1.0000
40.1100 345.0000 1.0000
40.1200 358.0000 1.0000
40.1300 326.0000 1.0000
40.1400 352.0000 1.0000
40.1500 344.0000 1.0000
40.1600 370.0000 1.0000
40.1700 353.0000 1.0000
40.1800 356.0000 1.0000
40.1900 360.0000 1.0000
40.2000 368.0000 1.0000
40.2100 337.0000 1.0000
40.2200 334.0000 1.0000
40.2300 355.0000 1.0000
40.2400 361.0000 1.0000
40.2500 357.0000 1.0000
40.2600 360.0000 1.0000
40.2700 366.0000 1.0000
40.2800 370.0000 1.0000
40.2900 366.0000 1.0000
40.3000 361.0000 1.0000
40.3100 360.0000 1.0000
40.3200 349.0000 1.0000
40.3300 358.0000 1.0000
40.3400 377.0000 1.0000
40.3500 345.0000 1.0000
40.3600 343.0000 1.0000
40.3700 327.0000 1.0000
40.3800 338.0000 1.0000
40.3900 354.0000 1.0000
40.4000 347.0000 1.0000
40.4100 346.0000 1.0000
40.4200 345.0000 1.0000
40.4300 331.0000 1.0000
40.4400 362.0000 1.0000
40.4500 356.0000 1.0000
40.4600 355.0000 1.0000
40.4700 316.0000 1.0000
40.4800 333.0000 1.0000
40.4900 359.0000 1.0000
40.5000 392.0000 1.0000
40.5100 350.0000 1.0000
40.5200 370.0000 1.0000
40.5300 335.0000 1.0000
40.5400 347.0000 1.0000
40.5500 373.0000 1.0000
40.5600 342.0000 1.0000
40.5700 348.0000 1.0000
40.5800 388.0000 1.0000
40.5900 382.0000 1.0000
40.6000 322.0000 1.0000
40.6100 355.0000 1.0000
40.6200 383.0000 1.0000
40.6300 341.0000 1.0000
40.6400 331.0000 1.0000
40.6500 358.0000 1.0000
40.6600 320.0000 1.0000
40.6700 343.0000 1.0000
40.6800 330.0000 1.0000
40.6900 331.0000 1.0000
40.7000 326.0000 1.0000
40.7100 328.0000 1.0000
40.7200 350.0000 1.0000
40.7300 348.0000 1.0000
40.7400 319.0000 1.0000
40.7500 355.0000 1.0000
40.7600 364.0000 1.0000
40.7700 369.0000 1.0000
40.7800 349.0000 1.0000
40.7900 359.0000 1.0000
40.8000 347.0000 1.0000
40.8100 326.0000 1.0000
40.8200 351.0000 1.0000
40.8300 345.0000 1.0000
40.8400 320.0000 1.0000
40.8500 363.0000 1.0000
40.8600 363.0000 1.0000
40.8700 343.0000 1.0000
40.8800 331.0000 1.0000
40.8900 364.0000 1.0000
40.9000 347.0000 1.0000
40.9100 355.0000 1.0000
40.9200 323.0000 1.0000
40.9300 360.0000 1.0000
40.9400 376.0000 1.0000
40.9500 369.0000 1.0000
40.9600 335.0000 1.0000
40.9700 331.0000 1.0000
40.9800 327.0000 1.0000
40.9900 338.0000 1.0000
41.0000 356.0000 1.0000
41.0100 312.0000 1.0000
41.0200 340.0000 1.0000
41.0300 356.0000 1.0000
41.0400 328.0000 1.0000
41.0500 346.0000 1.0000
41.0600 327.0000 1.0000
41.0700 345.0000 1.0000
41.0800 339.0000 1.0000
41.0900 348.0000 1.0000
41.1000 319.0000 1.0000
41.1100 328.0000 1.0000
41.1200 316.0000 1.0000
41.1300 326.0000 1.0000
41.1400 322.0000 1.0000
41.1500 341.0000 1.0000
41.1600 321.0000 1.0000
41.1700 349.0000 1.0000
41.1800 336.0000 1.0000
41.1900 348.0000 1.0000
41.2000 339.0000 1.0000
41.2100 307.0000 1.0000
41.2200 347.0000 1.0000
41.2300 359.0000 1.0000
41.2400 344.0000 1.0000
41.2500 354.0000 1.0000
41.2600 347.0000 1.0000
41.2700 323.0000 1.0000
41.2800 356.0000 1.0000
41.2900 324.0000 1.0000
41.3000 367.0000 1.0000
41.3100 348.0000 1.0000
41.3200 314.0000 1.0000
41.3300 345.0000 1.0000
41.3400 333.0000 1.0000
41.3500 356.0000 1.0000
41.3600 320.0000 1.0000
41.3700 362.0000 1.0000
41.3800 347.0000 1.0000
41.3900 353.0000 1.0000
41.4000 338.0000 1.0000
41.4100 374.0000 1.0000
41.4200 353.0000 1.0000
41.4300 342.0000 1.0000
41.4400 367.0000 1.0000
41.4500 348.0000 1.0000
41.4600 326.0000 1.0000
41.4700 372.0000 1.0000
41.4800 375.0000 1.0000
41.4900 323.0000 1.0000
41.5000 353.0000 1.0000
41.5100 335.0000 1.0000
41.5200 336.0000 1.0000
41.5300 346.0000 1.0000
41.5400 352.0000 1.0000
41.5500 341.0000 1.0000
41.5600 339.0000 1.0000
41.5700 349.0000 1.0000
41.5800 341.0000 1.0000
41.5900 332.0000 1.0000
41.6000 328.0000 1.0000
41.6100 330.0000 1.0000
41.6200 340.0000 1.0000
41.6300 341.0000 1.0000
41.6400 328.0000 1.0000
41.6500 321.0000 1.0000
41.6600 341.0000 1.0000
41.6700 335.0000 1.0000
41.6800 364.0000 1.0000
41.6900 351.0000 1.0000
41.7000 349.0000 1.0000
41.7100 375.0000 1.0000
41.7200 353.0000 1.0000
41.7300 326.0000 1.0000
41.7400 338.0000 1.0000
41.7500 339.0000 1.0000
41.7600 371.0000 1.0000
41.7700 349.0000 1.0000
41.7800 364.0000 1.0000
41.7900 335.0000 1.0000
41.8000 330.0000 1.0000
41.8100 338.0000 1.0000
41.8200 344.0000 1.0000
41.8300 320.0000 1.0000
41.8400 337.0000 1.0000
41.8500 336.0000 1.0000
41.8600 355.0000 1.0000
41.8700 345.0000 1.0000
41.8800 351.0000 1.0000
41.8900 340.0000 1.0000
41.9000 369.0000 1.0000
41.9100 330.0000 1.0000
41.9200 341.0000 1.0000
41.9300 314.0000 1.0000
41.9400 302.0000 1.0000
41.9500 334.0000 1.0000
41.9600 332.0000 1.0000
41.9700 340.0000 1.0000
41.9800 332.0000 1.0000
41.9900 368.0000 1.0000
42.0000 352.0000 1.0000
42.0100 324.0000 1.0000
42.0200 328.0000 1.0000
42.0300 355.0000 1.0000
42.0400 350.0000 1.0000
42.0500 385.0000 1.0000
42.0600 336.0000 1.0000
42.0700 330.0000 1.0000
42.0800 329.0000 1.0000
42.0900 345.0000 1.0000
42.1000 336.0000 1.0000
42.1100 326.0000 1.0000
42.1200 326.0000 1.0000
42.1300 379.0000 1.0000
42.1400 337.0000 1.0000
42.1500 331.0000 1.0000
42.1600 296.0000 1.0000
42.1700 334.0000 1.0000
42.1800 334.0000 1.0000
42.1900 316.0000 1.0000
42.2000 323.0000 1.0000
42.2100 309.0000 1.0000
42.2200 329.0000 1.0000
42.2300 309.0000 1.0000
42.2400 349.0000 1.0000
42.2500 354.0000 1.0000
42.2600 352.0000 1.0000
42.2700 343.0000 1.0000
42.2800 351.0000 1.0000
42.2900 349.0000 1.0000
42.3000 334.0000 1.0000
42.3100 319.0000 1.0000
42.3200 353.0000 1.0000
42.3300 344.0000 1.0000
42.3400 328.0000 1.0000
42.3500 321.0000 1.0000
42.3600 336.0000 1.0000
42.3700 326.0000 1.0000
42.3800 327.0000 1.0000
42.3900 334.0000 1.0000
42.4000 355.0000 1.0000
42.4100 325.0000 1.0000
42.4200 326.0000 1.0000
42.4300 334.0000 1.0000
42.4400 322.0000 1.0000
42.4500 331.0000 1.0000
42.4600 322.0000 1.0000
42.4700 335.0000 1.0000
42.4800 345.0000 1.0000
42.4900 345.0000 1.0000
42.5000 324.0000 1.0000
42.5100 315.0000 1.0000
42.5200 323.0000 1.0000
42.5300 358.0000 1.0000
42.5400 329.0000 1.0000
42.5500 343.0000 1.0000
42.5600 354.0000 1.0000
42.5700 309.0000 1.0000
42.5800 351.0000 1.0000
42.5900 322.0000 1.0000
42.6000 342.0000 1.0000
42.6100 356.0000 1.0000
42.6200 324.0000 1.0000
42.6300 345.0000 1.0000
42.6400 344.0000 1.0000
42.6500 346.0000 1.0000
42.6600 343.0000 1.0000
42.6700 342.0000 1.0000
42.6800 329.0000 1.0000
42.6900 308.0000 1.0000
42.7000 342.0000 1.0000
42.7100 354.0000 1.0000
42.7200 351.0000 1.0000
42.7300 299.0000 1.0000
42.7400 321.0000 1.0000
42.7500 344.0000 1.0000
42.7600 359.0000 1.0000
42.7700 328.0000 1.0000
42.7800 319.0000 1.0000
42.7900 334.0000 1.0000
42.8000 334.0000 1.0000
42.8100 355.0000 1.0000
42.8200 337.0000 1.0000
42.8300 325.0000 1.0000
42.8400 342.0000 1.0000
42.8500 330.0000 1.0000
42.8600 313.0000 1.0000
42.8700 344.0000 1.0000
42.8800 321.0000 1.0000
42.8900 339.0000 1.0000
42.9000 333.0000 1.0000
42.9100 368.0000 1.0000
42.9200 338.0000 1.0000
42.9300 351.0000 1.0000
42.9400 322.0000 1.0000
42.9500 337.0000 1.0000
42.9600 312.0000 1.0000
42.9700 336.0000 1.0000
42.9800 335.0000 1.0000
42.9900 366.0000 1.0000
43.0000 365.0000 1.0000
43.0100 334.0000 1.0000
43.0200 339.0000 1.0000
43.0300 367.0000 1.0000
43.0400 355.0000 1.0000
43.0500 363.0000 1.0000
43.0600 363.0000 1.0000
43.0700 354.0000 1.0000
43.0800 361.0000 1.0000
43.0900 335.0000 1.0000
43.1000 339.0000 1.0000
43.1100 311.0000 1.0000
43.1200 345.0000 1.0000
43.1300 333.0000 1.0000
43.1400 353.0000 1.0000
43.1500 369.0000 1.0000
43.1600 344.0000 1.0000
43.1700 368.0000 1.0000
43.1800 346.0000 1.0000
43.1900 349.0000 1.0000
43.2000 366.0000 1.0000
43.2100 361.0000 1.0000
43.2200 358.0000 1.0000
43.2300 357.0000 1.0000
43.2400 362.0000 1.0000
43.2500 374.0000 1.0000
43.2600 354.0000 1.0000
43.2700 371.0000 1.0000
43.2800 375.0000 1.0000
43.2900 382.0000 1.0000
43.3000 360.0000 1.0000
43.3100 381.0000 1.0000
43.3200 381.0000 1.0000
43.3300 364.0000 1.0000
43.3400 373.0000 1.0000
43.3500 369.0000 1.0000
43.3600 350.0000 1.0000
43.3700 360.0000 1.0000
43.3800 333.0000 1.0000
43.3900 338.0000 1.0000
43.4000 339.0000 1.0000
43.4100 340.0000 1.0000
43.4200 380.0000 1.0000
43.4300 317.0000 1.0000
43.4400 335.0000 1.0000
43.4500 349.0000 1.0000
43.4600 334.0000 1.0000
43.4700 337.0000 1.0000
43.4800 348.0000 1.0000
43.4900 339.0000 1.0000
43.5000 345.0000 1.0000
43.5100 350.0000 1.0000
43.5200 332.0000 1.0000
43.5300 359.0000 1.0000
43.5400 342.0000 1.0000
43.5500 351.0000 1.0000
43.5600 348.0000 1.0000
43.5700 344.0000 1.0000
43.5800 315.0000 1.0000
43.5900 328.0000 1.0000
43.6000 315.0000 1.0000
43.6100 366.0000 1.0000
43.6200 346.0000 1.0000
43.6300 355.0000 1.0000
43.6400 347.0000 1.0000
43.6500 312.0000 1.0000
43.6600 320.0000 1.0000
43.6700 316.0000 1.0000
43.6800 340.0000 1.0000
43.6900 347.0000 1.0000
43.7000 335.0000 1.0000
43.7100 354.0000 1.0000
43.7200 323.0000 1.0000
43.7300 340.0000 1.0000
43.7400 341.0000 1.0000
43.7500 348.0000 1.0000
43.7600 335.0000 1.0000
43.7700 339.0000 1.0000
43.7800 322.0000 1.0000
43.7900 358.0000 1.0000
43.8000 318.0000 1.0000
43.8100 312.0000 1.0000
43.8200 348.0000 1.0000
43.8300 336.0000 1.0000
43.8400 361.0000 1.0000
43.8500 305.0000 1.0000
43.8600 317.0000 1.0000
43.8700 345.0000 1.0000
43.8800 294.0000 1.0000
43.8900 357.0000 1.0000
43.9000 333.0000 1.0000
43.9100 321.0000 1.0000
43.9200 315.0000 1.0000
43.9300 348.0000 1.0000
43.9400 315.0000 1.0000
43.9500 318.0000 1.0000
43.9600 326.0000 1.0000
43.9700 332.0000 1.0000
43.9800 318.0000 1.0000
43.9900 327.0000 1.0000
44.0000 356.0000 1.0000
44.0100 314.0000 1.0000
44.0200 302.0000 1.0000
44.0300 295.0000 1.0000
44.0400 330.0000 1.0000
44.0500 361.0000 1.0000
44.0600 312.0000 1.0000
44.0700 315.0000 1.0000
44.0800 331.0000 1.0000
44.0900 328.0000 1.0000
44.1000 319.0000 1.0000
44.1100 361.0000 1.0000
44.1200 323.0000 1.0000
44.1300 324.0000 1.0000
44.1400 346.0000 1.0000
44.1500 313.0000 1.0000
44.1600 320.0000 1.0000
44.1700 310.0000 1.0000
44.1800 313.0000 1.0000
44.1900 334.0000 1.0000
44.2000 345.0000 1.0000
44.2100 331.0000 1.0000
44.2200 321.0000 1.0000
44.2300 294.0000 1.0000
44.2400 294.0000 1.0000
44.2500 317.0000 1.0000
44.2600 345.0000 1.0000
44.2700 322.0000 1.0000
44.2800 322.0000 1.0000
44.2900 329.0000 1.0000
44.3000 340.0000 1.0000
44.3100 318.0000 1.0000
44.3200 314.0000 1.0000
44.3300 311.0000 1.0000
44.3400 320.0000 1.0000
44.3500 321.0000 1.0000
44.3600 345.0000 1.0000
44.3700 335.0000 1.0000
44.3800 334.0000 1.0000
44.3900 283.0000 1.0000
44.4000 322.0000 1.0000
44.4100 307.0000 1.0000
44.4200 315.0000 1.0000
44.4300 357.0000 1.0000
44.4400 312.0000 1.0000
44.4500 310.0000 1.0000
44.4600 309.0000 1.0000
44.4700 331.0000 1.0000
44.4800 295.0000 1.0000
44.4900 274.0000 1.0000
44.5000 339.0000 1.0000
44.5100 338.0000 1.0000
44.5200 320.0000 1.0000
44.5300 311.0000 1.0000
44.5400 306.0000 1.0000
44.5500 322.0000 1.0000
44.5600 314.0000 1.0000
44.5700 319.0000 1.0000
44.5800 328.0000 1.0000
44.5900 309.0000 1.0000
44.6000 293.0000 1.0000
44.6100 297.0000 1.0000
44.6200 323.0000 1.0000
44.6300 322.0000 1.0000
44.6400 328.0000 1.0000
44.6500 322.0000 1.0000
44.6600 331.0000 1.0000
44.6700 316.0000 1.0000
44.6800 316.0000 1.0000
44.6900 336.0000 1.0000
44.7000 308.0000 1.0000
44.7100 329.0000 1.0000
44.7200 306.0000 1.0000
44.7300 346.0000 1.0000
44.7400 326.0000 1.0000
44.7500 330.0000 1.0000
44.7600 300.0000 1.0000
44.7700 333.0000 1.0000
44.7800 334.0000 1.0000
44.7900 322.0000 1.0000
44.8000 319.0000 1.0000
44.8100 297.0000 1.0000
44.8200 297.0000 1.0000
44.8300 313.0000 1.0000
44.8400 308.0000 1.0000
44.8500 329.0000 1.0000
44.8600 303.0000 1.0000
44.8700 321.0000 1.0000
44.8800 306.0000 1.0000
44.8900 307.0000 1.0000
44.9000 319.0000 1.0000
44.9100 313.0000 1.0000
44.9200 302.0000 1.0000
44.9300 322.0000 1.0000
44.9400 309.0000 1.0000
44.9500 329.0000 1.0000
44.9600 300.0000 1.0000
44.9700 326.0000 1.0000
44.9800 301.0000 1.0000
44.9900 325.0000 1.0000
45.0000 337.0000 1.0000
45.0100 319.0000 1.0000
45.0200 339.0000 1.0000
45.0300 313.0000 1.0000
45.0400 317.0000 1.0000
45.0500 341.0000 1.0000
45.0600 332.0000 1.0000
45.0700 314.0000 1.0000
45.0800 294.0000 1.0000
45.0900 278.0000 1.0000
45.1000 324.0000 1.0000
45.1100 299.0000 1.0000
45.1200 311.0000 1.0000
45.1300 323.0000 1.0000
45.1400 338.0000 1.0000
45.1500 320.0000 1.0000
45.1600 318.0000 1.0000
45.1700 313.0000 1.0000
45.1800 322.0000 1.0000
45.1900 290.0000 1.0000
45.2000 330.0000 1.0000
45.2100 329.0000 1.0000
45.2200 326.0000 1.0000
45.2300 304.0000 1.0000
45.2400 315.0000 1.0000
45.2500 293.0000 1.0000
45.2600 311.0000 1.0000
45.2700 279.0000 1.0000
45.2800 311.0000 1.0000
45.2900 323.0000 1.0000
45.3000 303.0000 1.0000
45.3100 294.0000 1.0000
45.3200 283.0000 1.0000
45.3300 305.0000 1.0000
45.3400 309.0000 1.0000
45.3500 301.0000 1.0000
45.3600 322.0000 1.0000
45.3700 286.0000 1.0000
45.3800 319.0000 1.0000
45.3900 328.0000 1.0000
45.4000 329.0000 1.0000
45.4100 290.0000 1.0000
45.4200 306.0000 1.0000
45.4300 283.0000 1.0000
45.4400 308.0000 1.0000
45.4500 302.0000 1.0000
45.4600 274.0000 1.0000
45.4700 291.0000 1.0000
45.4800 302.0000 1.0000
45.4900 327.0000 1.0000
45.5000 335.0000 1.0000
45.5100 330.0000 1.0000
45.5200 315.0000 1.0000
45.5300 304.0000 1.0000
45.5400 339.0000 1.0000
45.5500 325.0000 1.0000
45.5600 311.0000 1.0000
45.5700 316.0000 1.0000
45.5800 314.0000 1.0000
45.5900 331.0000 1.0000
45.6000 320.0000 1.0000
45.6100 293.0000 1.0000
45.6200 330.0000 1.0000
45.6300 300.0000 1.0000
45.6400 300.0000 1.0000
45.6500 299.0000 1.0000
45.6600 284.0000 1.0000
45.6700 329.0000 1.0000
45.6800 322.0000 1.0000
45.6900 321.0000 1.0000
45.7000 302.0000 1.0000
45.7100 295.0000 1.0000
45.7200 305.0000 1.0000
45.7300 317.0000 1.0000
45.7400 307.0000 1.0000
45.7500 322.0000 1.0000
45.7600 330.0000 1.0000
45.7700 306.0000 1.0000
45.7800 310.0000 1.0000
45.7900 285.0000 1.0000
45.8000 323.0000 1.0000
45.8100 357.0000 1.0000
45.8200 333.0000 1.0000
45.8300 301.0000 1.0000
45.8400 316.0000 1.0000
45.8500 306.0000 1.0000
45.8600 323.0000 1.0000
45.8700 308.0000 1.0000
45.8800 295.0000 1.0000
45.8900 314.0000 1.0000
45.9000 321.0000 1.0000
45.9100 298.0000 1.0000
45.9200 328.0000 1.0000
45.9300 316.0000 1.0000
45.9400 294.0000 1.0000
45.9500 302.0000 1.0000
45.9600 293.0000 1.0000
45.9700 297.0000 1.0000
45.9800 321.0000 1.0000
45.9900 333.0000 1.0000
46.0000 318.0000 1.0000
46.0100 321.0000 1.0000
46.0200 333.0000 1.0000
46.0300 332.0000 1.0000
46.0400 299.0000 1.0000
46.0500 294.0000 1.0000
46.0600 322.0000 1.0000
46.0700 285.0000 1.0000
46.0800 317.0000 1.0000
46.0900 339.0000 1.0000
46.1000 308.0000 1.0000
46.1100 313.0000 1.0000
46.1200 336.0000 1.0000
46.1300 323.0000 1.0000
46.1400 320.0000 1.0000
46.1500 321.0000 1.0000
46.1600 333.0000 1.0000
46.1700 326.0000 1.0000
46.1800 316.0000 1.0000
46.1900 332.0000 1.0000
46.2000 333.0000 1.0000
46.2100 317.0000 1.0000
46.2200 303.0000 1.0000
46.2300 307.0000 1.0000
46.2400 281.0000 1.0000
46.2500 307.0000 1.0000
46.2600 301.0000 1.0000
46.2700 284.0000 1.0000
46.2800 300.0000 1.0000
46.2900 301.0000 1.0000
46.3000 321.0000 1.0000
46.3100 311.0000 1.0000
46.3200 295.0000 1.0000
46.3300 279.0000 1.0000
46.3400 281.0000 1.0000
46.3500 312.0000 1.0000
46.3600 318.0000 1.0000
46.3700 313.0000 1.0000
46.3800 303.0000 1.0000
46.3900 310.0000 1.0000
46.4000 278.0000 1.0000
46.4100 318.0000 1.0000
46.4200 281.0000 1.0000
46.4300 290.0000 1.0000
46.4400 310.0000 1.0000
46.4500 294.0000 1.0000
46.4600 302.0000 1.0000
46.4700 291.0000 1.0000
46.4800 299.0000 1.0000
46.4900 290.0000 1.0000
46.5000 292.0000 1.0000
46.5100 297.0000 1.0000
46.5200 309.0000 1.0000
46.5300 303.0000 1.0000
46.5400 323.0000 1.0000
46.5500 316.0000 1.0000
46.5600 300.0000 1.0000
46.5700 314.0000 1.0000
46.5800 299.0000 1.0000
46.5900 313.0000 1.0000
46.6000 315.0000 1.0000
46.6100 287.0000 1.0000
46.6200 323.0000 1.0000
46.6300 310.0000 1.0000
46.6400 308.0000 1.0000
46.6500 285.0000 1.0000
46.6600 305.0000 1.0000
46.6700 303.0000 1.0000
46.6800 283.0000 1.0000
46.6900 306.0000 1.0000
46.7000 305.0000 1.0000
46.7100 311.0000 1.0000
46.7200 306.0000 1.0000
46.7300 304.0000 1.0000
46.7400 303.0000 1.0000
46.7500 321.0000 1.0000
46.7600 315.0000 1.0000
46.7700 313.0000 1.0000
46.7800 291.0000 1.0000
46.7900 314.0000 1.0000
46.8000 290.0000 1.0000
46.8100 327.0000 1.0000
46.8200 317.0000 1.0000
46.8300 313.0000 1.0000
46.8400 284.0000 1.0000
46.8500 318.0000 1.0000
46.8600 271.0000 1.0000
46.8700 311.0000 1.0000
46.8800 305.0000 1.0000
46.8900 315.0000 1.0000
46.9000 314.0000 1.0000
46.9100 318.0000 1.0000
46.9200 289.0000 1.0000
46.9300 302.0000 1.0000
46.9400 348.0000 1.0000
46.9500 303.0000 1.0000
46.9600 331.0000 1.0000
46.9700 325.0000 1.0000
46.9800 318.0000 1.0000
46.9900 337.0000 1.0000
47.0000 334.0000 1.0000
47.0100 298.0000 1.0000
47.0200 317.0000 1.0000
47.0300 287.0000 1.0000
47.0400 312.0000 1.0000
47.0500 322.0000 1.0000
47.0600 343.0000 1.0000
47.0700 336.0000 1.0000
47.0800 330.0000 1.0000
47.0900 327.0000 1.0000
47.1000 322.0000 1.0000
47.1100 296.0000 1.0000
47.1200 315.0000 1.0000
47.1300 302.0000 1.0000
47.1400 293.0000 1.0000
47.1500 297.0000 1.0000
47.1600 314.0000 1.0000
47.1700 280.0000 1.0000
47.1800 308.0000 1.0000
47.1900 327.0000 1.0000
47.2000 302.0000 1.0000
47.2100 315.0000 1.0000
47.2200 284.0000 1.0000
47.2300 310.0000 1.0000
47.2400 308.0000 1.0000
47.2500 290.0000 1.0000
47.2600 288.0000 1.0000
47.2700 307.0000 1.0000
47.2800 312.0000 1.0000
47.2900 305.0000 1.0000
47.3000 299.0000 1.0000
47.3100 303.0000 1.0000
47.3200 334.0000 1.0000
47.3300 340.0000 1.0000
47.3400 313.0000 1.0000
47.3500 333.0000 1.0000
47.3600 322.0000 1.0000
47.3700 279.0000 1.0000
47.3800 284.0000 1.0000
47.3900 310.0000 1.0000
47.4000 310.0000 1.0000
47.4100 317.0000 1.0000
47.4200 291.0000 1.0000
47.4300 323.0000 1.0000
47.4400 308.0000 1.0000
47.4500 296.0000 1.0000
47.4600 313.0000 1.0000
47.4700 307.0000 1.0000
47.4800 305.0000 1.0000
47.4900 295.0000 1.0000
47.5000 297.0000 1.0000
47.5100 285.0000 1.0000
47.5200 283.0000 1.0000
47.5300 290.0000 1.0000
47.5400 293.0000 1.0000
47.5500 321.0000 1.0000
47.5600 278.0000 1.0000
47.5700 272.0000 1.0000
47.5800 301.0000 1.0000
47.5900 312.0000 1.0000
47.6000 303.0000 1.0000
47.6100 312.0000 1.0000
47.6200 313.0000 1.0000
47.6300 295.0000 1.0000
47.6400 290.0000 1.0000
47.6500 289.0000 1.0000
47.6600 264.0000 1.0000
47.6700 262.0000 1.0000
47.6800 294.0000 1.0000
47.6900 295.0000 1.0000
47.7000 315.0000 1.0000
47.7100 277.0000 1.0000
47.7200 281.0000 1.0000
47.7300 310.0000 1.0000
47.7400 297.0000 1.0000
47.7500 325.0000 1.0000
47.7600 292.0000 1.0000
47.7700 305.0000 1.0000
47.7800 294.0000 1.0000
47.7900 294.0000 1.0000
47.8000 325.0000 1.0000
47.8100 306.0000 1.0000
47.8200 312.0000 1.0000
47.8300 287.0000 1.0000
47.8400 329.0000 1.0000
47.8500 289.0000 1.0000
47.8600 289.0000 1.0000
47.8700 340.0000 1.0000
47.8800 272.0000 1.0000
47.8900 282.0000 1.0000
47.9000 306.0000 1.0000
47.9100 303.0000 1.0000
47.9200 313.0000 1.0000
47.9300 323.0000 1.0000
47.9400 290.0000 1.0000
47.9500 298.0000 1.0000
47.9600 270.0000 1.0000
47.9700 294.0000 1.0000
47.9800 314.0000 1.0000
47.9900 281.0000 1.0000
48.0000 301.0000 1.0000
48.0100 316.0000 1.0000
48.0200 279.0000 1.0000
48.0300 288.0000 1.0000
48.0400 293.0000 1.0000
48.0500 274.0000 1.0000
48.0600 295.0000 1.0000
48.0700 278.0000 1.0000
48.0800 290.0000 1.0000
48.0900 304.0000 1.0000
48.1000 324.0000 1.0000
48.1100 300.0000 1.0000
48.1200 310.0000 1.0000
48.1300 294.0000 1.0000
48.1400 283.0000 1.0000
48.1500 303.0000 1.0000
48.1600 303.0000 1.0000
48.1700 288.0000 1.0000
48.1800 311.0000 1.0000
48.1900 310.0000 1.0000
48.2000 306.0000 1.0000
48.2100 294.0000 1.0000
48.2200 288.0000 1.0000
48.2300 304.0000 1.0000
48.2400 260.0000 1.0000
48.2500 311.0000 1.0000
48.2600 274.0000 1.0000
48.2700 306.0000 1.0000
48.2800 284.0000 1.0000
48.2900 271.0000 1.0000
48.3000 302.0000 1.0000
48.3100 293.0000 1.0000
48.3200 273.0000 1.0000
48.3300 295.0000 1.0000
48.3400 307.0000 1.0000
48.3500 296.0000 1.0000
48.3600 291.0000 1.0000
48.3700 262.0000 1.0000
48.3800 274.0000 1.0000
48.3900 292.0000 1.0000
48.4000 319.0000 1.0000
48.4100 282.0000 1.0000
48.4200 304.0000 1.0000
48.4300 314.0000 1.0000
48.4400 315.0000 1.0000
48.4500 328.0000 1.0000
48.4600 276.0000 1.0000
48.4700 284.0000 1.0000
48.4800 284.0000 1.0000
48.4900 290.0000 1.0000
48.5000 280.0000 1.0000
48.5100 269.0000 1.0000
48.5200 277.0000 1.0000
48.5300 266.0000 1.0000
48.5400 277.0000 1.0000
48.5500 299.0000 1.0000
48.5600 303.0000 1.0000
48.5700 287.0000 1.0000
48.5800 278.0000 1.0000
48.5900 281.0000 1.0000
48.6000 291.0000 1.0000
48.6100 282.0000 1.0000
48.6200 298.0000 1.0000
48.6300 304.0000 1.0000
48.6400 323.0000 1.0000
48.6500 313.0000 1.0000
48.6600 303.0000 1.0000
48.6700 274.0000 1.0000
48.6800 297.0000 1.0000
48.6900 314.0000 1.0000
48.7000 277.0000 1.0000
48.7100 284.0000 1.0000
48.7200 293.0000 1.0000
48.7300 293.0000 1.0000
48.7400 308.0000 1.0000
48.7500 297.0000 1.0000
48.7600 296.0000 1.0000
48.7700 312.0000 1.0000
48.7800 284.0000 1.0000
48.7900 258.0000 1.0000
48.8000 298.0000 1.0000
48.8100 270.0000 1.0000
48.8200 303.0000 1.0000
48.8300 294.0000 1.0000
48.8400 285.0000 1.0000
48.8500 296.0000 1.0000
48.8600 297.0000 1.0000
48.8700 264.0000 1.0000
48.8800 314.0000 1.0000
48.8900 321.0000 1.0000
48.9000 272.0000 1.0000
48.9100 276.0000 1.0000
48.9200 286.0000 1.0000
48.9300 296.0000 1.0000
48.9400 294.0000 1.0000
48.9500 295.0000 1.0000
48.9600 256.0000 1.0000
48.9700 273.0000 1.0000
48.9800 291.0000 1.0000
48.9900 277.0000 1.0000
49.0000 317.0000 1.0000
49.0100 298.0000 1.0000
49.0200 279.0000 1.0000
49.0300 313.0000 1.0000
49.0400 287.0000 1.0000
49.0500 274.0000 1.0000
49.0600 275.0000 1.0000
49.0700 294.0000 1.0000
49.0800 309.0000 1.0000
49.0900 288.0000 1.0000
49.1000 305.0000 1.0000
49.1100 294.0000 1.0000
49.1200 284.0000 1.0000
49.1300 267.0000 1.0000
49.1400 292.0000 1.0000
49.1500 275.0000 1.0000
49.1600 285.0000 1.0000
49.1700 314.0000 1.0000
49.1800 289.0000 1.0000
49.1900 272.0000 1.0000
49.2000 282.0000 1.0000
49.2100 286.0000 1.0000
49.2200 297.0000 1.0000
49.2300 305.0000 1.0000
49.2400 320.0000 1.0000
49.2500 271.0000 1.0000
49.2600 291.0000 1.0000
49.2700 285.0000 1.0000
49.2800 269.0000 1.0000
49.2900 294.0000 1.0000
49.3000 288.0000 1.0000
49.3100 292.0000 1.0000
49.3200 305.0000 1.0000
49.3300 282.0000 1.0000
49.3400 265.0000 1.0000
49.3500 281.0000 1.0000
49.3600 295.0000 1.0000
49.3700 296.0000 1.0000
49.3800 301.0000 1.0000
49.3900 283.0000 1.0000
49.4000 283.0000 1.0000
49.4100 259.0000 1.0000
49.4200 293.0000 1.0000
49.4300 264.0000 1.0000
49.4400 284.0000 1.0000
49.4500 284.0000 1.0000
49.4600 293.0000 1.0000
49.4700 310.0000 1.0000
49.4800 280.0000 1.0000
49.4900 259.0000 1.0000
49.5000 279.0000 1.0000
49.5100 296.0000 1.0000
49.5200 291.0000 1.0000
49.5300 292.0000 1.0000
49.5400 300.0000 1.0000
49.5500 275.0000 1.0000
49.5600 263.0000 1.0000
49.5700 296.0000 1.0000
49.5800 292.0000 1.0000
49.5900 273.0000 1.0000
49.6000 262.0000 1.0000
49.6100 264.0000 1.0000
49.6200 275.0000 1.0000
49.6300 284.0000 1.0000
49.6400 281.0000 1.0000
49.6500 274.0000 1.0000
49.6600 281.0000 1.0000
49.6700 322.0000 1.0000
49.6800 281.0000 1.0000
49.6900 282.0000 1.0000
49.7000 290.0000 1.0000
49.7100 268.0000 1.0000
49.7200 266.0000 1.0000
49.7300 309.0000 1.0000
49.7400 277.0000 1.0000
49.7500 268.0000 1.0000
49.7600 292.0000 1.0000
49.7700 274.0000 1.0000
49.7800 269.0000 1.0000
49.7900 313.0000 1.0000
49.8000 296.0000 1.0000
49.8100 302.0000 1.0000
49.8200 293.0000 1.0000
49.8300 279.0000 1.0000
49.8400 288.0000 1.0000
49.8500 282.0000 1.0000
49.8600 282.0000 1.0000
49.8700 296.0000 1.0000
49.8800 286.0000 1.0000
49.8900 312.0000 1.0000
49.9000 284.0000 1.0000
49.9100 280.0000 1.0000
49.9200 306.0000 1.0000
49.9300 284.0000 1.0000
49.9400 290.0000 1.0000
49.9500 267.0000 1.0000
49.9600 300.0000 1.0000
49.9700 310.0000 1.0000
49.9800 246.0000 1.0000
49.9900 261.0000 1.0000
50.0000 277.0000 1.0000
50.0100 301.0000 1.0000
50.0200 319.0000 1.0000
50.0300 273.0000 1.0000
50.0400 284.0000 1.0000
50.0500 299.0000 1.0000
50.0600 271.0000 1.0000
50.0700 306.0000 1.0000
50.0800 276.0000 1.0000
50.0900 291.0000 1.0000
50.1000 256.0000 1.0000
50.1100 319.0000 1.0000
50.1200 317.0000 1.0000
50.1300 304.0000 1.0000
50.1400 315.0000 1.0000
50.1500 306.0000 1.0000
50.1600 315.0000 1.0000
50.1700 291.0000 1.0000
50.1800 306.0000 1.0000
50.1900 298.0000 1.0000
50.2000 285.0000 1.0000
50.2100 275.0000 1.0000
50.2200 294.0000 1.0000
50.2300 293.0000 1.0000
50.2400 293.0000 1.0000
50.2500 288.0000 1.0000
50.2600 307.0000 1.0000
50.2700 301.0000 1.0000
50.2800 321.0000 1.0000
50.2900 302.0000 1.0000
50.3000 301.0000 1.0000
50.3100 318.0000 1.0000
50.3200 316.0000 1.0000
50.3300 281.0000 1.0000
50.3400 299.0000 1.0000
50.3500 308.0000 1.0000
50.3600 280.0000 1.0000
50.3700 260.0000 1.0000
50.3800 335.0000 1.0000
50.3900 297.0000 1.0000
50.4000 267.0000 1.0000
50.4100 299.0000 1.0000
50.4200 288.0000 1.0000
50.4300 313.0000 1.0000
50.4400 297.0000 1.0000
50.4500 300.0000 1.0000
50.4600 308.0000 1.0000
50.4700 288.0000 1.0000
50.4800 290.0000 1.0000
50.4900 301.0000 1.0000
50.5000 300.0000 1.0000
50.5100 300.0000 1.0000
50.5200 301.0000 1.0000
50.5300 319.0000 1.0000
50.5400 308.0000 1.0000
50.5500 315.0000 1.0000
50.5600 305.0000 1.0000
50.5700 302.0000 1.0000
50.5800 288.0000 1.0000
50.5900 286.0000 1.0000
50.6000 281.0000 1.0000
50.6100 304.0000 1.0000
50.6200 299.0000 1.0000
50.6300 289.0000 1.0000
50.6400 298.0000 1.0000
50.6500 294.0000 1.0000
50.6600 279.0000 1.0000
50.6700 294.0000 1.0000
50.6800 293.0000 1.0000
50.6900 292.0000 1.0000
50.7000 295.0000 1.0000
50.7100 288.0000 1.0000
50.7200 290.0000 1.0000
50.7300 290.0000 1.0000
50.7400 294.0000 1.0000
50.7500 270.0000 1.0000
50.7600 294.0000 1.0000
50.7700 290.0000 1.0000
50.7800 289.0000 1.0000
50.7900 279.0000 1.0000
50.8000 291.0000 1.0000
50.8100 292.0000 1.0000
50.8200 301.0000 1.0000
50.8300 276.0000 1.0000
50.8400 321.0000 1.0000
50.8500 300.0000 1.0000
50.8600 297.0000 1.0000
50.8700 279.0000 1.0000
50.8800 284.0000 1.0000
50.8900 303.0000 1.0000
50.9000 317.0000 1.0000
50.9100 275.0000 1.0000
50.9200 292.0000 1.0000
50.9300 292.0000 1.0000
50.9400 281.0000 1.0000
50.9500 310.0000 1.0000
50.9600 294.0000 1.0000
50.9700 293.0000 1.0000
50.9800 271.0000 1.0000
50.9900 321.0000 1.0000
51.0000 287.0000 1.0000
51.0100 297.0000 1.0000
51.0200 275.0000 1.0000
51.0300 320.0000 1.0000
51.0400 294.0000 1.0000
51.0500 278.0000 1.0000
51.0600 297.0000 1.0000
51.0700 279.0000 1.0000
51.0800 300.0000 1.0000
51.0900 306.0000 1.0000
51.1000 284.0000 1.0000
51.1100 298.0000 1.0000
51.1200 292.0000 1.0000
51.1300 292.0000 1.0000
51.1400 282.0000 1.0000
51.1500 285.0000 1.0000
51.1600 291.0000 1.0000
51.1700 295.0000 1.0000
51.1800 302.0000 1.0000
51.1900 289.0000 1.0000
51.2000 304.0000 1.0000
51.2100 285.0000 1.0000
51.2200 299.0000 1.0000
51.2300 300.0000 1.0000
51.2400 318.0000 1.0000
51.2500 309.0000 1.0000
51.2600 280.0000 1.0000
51.2700 284.0000 1.0000
51.2800 296.0000 1.0000
51.2900 286.0000 1.0000
51.3000 309.0000 1.0000
51.3100 300.0000 1.0000
51.3200 291.0000 1.0000
51.3300 286.0000 1.0000
51.3400 250.0000 1.0000
51.3500 266.0000 1.0000
51.3600 271.0000 1.0000
51.3700 266.0000 1.0000
51.3800 280.0000 1.0000
51.3900 306.0000 1.0000
51.4000 287.0000 1.0000
51.4100 305.0000 1.0000
51.4200 286.0000 1.0000
51.4300 277.0000 1.0000
51.4400 303.0000 1.0000
51.4500 309.0000 1.0000
51.4600 317.0000 1.0000
51.4700 286.0000 1.0000
51.4800 303.0000 1.0000
51.4900 267.0000 1.0000
51.5000 275.0000 1.0000
51.5100 306.0000 1.0000
51.5200 293.0000 1.0000
51.5300 289.0000 1.0000
51.5400 274.0000 1.0000
51.5500 287.0000 1.0000
51.5600 287.0000 1.0000
51.5700 285.0000 1.0000
51.5800 321.0000 1.0000
51.5900 296.0000 1.0000
51.6000 291.0000 1.0000
51.6100 290.0000 1.0000
51.6200 294.0000 1.0000
51.6300 325.0000 1.0000
51.6400 336.0000 1.0000
51.6500 312.0000 1.0000
51.6600 312.0000 1.0000
51.6700 310.0000 1.0000
51.6800 339.0000 1.0000
51.6900 314.0000 1.0000
51.7000 322.0000 1.0000
51.7100 320.0000 1.0000
51.7200 306.0000 1.0000
51.7300 327.0000 1.0000
51.7400 320.0000 1.0000
51.7500 314.0000 1.0000
51.7600 306.0000 1.0000
51.7700 328.0000 1.0000
51.7800 311.0000 1.0000
51.7900 331.0000 1.0000
51.8000 318.0000 1.0000
51.8100 312.0000 1.0000
51.8200 329.0000 1.0000
51.8300 314.0000 1.0000
51.8400 330.0000 1.0000
51.8500 351.0000 1.0000
51.8600 329.0000 1.0000
51.8700 329.0000 1.0000
51.8800 351.0000 1.0000
51.8900 380.0000 1.0000
51.9000 358.0000 1.0000
51.9100 343.0000 1.0000
51.9200 356.0000 1.0000
51.9300 378.0000 1.0000
51.9400 401.0000 1.0000
51.9500 402.0000 1.0000
51.9600 384.0000 1.0000
51.9700 422.0000 1.0000
51.9800 434.0000 1.0000
51.9900 420.0000 1.0000
52.0000 432.0000 1.0000
52.0100 480.0000 1.0000
52.0200 543.0000 1.0000
52.0300 489.0000 1.0000
52.0400 520.0000 1.0000
52.0500 581.0000 1.0000
52.0600 547.0000 1.0000
52.0700 556.0000 1.0000
52.0800 583.0000 1.0000
52.0900 667.0000 1.0000
52.1000 717.0000 1.0000
52.1100 712.0000 1.0000
52.1200 759.0000 1.0000
52.1300 820.0000 1.0000
52.1400 913.0000 1.0000
52.1500 914.0000 1.0000
52.1600 984.0000 1.0000
52.1700 1063.0000 1.0000
52.1800 1175.0000 1.0000
52.1900 1303.0000 1.0000
52.2000 1363.0000 1.0000
52.2100 1553.0000 1.0000
52.2200 1649.0000 1.0000
52.2300 1825.0000 1.0000
52.2400 1896.0000 1.0000
52.2500 2044.0000 1.0000
52.2600 2058.0000 1.0000
52.2700 2159.0000 1.0000
52.2800 2262.0000 1.0000
52.2900 2319.0000 1.0000
52.3000 2286.0000 1.0000
52.3100 2243.0000 1.0000
52.3200 2150.0000 1.0000
52.3300 2033.0000 1.0000
52.3400 2012.0000 1.0000
52.3500 1978.0000 1.0000
52.3600 1916.0000 1.0000
52.3700 1897.0000 1.0000
52.3800 1771.0000 1.0000
52.3900 1755.0000 1.0000
52.4000 1703.0000 1.0000
52.4100 1697.0000 1.0000
52.4200 1658.0000 1.0000
52.4300 1556.0000 1.0000
52.4400 1438.0000 1.0000
52.4500 1354.0000 1.0000
52.4600 1271.0000 1.0000
52.4700 1212.0000 1.0000
52.4800 1120.0000 1.0000
52.4900 1092.0000 1.0000
52.5000 1016.0000 1.0000
52.5100 906.0000 1.0000
52.5200 802.0000 1.0000
52.5300 770.0000 1.0000
52.5400 734.0000 1.0000
52.5500 718.0000 1.0000
52.5600 669.0000 1.0000
52.5700 621.0000 1.0000
52.5800 605.0000 1.0000
52.5900 609.0000 1.0000
52.6000 556.0000 1.0000
52.6100 514.0000 1.0000
52.6200 493.0000 1.0000
52.6300 493.0000 1.0000
52.6400 468.0000 1.0000
52.6500 449.0000 1.0000
52.6600 459.0000 1.0000
52.6700 434.0000 1.0000
52.6800 426.0000 1.0000
52.6900 439.0000 1.0000
52.7000 405.0000 1.0000
52.7100 412.0000 1.0000
52.7200 377.0000 1.0000
52.7300 356.0000 1.0000
52.7400 396.0000 1.0000
52.7500 363.0000 1.0000
52.7600 360.0000 1.0000
52.7700 360.0000 1.0000
52.7800 351.0000 1.0000
52.7900 330.0000 1.0000
52.8000 335.0000 1.0000
52.8100 357.0000 1.0000
52.8200 351.0000 1.0000
52.8300 347.0000 1.0000
52.8400 346.0000 1.0000
52.8500 329.0000 1.0000
52.8600 328.0000 1.0000
52.8700 350.0000 1.0000
52.8800 348.0000 1.0000
52.8900 345.0000 1.0000
52.9000 319.0000 1.0000
52.9100 331.0000 1.0000
52.9200 351.0000 1.0000
52.9300 302.0000 1.0000
52.9400 326.0000 1.0000
52.9500 312.0000 1.0000
52.9600 326.0000 1.0000
52.9700 318.0000 1.0000
52.9800 314.0000 1.0000
52.9900 319.0000 1.0000
53.0000 318.0000 1.0000
53.0100 313.0000 1.0000
53.0200 310.0000 1.0000
53.0300 301.0000 1.0000
53.0400 324.0000 1.0000
53.0500 323.0000 1.0000
53.0600 313.0000 1.0000
53.0700 311.0000 1.0000
53.0800 296.0000 1.0000
53.0900 318.0000 1.0000
53.1000 306.0000 1.0000
53.1100 293.0000 1.0000
53.1200 293.0000 1.0000
53.1300 300.0000 1.0000
53.1400 306.0000 1.0000
53.1500 295.0000 1.0000
53.1600 302.0000 1.0000
53.1700 286.0000 1.0000
53.1800 317.0000 1.0000
53.1900 287.0000 1.0000
53.2000 303.0000 1.0000
53.2100 295.0000 1.0000
53.2200 282.0000 1.0000
53.2300 303.0000 1.0000
53.2400 296.0000 1.0000
53.2500 286.0000 1.0000
53.2600 299.0000 1.0000
53.2700 300.0000 1.0000
53.2800 291.0000 1.0000
53.2900 275.0000 1.0000
53.3000 277.0000 1.0000
53.3100 295.0000 1.0000
53.3200 316.0000 1.0000
53.3300 297.0000 1.0000
53.3400 282.0000 1.0000
53.3500 275.0000 1.0000
53.3600 296.0000 1.0000
53.3700 283.0000 1.0000
53.3800 290.0000 1.0000
53.3900 302.0000 1.0000
53.4000 302.0000 1.0000
53.4100 289.0000 1.0000
53.4200 282.0000 1.0000
53.4300 287.0000 1.0000
53.4400 282.0000 1.0000
53.4500 287.0000 1.0000
53.4600 279.0000 1.0000
53.4700 277.0000 1.0000
53.4800 295.0000 1.0000
53.4900 281.0000 1.0000
53.5000 296.0000 1.0000
53.5100 313.0000 1.0000
53.5200 292.0000 1.0000
53.5300 291.0000 1.0000
53.5400 273.0000 1.0000
53.5500 288.0000 1.0000
53.5600 257.0000 1.0000
53.5700 255.0000 1.0000
53.5800 288.0000 1.0000
53.5900 289.0000 1.0000
53.6000 286.0000 1.0000
53.6100 280.0000 1.0000
53.6200 301.0000 1.0000
53.6300 280.0000 1.0000
53.6400 275.0000 1.0000
53.6500 271.0000 1.0000
53.6600 295.0000 1.0000
53.6700 287.0000 1.0000
53.6800 283.0000 1.0000
53.6900 282.0000 1.0000
53.7000 264.0000 1.0000
53.7100 283.0000 1.0000
53.7200 261.0000 1.0000
53.7300 278.0000 1.0000
53.7400 282.0000 1.0000
53.7500 282.0000 1.0000
53.7600 284.0000 1.0000
53.7700 280.0000 1.0000
53.7800 315.0000 1.0000
53.7900 289.0000 1.0000
53.8000 269.0000 1.0000
53.8100 261.0000 1.0000
53.8200 277.0000 1.0000
53.8300 260.0000 1.0000
53.8400 277.0000 1.0000
53.8500 302.0000 1.0000
53.8600 303.0000 1.0000
53.8700 295.0000 1.0000
53.8800 288.0000 1.0000
53.8900 301.0000 1.0000
53.9000 294.0000 1.0000
53.9100 266.0000 1.0000
53.9200 272.0000 1.0000
53.9300 278.0000 1.0000
53.9400 276.0000 1.0000
53.9500 318.0000 1.0000
53.9600 284.0000 1.0000
53.9700 297.0000 1.0000
53.9800 292.0000 1.0000
53.9900 284.0000 1.0000
54.0000 268.0000 1.0000
54.0100 275.0000 1.0000
54.0200 249.0000 1.0000
54.0300 279.0000 1.0000
54.0400 281.0000 1.0000
54.0500 281.0000 1.0000
54.0600 294.0000 1.0000
54.0700 269.0000 1.0000
54.0800 285.0000 1.0000
54.0900 282.0000 1.0000
54.1000 292.0000 1.0000
54.1100 298.0000 1.0000
54.1200 277.0000 1.0000
54.1300 287.0000 1.0000
54.1400 298.0000 1.0000
54.1500 284.0000 1.0000
54.1600 303.0000 1.0000
54.1700 295.0000 1.0000
54.1800 286.0000 1.0000
54.1900 281.0000 1.0000
54.2000 282.0000 1.0000
54.2100 295.0000 1.0000
54.2200 267.0000 1.0000
54.2300 304.0000 1.0000
54.2400 282.0000 1.0000
54.2500 297.0000 1.0000
54.2600 295.0000 1.0000
54.2700 285.0000 1.0000
54.2800 262.0000 1.0000
54.2900 283.0000 1.0000
54.3000 295.0000 1.0000
54.3100 298.0000 1.0000
54.3200 320.0000 1.0000
54.3300 273.0000 1.0000
54.3400 287.0000 1.0000
54.3500 287.0000 1.0000
54.3600 287.0000 1.0000
54.3700 325.0000 1.0000
54.3800 331.0000 1.0000
54.3900 302.0000 1.0000
54.4000 271.0000 1.0000
54.4100 256.0000 1.0000
54.4200 289.0000 1.0000
54.4300 292.0000 1.0000
54.4400 273.0000 1.0000
54.4500 295.0000 1.0000
54.4600 285.0000 1.0000
54.4700 290.0000 1.0000
54.4800 292.0000 1.0000
54.4900 282.0000 1.0000
54.5000 286.0000 1.0000
54.5100 276.0000 1.0000
54.5200 281.0000 1.0000
54.5300 275.0000 1.0000
54.5400 309.0000 1.0000
54.5500 292.0000 1.0000
54.5600 275.0000 1.0000
54.5700 281.0000 1.0000
54.5800 291.0000 1.0000
54.5900 291.0000 1.0000
54.6000 290.0000 1.0000
54.6100 280.0000 1.0000
54.6200 294.0000 1.0000
54.6300 293.0000 1.0000
54.6400 314.0000 1.0000
54.6500 303.0000 1.0000
54.6600 329.0000 1.0000
54.6700 322.0000 1.0000
54.6800 280.0000 1.0000
54.6900 295.0000 1.0000
54.7000 301.0000 1.0000
54.7100 296.0000 1.0000
54.7200 276.0000 1.0000
54.7300 290.0000 1.0000
54.7400 307.0000 1.0000
54.7500 304.0000 1.0000
54.7600 294.0000 1.0000
54.7700 291.0000 1.0000
54.7800 311.0000 1.0000
54.7900 300.0000 1.0000
54.8000 315.0000 1.0000
54.8100 299.0000 1.0000
54.8200 296.0000 1.0000
54.8300 312.0000 1.0000
54.8400 306.0000 1.0000
54.8500 299.0000 1.0000
54.8600 295.0000 1.0000
54.8700 307.0000 1.0000
54.8800 299.0000 1.0000
54.8900 307.0000 1.0000
54.9000 322.0000 1.0000
54.9100 332.0000 1.0000
54.9200 332.0000 1.0000
54.9300 311.0000 1.0000
54.9400 302.0000 1.0000
54.9500 322.0000 1.0000
54.9600 333.0000 1.0000
54.9700 321.0000 1.0000
54.9800 304.0000 1.0000
54.9900 306.0000 1.0000
55.0000 318.0000 1.0000
55.0100 318.0000 1.0000
55.0200 345.0000 1.0000
55.0300 306.0000 1.0000
55.0400 289.0000 1.0000
55.0500 324.0000 1.0000
55.0600 337.0000 1.0000
55.0700 301.0000 1.0000
55.0800 315.0000 1.0000
55.0900 331.0000 1.0000
55.1000 349.0000 1.0000
55.1100 328.0000 1.0000
55.1200 322.0000 1.0000
55.1300 330.0000 1.0000
55.1400 339.0000 1.0000
55.1500 340.0000 1.0000
55.1600 361.0000 1.0000
55.1700 346.0000 1.0000
55.1800 368.0000 1.0000
55.1900 404.0000 1.0000
55.2000 377.0000 1.0000
55.2100 385.0000 1.0000
55.2200 414.0000 1.0000
55.2300 422.0000 1.0000
55.2400 400.0000 1.0000
55.2500 394.0000 1.0000
55.2600 386.0000 1.0000
55.2700 432.0000 1.0000
55.2800 416.0000 1.0000
55.2900 409.0000 1.0000
55.3000 419.0000 1.0000
55.3100 439.0000 1.0000
55.3200 393.0000 1.0000
55.3300 396.0000 1.0000
55.3400 384.0000 1.0000
55.3500 388.0000 1.0000
55.3600 435.0000 1.0000
55.3700 405.0000 1.0000
55.3800 392.0000 1.0000
55.3900 404.0000 1.0000
55.4000 406.0000 1.0000
55.4100 400.0000 1.0000
55.4200 362.0000 1.0000
55.4300 384.0000 1.0000
55.4400 367.0000 1.0000
55.4500 374.0000 1.0000
55.4600 346.0000 1.0000
55.4700 366.0000 1.0000
55.4800 396.0000 1.0000
55.4900 381.0000 1.0000
55.5000 365.0000 1.0000
55.5100 362.0000 1.0000
55.5200 344.0000 1.0000
55.5300 328.0000 1.0000
55.5400 345.0000 1.0000
55.5500 364.0000 1.0000
55.5600 333.0000 1.0000
55.5700 332.0000 1.0000
55.5800 329.0000 1.0000
55.5900 310.0000 1.0000
55.6000 311.0000 1.0000
55.6100 326.0000 1.0000
55.6200 301.0000 1.0000
55.6300 321.0000 1.0000
55.6400 315.0000 1.0000
55.6500 302.0000 1.0000
55.6600 334.0000 1.0000
55.6700 302.0000 1.0000
55.6800 287.0000 1.0000
55.6900 285.0000 1.0000
55.7000 307.0000 1.0000
55.7100 283.0000 1.0000
55.7200 261.0000 1.0000
55.7300 260.0000 1.0000
55.7400 261.0000 1.0000
55.7500 280.0000 1.0000
55.7600 284.0000 1.0000
55.7700 274.0000 1.0000
55.7800 277.0000 1.0000
55.7900 314.0000 1.0000
55.8000 277.0000 1.0000
55.8100 284.0000 1.0000
55.8200 324.0000 1.0000
55.8300 296.0000 1.0000
55.8400 284.0000 1.0000
55.8500 275.0000 1.0000
55.8600 296.0000 1.0000
55.8700 302.0000 1.0000
55.8800 283.0000 1.0000
55.8900 277.0000 1.0000
55.9000 285.0000 1.0000
55.9100 290.0000 1.0000
55.9200 305.0000 1.0000
55.9300 293.0000 1.0000
55.9400 304.0000 1.0000
55.9500 286.0000 1.0000
55.9600 279.0000 1.0000
55.9700 262.0000 1.0000
55.9800 275.0000 1.0000
55.9900 307.0000 1.0000
56.0000 291.0000 1.0000
56.0100 275.0000 1.0000
56.0200 253.0000 1.0000
56.0300 272.0000 1.0000
56.0400 305.0000 1.0000
56.0500 275.0000 1.0000
56.0600 297.0000 1.0000
56.0700 275.0000 1.0000
56.0800 256.0000 1.0000
56.0900 260.0000 1.0000
56.1000 286.0000 1.0000
56.1100 268.0000 1.0000
56.1200 272.0000 1.0000
56.1300 265.0000 1.0000
56.1400 257.0000 1.0000
56.1500 257.0000 1.0000
56.1600 278.0000 1.0000
56.1700 254.0000 1.0000
56.1800 274.0000 1.0000
56.1900 265.0000 1.0000
56.2000 263.0000 1.0000
56.2100 257.0000 1.0000
56.2200 268.0000 1.0000
56.2300 294.0000 1.0000
56.2400 293.0000 1.0000
56.2500 259.0000 1.0000
56.2600 262.0000 1.0000
56.2700 307.0000 1.0000
56.2800 288.0000 1.0000
56.2900 277.0000 1.0000
56.3000 259.0000 1.0000
56.3100 260.0000 1.0000
56.3200 303.0000 1.0000
56.3300 295.0000 1.0000
56.3400 275.0000 1.0000
56.3500 254.0000 1.0000
56.3600 262.0000 1.0000
56.3700 284.0000 1.0000
56.3800 276.0000 1.0000
56.3900 254.0000 1.0000
56.4000 309.0000 1.0000
56.4100 270.0000 1.0000
56.4200 268.0000 1.0000
56.4300 281.0000 1.0000
56.4400 286.0000 1.0000
56.4500 304.0000 1.0000
56.4600 261.0000 1.0000
56.4700 257.0000 1.0000
56.4800 264.0000 1.0000
56.4900 270.0000 1.0000
56.5000 264.0000 1.0000
56.5100 270.0000 1.0000
56.5200 255.0000 1.0000
56.5300 261.0000 1.0000
56.5400 281.0000 1.0000
56.5500 268.0000 1.0000
56.5600 289.0000 1.0000
56.5700 250.0000 1.0000
56.5800 246.0000 1.0000
56.5900 273.0000 1.0000
56.6000 247.0000 1.0000
56.6100 290.0000 1.0000
56.6200 295.0000 1.0000
56.6300 283.0000 1.0000
56.6400 261.0000 1.0000
56.6500 274.0000 1.0000
56.6600 261.0000 1.0000
56.6700 258.0000 1.0000
56.6800 256.0000 1.0000
56.6900 280.0000 1.0000
56.7000 300.0000 1.0000
56.7100 326.0000 1.0000
56.7200 286.0000 1.0000
56.7300 251.0000 1.0000
56.7400 267.0000 1.0000
56.7500 262.0000 1.0000
56.7600 285.0000 1.0000
56.7700 282.0000 1.0000
56.7800 261.0000 1.0000
56.7900 287.0000 1.0000
56.8000 259.0000 1.0000
56.8100 275.0000 1.0000
56.8200 242.0000 1.0000
56.8300 263.0000 1.0000
56.8400 238.0000 1.0000
56.8500 266.0000 1.0000
56.8600 276.0000 1.0000
56.8700 266.0000 1.0000
56.8800 257.0000 1.0000
56.8900 242.0000 1.0000
56.9000 263.0000 1.0000
56.9100 254.0000 1.0000
56.9200 280.0000 1.0000
56.9300 270.0000 1.0000
56.9400 283.0000 1.0000
56.9500 281.0000 1.0000
56.9600 259.0000 1.0000
56.9700 257.0000 1.0000
56.9800 286.0000 1.0000
56.9900 293.0000 1.0000
57.0000 262.0000 1.0000
57.0100 293.0000 1.0000
57.0200 285.0000 1.0000
57.0300 248.0000 1.0000
57.0400 238.0000 1.0000
57.0500 257.0000 1.0000
57.0600 270.0000 1.0000
57.0700 283.0000 1.0000
57.0800 282.0000 1.0000
57.0900 319.0000 1.0000
57.1000 271.0000 1.0000
57.1100 257.0000 1.0000
57.1200 258.0000 1.0000
57.1300 256.0000 1.0000
57.1400 282.0000 1.0000
57.1500 271.0000 1.0000
57.1600 240.0000 1.0000
57.1700 261.0000 1.0000
57.1800 283.0000 1.0000
57.1900 270.0000 1.0000
57.2000 270.0000 1.0000
57.2100 270.0000 1.0000
57.2200 256.0000 1.0000
57.2300 265.0000 1.0000
57.2400 250.0000 1.0000
57.2500 262.0000 1.0000
57.2600 287.0000 1.0000
57.2700 287.0000 1.0000
57.2800 267.0000 1.0000
57.2900 261.0000 1.0000
57.3000 246.0000 1.0000
57.3100 273.0000 1.0000
57.3200 292.0000 1.0000
57.3300 271.0000 1.0000
57.3400 270.0000 1.0000
57.3500 251.0000 1.0000
57.3600 269.0000 1.0000
57.3700 292.0000 1.0000
57.3800 259.0000 1.0000
57.3900 289.0000 1.0000
57.4000 268.0000 1.0000
57.4100 267.0000 1.0000
57.4200 254.0000 1.0000
57.4300 279.0000 1.0000
57.4400 264.0000 1.0000
57.4500 264.0000 1.0000
57.4600 304.0000 1.0000
57.4700 263.0000 1.0000
57.4800 265.0000 1.0000
57.4900 270.0000 1.0000
57.5000 254.0000 1.0000
57.5100 273.0000 1.0000
57.5200 268.0000 1.0000
57.5300 252.0000 1.0000
57.5400 276.0000 1.0000
57.5500 271.0000 1.0000
57.5600 274.0000 1.0000
57.5700 283.0000 1.0000
57.5800 282.0000 1.0000
57.5900 296.0000 1.0000
57.6000 268.0000 1.0000
57.6100 305.0000 1.0000
57.6200 282.0000 1.0000
57.6300 264.0000 1.0000
57.6400 266.0000 1.0000
57.6500 263.0000 1.0000
57.6600 268.0000 1.0000
57.6700 272.0000 1.0000
57.6800 259.0000 1.0000
57.6900 261.0000 1.0000
57.7000 270.0000 1.0000
57.7100 280.0000 1.0000
57.7200 256.0000 1.0000
57.7300 296.0000 1.0000
57.7400 280.0000 1.0000
57.7500 309.0000 1.0000
57.7600 238.0000 1.0000
57.7700 273.0000 1.0000
57.7800 275.0000 1.0000
57.7900 284.0000 1.0000
57.8000 278.0000 1.0000
57.8100 247.0000 1.0000
57.8200 272.0000 1.0000
57.8300 281.0000 1.0000
57.8400 267.0000 1.0000
57.8500 263.0000 1.0000
57.8600 257.0000 1.0000
57.8700 275.0000 1.0000
57.8800 262.0000 1.0000
57.8900 263.0000 1.0000
57.9000 290.0000 1.0000
57.9100 248.0000 1.0000
57.9200 258.0000 1.0000
57.9300 289.0000 1.0000
57.9400 276.0000 1.0000
57.9500 266.0000 1.0000
57.9600 276.0000 1.0000
57.9700 285.0000 1.0000
57.9800 265.0000 1.0000
57.9900 272.0000 1.0000
58.0000 265.0000 1.0000
58.0100 249.0000 1.0000
58.0200 256.0000 1.0000
58.0300 255.0000 1.0000
58.0400 260.0000 1.0000
58.0500 269.0000 1.0000
58.0600 273.0000 1.0000
58.0700 265.0000 1.0000
58.0800 269.0000 1.0000
58.0900 278.0000 1.0000
58.1000 290.0000 1.0000
58.1100 289.0000 1.0000
58.1200 279.0000 1.0000
58.1300 280.0000 1.0000
58.1400 293.0000 1.0000
58.1500 265.0000 1.0000
58.1600 283.0000 1.0000
58.1700 285.0000 1.0000
58.1800 260.0000 1.0000
58.1900 292.0000 1.0000
58.2000 282.0000 1.0000
58.2100 287.0000 1.0000
58.2200 285.0000 1.0000
58.2300 265.0000 1.0000
58.2400 301.0000 1.0000
58.2500 289.0000 1.0000
58.2600 283.0000 1.0000
58.2700 259.0000 1.0000
58.2800 284.0000 1.0000
58.2900 264.0000 1.0000
58.3000 268.0000 1.0000
58.3100 279.0000 1.0000
58.3200 254.0000 1.0000
58.3300 251.0000 1.0000
58.3400 273.0000 1.0000
58.3500 276.0000 1.0000
58.3600 301.0000 1.0000
58.3700 252.0000 1.0000
58.3800 278.0000 1.0000
58.3900 299.0000 1.0000
58.4000 273.0000 1.0000
58.4100 285.0000 1.0000
58.4200 272.0000 1.0000
58.4300 262.0000 1.0000
58.4400 277.0000 1.0000
58.4500 264.0000 1.0000
58.4600 270.0000 1.0000
58.4700 272.0000 1.0000
58.4800 271.0000 1.0000
58.4900 296.0000 1.0000
58.5000 276.0000 1.0000
58.5100 287.0000 1.0000
58.5200 261.0000 1.0000
58.5300 282.0000 1.0000
58.5400 271.0000 1.0000
58.5500 289.0000 1.0000
58.5600 284.0000 1.0000
58.5700 273.0000 1.0000
58.5800 234.0000 1.0000
58.5900 238.0000 1.0000
58.6000 259.0000 1.0000
58.6100 244.0000 1.0000
58.6200 270.0000 1.0000
58.6300 269.0000 1.0000
58.6400 286.0000 1.0000
58.6500 275.0000 1.0000
58.6600 277.0000 1.0000
58.6700 273.0000 1.0000
58.6800 266.0000 1.0000
58.6900 266.0000 1.0000
58.7000 269.0000 1.0000
58.7100 279.0000 1.0000
58.7200 287.0000 1.0000
58.7300 261.0000 1.0000
58.7400 274.0000 1.0000
58.7500 261.0000 1.0000
58.7600 270.0000 1.0000
58.7700 283.0000 1.0000
58.7800 275.0000 1.0000
58.7900 293.0000 1.0000
58.8000 257.0000 1.0000
58.8100 246.0000 1.0000
58.8200 272.0000 1.0000
58.8300 269.0000 1.0000
58.8400 272.0000 1.0000
58.8500 276.0000 1.0000
58.8600 257.0000 1.0000
58.8700 270.0000 1.0000
58.8800 275.0000 1.0000
58.8900 273.0000 1.0000
58.9000 291.0000 1.0000
58.9100 249.0000 1.0000
58.9200 269.0000 1.0000
58.9300 258.0000 1.0000
58.9400 257.0000 1.0000
58.9500 257.0000 1.0000
58.9600 286.0000 1.0000
58.9700 268.0000 1.0000
58.9800 281.0000 1.0000
58.9900 286.0000 1.0000
59.0000 280.0000 1.0000
59.0100 279.0000 1.0000
59.0200 261.0000 1.0000
59.0300 285.0000 1.0000
59.0400 261.0000 1.0000
59.0500 287.0000 1.0000
59.0600 285.0000 1.0000
59.0700 284.0000 1.0000
59.0800 257.0000 1.0000
59.0900 245.0000 1.0000
59.1000 243.0000 1.0000
59.1100 277.0000 1.0000
59.1200 247.0000 1.0000
59.1300 245.0000 1.0000
59.1400 277.0000 1.0000
59.1500 272.0000 1.0000
59.1600 278.0000 1.0000
59.1700 267.0000 1.0000
59.1800 267.0000 1.0000
59.1900 273.0000 1.0000
59.2000 270.0000 1.0000
59.2100 262.0000 1.0000
59.2200 296.0000 1.0000
59.2300 281.0000 1.0000
59.2400 290.0000 1.0000
59.2500 263.0000 1.0000
59.2600 295.0000 1.0000
59.2700 270.0000 1.0000
59.2800 271.0000 1.0000
59.2900 265.0000 1.0000
59.3000 248.0000 1.0000
59.3100 291.0000 1.0000
59.3200 279.0000 1.0000
59.3300 259.0000 1.0000
59.3400 286.0000 1.0000
59.3500 261.0000 1.0000
59.3600 287.0000 1.0000
59.3700 274.0000 1.0000
59.3800 277.0000 1.0000
59.3900 266.0000 1.0000
59.4000 255.0000 1.0000
59.4100 259.0000 1.0000
59.4200 248.0000 1.0000
59.4300 289.0000 1.0000
59.4400 276.0000 1.0000
59.4500 288.0000 1.0000
59.4600 286.0000 1.0000
59.4700 257.0000 1.0000
59.4800 283.0000 1.0000
59.4900 256.0000 1.0000
59.5000 287.0000 1.0000
59.5100 278.0000 1.0000
59.5200 276.0000 1.0000
59.5300 281.0000 1.0000
59.5400 252.0000 1.0000
59.5500 265.0000 1.0000
59.5600 262.0000 1.0000
59.5700 277.0000 1.0000
59.5800 284.0000 1.0000
59.5900 251.0000 1.0000
59.6000 304.0000 1.0000
59.6100 284.0000 1.0000
59.6200 268.0000 1.0000
59.6300 264.0000 1.0000
59.6400 279.0000 1.0000
59.6500 292.0000 1.0000
59.6600 266.0000 1.0000
59.6700 280.0000 1.0000
59.6800 243.0000 1.0000
59.6900 265.0000 1.0000
59.7000 269.0000 1.0000
59.7100 254.0000 1.0000
59.7200 269.0000 1.0000
59.7300 263.0000 1.0000
59.7400 276.0000 1.0000
59.7500 259.0000 1.0000
59.7600 279.0000 1.0000
59.7700 254.0000 1.0000
59.7800 245.0000 1.0000
59.7900 266.0000 1.0000
59.8000 256.0000 1.0000
59.8100 266.0000 1.0000
59.8200 279.0000 1.0000
59.8300 285.0000 1.0000
59.8400 250.0000 1.0000
59.8500 288.0000 1.0000
59.8600 266.0000 1.0000
59.8700 273.0000 1.0000
59.8800 279.0000 1.0000
59.8900 288.0000 1.0000
59.9000 265.0000 1.0000
59.9100 249.0000 1.0000
59.9200 267.0000 1.0000
59.9300 266.0000 1.0000
59.9400 275.0000 1.0000
59.9500 260.0000 1.0000
59.9600 264.0000 1.0000
59.9700 264.0000 1.0000
59.9800 261.0000 1.0000
59.9900 254.0000 1.0000
60.0000 261.0000 1.0000
60.0100 263.0000 1.0000
60.0200 262.0000 1.0000
60.0300 276.0000 1.0000
60.0400 278.0000 1.0000
60.0500 276.0000 1.0000
60.0600 259.0000 1.0000
60.0700 261.0000 1.0000
60.0800 264.0000 1.0000
60.0900 245.0000 1.0000
60.1000 280.0000 1.0000
60.1100 266.0000 1.0000
60.1200 288.0000 1.0000
60.1300 264.0000 1.0000
60.1400 294.0000 1.0000
60.1500 251.0000 1.0000
60.1600 265.0000 1.0000
60.1700 283.0000 1.0000
60.1800 274.0000 1.0000
60.1900 287.0000 1.0000
60.2000 280.0000 1.0000
60.2100 287.0000 1.0000
60.2200 247.0000 1.0000
60.2300 261.0000 1.0000
60.2400 237.0000 1.0000
60.2500 260.0000 1.0000
60.2600 274.0000 1.0000
60.2700 255.0000 1.0000
60.2800 259.0000 1.0000
60.2900 297.0000 1.0000
60.3000 277.0000 1.0000
60.3100 246.0000 1.0000
60.3200 252.0000 1.0000
60.3300 258.0000 1.0000
60.3400 243.0000 1.0000
60.3500 255.0000 1.0000
60.3600 257.0000 1.0000
60.3700 261.0000 1.0000
60.3800 289.0000 1.0000
60.3900 242.0000 1.0000
60.4000 292.0000 1.0000
60.4100 290.0000 1.0000
60.4200 262.0000 1.0000
60.4300 281.0000 1.0000
60.4400 275.0000 1.0000
60.4500 269.0000 1.0000
60.4600 241.0000 1.0000
60.4700 294.0000 1.0000
60.4800 246.0000 1.0000
60.4900 251.0000 1.0000
60.5000 256.0000 1.0000
60.5100 268.0000 1.0000
60.5200 275.0000 1.0000
60.5300 247.0000 1.0000
60.5400 256.0000 1.0000
60.5500 271.0000 1.0000
60.5600 298.0000 1.0000
60.5700 252.0000 1.0000
60.5800 289.0000 1.0000
60.5900 294.0000 1.0000
60.6000 245.0000 1.0000
60.6100 265.0000 1.0000
60.6200 255.0000 1.0000
60.6300 265.0000 1.0000
60.6400 270.0000 1.0000
60.6500 240.0000 1.0000
60.6600 261.0000 1.0000
60.6700 272.0000 1.0000
60.6800 259.0000 1.0000
60.6900 242.0000 1.0000
60.7000 256.0000 1.0000
60.7100 267.0000 1.0000
60.7200 290.0000 1.0000
60.7300 281.0000 1.0000
60.7400 274.0000 1.0000
60.7500 274.0000 1.0000
60.7600 260.0000 1.0000
60.7700 284.0000 1.0000
60.7800 277.0000 1.0000
60.7900 262.0000 1.0000
60.8000 257.0000 1.0000
60.8100 241.0000 1.0000
60.8200 268.0000 1.0000
60.8300 271.0000 1.0000
60.8400 272.0000 1.0000
60.8500 245.0000 1.0000
60.8600 237.0000 1.0000
60.8700 258.0000 1.0000
60.8800 284.0000 1.0000
60.8900 262.0000 1.0000
60.9000 286.0000 1.0000
60.9100 263.0000 1.0000
60.9200 282.0000 1.0000
60.9300 277.0000 1.0000
60.9400 275.0000 1.0000
60.9500 260.0000 1.0000
60.9600 266.0000 1.0000
60.9700 235.0000 1.0000
60.9800 267.0000 1.0000
60.9900 247.0000 1.0000
61.0000 254.0000 1.0000
61.0100 271.0000 1.0000
61.0200 281.0000 1.0000
61.0300 268.0000 1.0000
61.0400 263.0000 1.0000
61.0500 255.0000 1.0000
61.0600 271.0000 1.0000
61.0700 270.0000 1.0000
61.0800 260.0000 1.0000
61.0900 275.0000 1.0000
61.1000 262.0000 1.0000
61.1100 265.0000 1.0000
61.1200 265.0000 1.0000
61.1300 259.0000 1.0000
61.1400 273.0000 1.0000
61.1500 255.0000 1.0000
61.1600 263.0000 1.0000
61.1700 245.0000 1.0000
61.1800 273.0000 1.0000
61.1900 287.0000 1.0000
61.2000 255.0000 1.0000
61.2100 274.0000 1.0000
61.2200 270.0000 1.0000
61.2300 287.0000 1.0000
61.2400 286.0000 1.0000
61.2500 277.0000 1.0000
61.2600 265.0000 1.0000
61.2700 258.0000 1.0000
61.2800 270.0000 1.0000
61.2900 273.0000 1.0000
61.3000 293.0000 1.0000
61.3100 279.0000 1.0000
61.3200 293.0000 1.0000
61.3300 286.0000 1.0000
61.3400 276.0000 1.0000
61.3500 279.0000 1.0000
61.3600 252.0000 1.0000
61.3700 256.0000 1.0000
61.3800 247.0000 1.0000
61.3900 261.0000 1.0000
61.4000 269.0000 1.0000
61.4100 267.0000 1.0000
61.4200 252.0000 1.0000
61.4300 277.0000 1.0000
61.4400 252.0000 1.0000
61.4500 270.0000 1.0000
61.4600 248.0000 1.0000
61.4700 255.0000 1.0000
61.4800 266.0000 1.0000
61.4900 273.0000 1.0000
61.5000 277.0000 1.0000
61.5100 254.0000 1.0000
61.5200 281.0000 1.0000
61.5300 293.0000 1.0000
61.5400 276.0000 1.0000
61.5500 257.0000 1.0000
61.5600 243.0000 1.0000
61.5700 277.0000 1.0000
61.5800 299.0000 1.0000
61.5900 271.0000 1.0000
61.6000 262.0000 1.0000
61.6100 267.0000 1.0000
61.6200 291.0000 1.0000
61.6300 294.0000 1.0000
61.6400 297.0000 1.0000
61.6500 296.0000 1.0000
61.6600 232.0000 1.0000
61.6700 294.0000 1.0000
61.6800 258.0000 1.0000
61.6900 285.0000 1.0000
61.7000 261.0000 1.0000
61.7100 282.0000 1.0000
61.7200 281.0000 1.0000
61.7300 304.0000 1.0000
61.7400 267.0000 1.0000
61.7500 262.0000 1.0000
61.7600 286.0000 1.0000
61.7700 293.0000 1.0000
61.7800 265.0000 1.0000
61.7900 284.0000 1.0000
61.8000 287.0000 1.0000
61.8100 285.0000 1.0000
61.8200 296.0000 1.0000
61.8300 252.0000 1.0000
61.8400 300.0000 1.0000
61.8500 306.0000 1.0000
61.8600 287.0000 1.0000
61.8700 284.0000 1.0000
61.8800 306.0000 1.0000
61.8900 295.0000 1.0000
61.9000 314.0000 1.0000
61.9100 302.0000 1.0000
61.9200 297.0000 1.0000
61.9300 319.0000 1.0000
61.9400 327.0000 1.0000
61.9500 305.0000 1.0000
61.9600 345.0000 1.0000
61.9700 302.0000 1.0000
61.9800 313.0000 1.0000
61.9900 310.0000 1.0000
62.0000 326.0000 1.0000
62.0100 350.0000 1.0000
62.0200 325.0000 1.0000
62.0300 334.0000 1.0000
62.0400 336.0000 1.0000
62.0500 349.0000 1.0000
62.0600 357.0000 1.0000
62.0700 346.0000 1.0000
62.0800 378.0000 1.0000
62.0900 424.0000 1.0000
62.1000 362.0000 1.0000
62.1100 404.0000 1.0000
62.1200 407.0000 1.0000
62.1300 460.0000 1.0000
62.1400 460.0000 1.0000
62.1500 441.0000 1.0000
62.1600 441.0000 1.0000
62.1700 446.0000 1.0000
62.1800 457.0000 1.0000
62.1900 509.0000 1.0000
62.2000 546.0000 1.0000
62.2100 517.0000 1.0000
62.2200 558.0000 1.0000
62.2300 602.0000 1.0000
62.2400 583.0000 1.0000
62.2500 557.0000 1.0000
62.2600 561.0000 1.0000
62.2700 579.0000 1.0000
62.2800 608.0000 1.0000
62.2900 641.0000 1.0000
62.3000 595.0000 1.0000
62.3100 600.0000 1.0000
62.3200 587.0000 1.0000
62.3300 594.0000 1.0000
62.3400 585.0000 1.0000
62.3500 578.0000 1.0000
62.3600 618.0000 1.0000
62.3700 586.0000 1.0000
62.3800 574.0000 1.0000
62.3900 604.0000 1.0000
62.4000 535.0000 1.0000
62.4100 565.0000 1.0000
62.4200 563.0000 1.0000
62.4300 532.0000 1.0000
62.4400 554.0000 1.0000
62.4500 535.0000 1.0000
62.4600 541.0000 1.0000
62.4700 519.0000 1.0000
62.4800 487.0000 1.0000
62.4900 542.0000 1.0000
62.5000 504.0000 1.0000
62.5100 483.0000 1.0000
62.5200 507.0000 1.0000
62.5300 460.0000 1.0000
62.5400 463.0000 1.0000
62.5500 426.0000 1.0000
62.5600 415.0000 1.0000
62.5700 421.0000 1.0000
62.5800 436.0000 1.0000
62.5900 409.0000 1.0000
62.6000 406.0000 1.0000
62.6100 376.0000 1.0000
62.6200 403.0000 1.0000
62.6300 390.0000 1.0000
62.6400 394.0000 1.0000
62.6500 394.0000 1.0000
62.6600 348.0000 1.0000
62.6700 370.0000 1.0000
62.6800 374.0000 1.0000
62.6900 387.0000 1.0000
62.7000 337.0000 1.0000
62.7100 342.0000 1.0000
62.7200 342.0000 1.0000
62.7300 352.0000 1.0000
62.7400 333.0000 1.0000
62.7500 347.0000 1.0000
62.7600 322.0000 1.0000
62.7700 323.0000 1.0000
62.7800 319.0000 1.0000
62.7900 352.0000 1.0000
62.8000 332.0000 1.0000
62.8100 314.0000 1.0000
62.8200 305.0000 1.0000
62.8300 295.0000 1.0000
62.8400 319.0000 1.0000
62.8500 332.0000 1.0000
62.8600 300.0000 1.0000
62.8700 274.0000 1.0000
62.8800 284.0000 1.0000
62.8900 262.0000 1.0000
62.9000 304.0000 1.0000
62.9100 301.0000 1.0000
62.9200 297.0000 1.0000
62.9300 282.0000 1.0000
62.9400 281.0000 1.0000
62.9500 292.0000 1.0000
62.9600 285.0000 1.0000
62.9700 272.0000 1.0000
62.9800 281.0000 1.0000
62.9900 287.0000 1.0000
63.0000 282.0000 1.0000
63.0100 296.0000 1.0000
63.0200 292.0000 1.0000
63.0300 280.0000 1.0000
63.0400 311.0000 1.0000
63.0500 322.0000 1.0000
63.0600 290.0000 1.0000
63.0700 296.0000 1.0000
63.0800 295.0000 1.0000
63.0900 289.0000 1.0000
63.1000 295.0000 1.0000
63.1100 297.0000 1.0000
63.1200 295.0000 1.0000
63.1300 295.0000 1.0000
63.1400 289.0000 1.0000
63.1500 298.0000 1.0000
63.1600 261.0000 1.0000
63.1700 249.0000 1.0000
63.1800 274.0000 1.0000
63.1900 300.0000 1.0000
63.2000 303.0000 1.0000
63.2100 293.0000 1.0000
63.2200 280.0000 1.0000
63.2300 278.0000 1.0000
63.2400 281.0000 1.0000
63.2500 282.0000 1.0000
63.2600 256.0000 1.0000
63.2700 305.0000 1.0000
63.2800 279.0000 1.0000
63.2900 267.0000 1.0000
63.3000 282.0000 1.0000
63.3100 262.0000 1.0000
63.3200 264.0000 1.0000
63.3300 264.0000 1.0000
63.3400 289.0000 1.0000
63.3500 274.0000 1.0000
63.3600 261.0000 1.0000
63.3700 279.0000 1.0000
63.3800 296.0000 1.0000
63.3900 281.0000 1.0000
63.4000 297.0000 1.0000
63.4100 297.0000 1.0000
63.4200 284.0000 1.0000
63.4300 273.0000 1.0000
63.4400 279.0000 1.0000
63.4500 309.0000 1.0000
63.4600 281.0000 1.0000
63.4700 259.0000 1.0000
63.4800 239.0000 1.0000
63.4900 272.0000 1.0000
63.5000 264.0000 1.0000
63.5100 259.0000 1.0000
63.5200 277.0000 1.0000
63.5300 258.0000 1.0000
63.5400 287.0000 1.0000
63.5500 279.0000 1.0000
63.5600 308.0000 1.0000
63.5700 282.0000 1.0000
63.5800 255.0000 1.0000
63.5900 249.0000 1.0000
63.6000 254.0000 1.0000
63.6100 266.0000 1.0000
63.6200 285.0000 1.0000
63.6300 266.0000 1.0000
63.6400 267.0000 1.0000
63.6500 280.0000 1.0000
63.6600 269.0000 1.0000
63.6700 272.0000 1.0000
63.6800 266.0000 1.0000
63.6900 282.0000 1.0000
63.7000 270.0000 1.0000
63.7100 287.0000 1.0000
63.7200 256.0000 1.0000
63.7300 266.0000 1.0000
63.7400 273.0000 1.0000
63.7500 271.0000 1.0000
63.7600 273.0000 1.0000
63.7700 294.0000 1.0000
63.7800 296.0000 1.0000
63.7900 248.0000 1.0000
63.8000 264.0000 1.0000
63.8100 282.0000 1.0000
63.8200 280.0000 1.0000
63.8300 298.0000 1.0000
63.8400 277.0000 1.0000
63.8500 273.0000 1.0000
63.8600 289.0000 1.0000
63.8700 299.0000 1.0000
63.8800 285.0000 1.0000
63.8900 276.0000 1.0000
63.9000 280.0000 1.0000
63.9100 270.0000 1.0000
63.9200 285.0000 1.0000
63.9300 284.0000 1.0000
63.9400 274.0000 1.0000
63.9500 263.0000 1.0000
63.9600 257.0000 1.0000
63.9700 269.0000 1.0000
63.9800 262.0000 1.0000
63.9900 287.0000 1.0000
64.0000 245.0000 1.0000
64.0100 261.0000 1.0000
64.0200 275.0000 1.0000
64.0300 293.0000 1.0000
64.0400 277.0000 1.0000
64.0500 253.0000 1.0000
64.0600 258.0000 1.0000
64.0700 271.0000 1.0000
64.0800 268.0000 1.0000
64.0900 266.0000 1.0000
64.1000 271.0000 1.0000
64.1100 270.0000 1.0000
64.1200 262.0000 1.0000
64.1300 260.0000 1.0000
64.1400 268.0000 1.0000
64.1500 278.0000 1.0000
64.1600 305.0000 1.0000
64.1700 284.0000 1.0000
64.1800 255.0000 1.0000
64.1900 260.0000 1.0000
64.2000 249.0000 1.0000
64.2100 265.0000 1.0000
64.2200 246.0000 1.0000
64.2300 288.0000 1.0000
64.2400 296.0000 1.0000
64.2500 271.0000 1.0000
64.2600 287.0000 1.0000
64.2700 301.0000 1.0000
64.2800 271.0000 1.0000
64.2900 261.0000 1.0000
64.3000 295.0000 1.0000
64.3100 267.0000 1.0000
64.3200 274.0000 1.0000
64.3300 274.0000 1.0000
64.3400 305.0000 1.0000
64.3500 302.0000 1.0000
64.3600 287.0000 1.0000
64.3700 268.0000 1.0000
64.3800 303.0000 1.0000
64.3900 308.0000 1.0000
64.4000 317.0000 1.0000
64.4100 308.0000 1.0000
64.4200 284.0000 1.0000
64.4300 277.0000 1.0000
64.4400 290.0000 1.0000
64.4500 308.0000 1.0000
64.4600 293.0000 1.0000
64.4700 272.0000 1.0000
64.4800 278.0000 1.0000
64.4900 299.0000 1.0000
64.5000 301.0000 1.0000
64.5100 305.0000 1.0000
64.5200 310.0000 1.0000
64.5300 280.0000 1.0000
64.5400 285.0000 1.0000
64.5500 346.0000 1.0000
64.5600 322.0000 1.0000
64.5700 326.0000 1.0000
64.5800 309.0000 1.0000
64.5900 327.0000 1.0000
64.6000 330.0000 1.0000
64.6100 339.0000 1.0000
64.6200 313.0000 1.0000
64.6300 321.0000 1.0000
64.6400 317.0000 1.0000
64.6500 347.0000 1.0000
64.6600 362.0000 1.0000
64.6700 316.0000 1.0000
64.6800 361.0000 1.0000
64.6900 377.0000 1.0000
64.7000 359.0000 1.0000
64.7100 338.0000 1.0000
64.7200 368.0000 1.0000
64.7300 354.0000 1.0000
64.7400 339.0000 1.0000
64.7500 374.0000 1.0000
64.7600 351.0000 1.0000
64.7700 325.0000 1.0000
64.7800 354.0000 1.0000
64.7900 317.0000 1.0000
64.8000 322.0000 1.0000
64.8100 367.0000 1.0000
64.8200 356.0000 1.0000
64.8300 351.0000 1.0000
64.8400 322.0000 1.0000
64.8500 346.0000 1.0000
64.8600 338.0000 1.0000
64.8700 330.0000 1.0000
64.8800 321.0000 1.0000
64.8900 323.0000 1.0000
64.9000 304.0000 1.0000
64.9100 310.0000 1.0000
64.9200 307.0000 1.0000
64.9300 306.0000 1.0000
64.9400 313.0000 1.0000
64.9500 300.0000 1.0000
64.9600 308.0000 1.0000
64.9700 334.0000 1.0000
64.9800 302.0000 1.0000
64.9900 297.0000 1.0000
65.0000 298.0000 1.0000
65.0100 293.0000 1.0000
65.0200 309.0000 1.0000
65.0300 316.0000 1.0000
65.0400 300.0000 1.0000
65.0500 307.0000 1.0000
65.0600 299.0000 1.0000
65.0700 317.0000 1.0000
65.0800 305.0000 1.0000
65.0900 290.0000 1.0000
65.1000 307.0000 1.0000
65.1100 294.0000 1.0000
65.1200 308.0000 1.0000
65.1300 324.0000 1.0000
65.1400 288.0000 1.0000
65.1500 300.0000 1.0000
65.1600 290.0000 1.0000
65.1700 292.0000 1.0000
65.1800 314.0000 1.0000
65.1900 257.0000 1.0000
65.2000 299.0000 1.0000
65.2100 280.0000 1.0000
65.2200 296.0000 1.0000
65.2300 269.0000 1.0000
65.2400 295.0000 1.0000
65.2500 299.0000 1.0000
65.2600 271.0000 1.0000
65.2700 272.0000 1.0000
65.2800 302.0000 1.0000
65.2900 307.0000 1.0000
65.3000 289.0000 1.0000
65.3100 277.0000 1.0000
65.3200 299.0000 1.0000
65.3300 308.0000 1.0000
65.3400 306.0000 1.0000
65.3500 278.0000 1.0000
65.3600 278.0000 1.0000
65.3700 296.0000 1.0000
65.3800 292.0000 1.0000
65.3900 298.0000 1.0000
65.4000 313.0000 1.0000
65.4100 290.0000 1.0000
65.4200 303.0000 1.0000
65.4300 284.0000 1.0000
65.4400 284.0000 1.0000
65.4500 289.0000 1.0000
65.4600 280.0000 1.0000
65.4700 281.0000 1.0000
65.4800 269.0000 1.0000
65.4900 290.0000 1.0000
65.5000 283.0000 1.0000
65.5100 277.0000 1.0000
65.5200 278.0000 1.0000
65.5300 272.0000 1.0000
65.5400 290.0000 1.0000
65.5500 300.0000 1.0000
65.5600 272.0000 1.0000
65.5700 279.0000 1.0000
65.5800 296.0000 1.0000
65.5900 279.0000 1.0000
65.6000 289.0000 1.0000
65.6100 304.0000 1.0000
65.6200 304.0000 1.0000
65.6300 293.0000 1.0000
65.6400 298.0000 1.0000
65.6500 283.0000 1.0000
65.6600 311.0000 1.0000
65.6700 291.0000 1.0000
65.6800 284.0000 1.0000
65.6900 330.0000 1.0000
65.7000 314.0000 1.0000
65.7100 303.0000 1.0000
65.7200 303.0000 1.0000
65.7300 295.0000 1.0000
65.7400 293.0000 1.0000
65.7500 275.0000 1.0000
65.7600 322.0000 1.0000
65.7700 320.0000 1.0000
65.7800 324.0000 1.0000
65.7900 294.0000 1.0000
65.8000 313.0000 1.0000
65.8100 320.0000 1.0000
65.8200 348.0000 1.0000
65.8300 315.0000 1.0000
65.8400 320.0000 1.0000
65.8500 318.0000 1.0000
65.8600 304.0000 1.0000
65.8700 321.0000 1.0000
65.8800 317.0000 1.0000
65.8900 336.0000 1.0000
65.9000 347.0000 1.0000
65.9100 360.0000 1.0000
65.9200 350.0000 1.0000
65.9300 362.0000 1.0000
65.9400 375.0000 1.0000
65.9500 355.0000 1.0000
65.9600 382.0000 1.0000
65.9700 367.0000 1.0000
65.9800 340.0000 1.0000
65.9900 386.0000 1.0000
66.0000 370.0000 1.0000
66.0100 450.0000 1.0000
66.0200 431.0000 1.0000
66.0300 457.0000 1.0000
66.0400 432.0000 1.0000
66.0500 457.0000 1.0000
66.0600 456.0000 1.0000
66.0700 480.0000 1.0000
66.0800 524.0000 1.0000
66.0900 558.0000 1.0000
66.1000 558.0000 1.0000
66.1100 596.0000 1.0000
66.1200 659.0000 1.0000
66.1300 639.0000 1.0000
66.1400 699.0000 1.0000
66.1500 754.0000 1.0000
66.1600 758.0000 1.0000
66.1700 807.0000 1.0000
66.1800 899.0000 1.0000
66.1900 939.0000 1.0000
66.2000 917.0000 1.0000
66.2100 997.0000 1.0000
66.2200 1044.0000 1.0000
66.2300 1058.0000 1.0000
66.2400 1091.0000 1.0000
66.2500 1110.0000 1.0000
66.2600 1173.0000 1.0000
66.2700 1155.0000 1.0000
66.2800 1179.0000 1.0000
66.2900 1176.0000 1.0000
66.3000 1097.0000 1.0000
66.3100 1076.0000 1.0000
66.3200 1083.0000 1.0000
66.3300 1077.0000 1.0000
66.3400 1056.0000 1.0000
66.3500 1057.0000 1.0000
66.3600 1012.0000 1.0000
66.3700 985.0000 1.0000
66.3800 988.0000 1.0000
66.3900 974.0000 1.0000
66.4000 977.0000 1.0000
66.4100 923.0000 1.0000
66.4200 914.0000 1.0000
66.4300 890.0000 1.0000
66.4400 962.0000 1.0000
66.4500 894.0000 1.0000
66.4600 885.0000 1.0000
66.4700 827.0000 1.0000
66.4800 839.0000 1.0000
66.4900 776.0000 1.0000
66.5000 776.0000 1.0000
66.5100 767.0000 1.0000
66.5200 711.0000 1.0000
66.5300 707.0000 1.0000
66.5400 663.0000 1.0000
66.5500 674.0000 1.0000
66.5600 565.0000 1.0000
66.5700 556.0000 1.0000
66.5800 545.0000 1.0000
66.5900 523.0000 1.0000
66.6000 525.0000 1.0000
66.6100 503.0000 1.0000
66.6200 474.0000 1.0000
66.6300 439.0000 1.0000
66.6400 447.0000 1.0000
66.6500 412.0000 1.0000
66.6600 410.0000 1.0000
66.6700 385.0000 1.0000
66.6800 412.0000 1.0000
66.6900 385.0000 1.0000
66.7000 408.0000 1.0000
66.7100 392.0000 1.0000
66.7200 391.0000 1.0000
66.7300 339.0000 1.0000
66.7400 344.0000 1.0000
66.7500 340.0000 1.0000
66.7600 346.0000 1.0000
66.7700 332.0000 1.0000
66.7800 351.0000 1.0000
66.7900 360.0000 1.0000
66.8000 327.0000 1.0000
66.8100 351.0000 1.0000
66.8200 298.0000 1.0000
66.8300 349.0000 1.0000
66.8400 297.0000 1.0000
66.8500 326.0000 1.0000
66.8600 294.0000 1.0000
66.8700 291.0000 1.0000
66.8800 283.0000 1.0000
66.8900 289.0000 1.0000
66.9000 281.0000 1.0000
66.9100 277.0000 1.0000
66.9200 298.0000 1.0000
66.9300 294.0000 1.0000
66.9400 309.0000 1.0000
66.9500 305.0000 1.0000
66.9600 285.0000 1.0000
66.9700 267.0000 1.0000
66.9800 308.0000 1.0000
66.9900 294.0000 1.0000
67.0000 293.0000 1.0000
67.0100 294.0000 1.0000
67.0200 283.0000 1.0000
67.0300 296.0000 1.0000
67.0400 279.0000 1.0000
67.0500 262.0000 1.0000
67.0600 260.0000 1.0000
67.0700 259.0000 1.0000
67.0800 273.0000 1.0000
67.0900 281.0000 1.0000
67.1000 258.0000 1.0000
67.1100 267.0000 1.0000
67.1200 273.0000 1.0000
67.1300 278.0000 1.0000
67.1400 288.0000 1.0000
67.1500 270.0000 1.0000
67.1600 266.0000 1.0000
67.1700 250.0000 1.0000
67.1800 254.0000 1.0000
67.1900 257.0000 1.0000
67.2000 251.0000 1.0000
67.2100 248.0000 1.0000
67.2200 255.0000 1.0000
67.2300 248.0000 1.0000
67.2400 265.0000 1.0000
67.2500 251.0000 1.0000
67.2600 267.0000 1.0000
67.2700 264.0000 1.0000
67.2800 265.0000 1.0000
67.2900 265.0000 1.0000
67.3000 286.0000 1.0000
67.3100 276.0000 1.0000
67.3200 252.0000 1.0000
67.3300 241.0000 1.0000
67.3400 280.0000 1.0000
67.3500 257.0000 1.0000
67.3600 250.0000 1.0000
67.3700 236.0000 1.0000
67.3800 259.0000 1.0000
67.3900 246.0000 1.0000
67.4000 266.0000 1.0000
67.4100 241.0000 1.0000
67.4200 262.0000 1.0000
67.4300 243.0000 1.0000
67.4400 249.0000 1.0000
67.4500 256.0000 1.0000
67.4600 268.0000 1.0000
67.4700 242.0000 1.0000
67.4800 235.0000 1.0000
67.4900 232.0000 1.0000
67.5000 243.0000 1.0000
67.5100 236.0000 1.0000
67.5200 282.0000 1.0000
67.5300 275.0000 1.0000
67.5400 271.0000 1.0000
67.5500 253.0000 1.0000
67.5600 263.0000 1.0000
67.5700 258.0000 1.0000
67.5800 256.0000 1.0000
67.5900 247.0000 1.0000
67.6000 240.0000 1.0000
67.6100 241.0000 1.0000
67.6200 234.0000 1.0000
67.6300 266.0000 1.0000
67.6400 240.0000 1.0000
67.6500 241.0000 1.0000
67.6600 254.0000 1.0000
67.6700 258.0000 1.0000
67.6800 231.0000 1.0000
67.6900 260.0000 1.0000
67.7000 242.0000 1.0000
67.7100 246.0000 1.0000
67.7200 257.0000 1.0000
67.7300 259.0000 1.0000
67.7400 255.0000 1.0000
67.7500 266.0000 1.0000
67.7600 225.0000 1.0000
67.7700 256.0000 1.0000
67.7800 230.0000 1.0000
67.7900 276.0000 1.0000
67.8000 252.0000 1.0000
67.8100 263.0000 1.0000
67.8200 255.0000 1.0000
67.8300 252.0000 1.0000
67.8400 245.0000 1.0000
67.8500 228.0000 1.0000
67.8600 239.0000 1.0000
67.8700 248.0000 1.0000
67.8800 257.0000 1.0000
67.8900 256.0000 1.0000
67.9000 257.0000 1.0000
67.9100 257.0000 1.0000
67.9200 231.0000 1.0000
67.9300 249.0000 1.0000
67.9400 241.0000 1.0000
67.9500 243.0000 1.0000
67.9600 257.0000 1.0000
67.9700 266.0000 1.0000
67.9800 247.0000 1.0000
67.9900 259.0000 1.0000
68.0000 305.0000 1.0000
68.0100 273.0000 1.0000
68.0200 266.0000 1.0000
68.0300 252.0000 1.0000
68.0400 247.0000 1.0000
68.0500 271.0000 1.0000
68.0600 255.0000 1.0000
68.0700 248.0000 1.0000
68.0800 257.0000 1.0000
68.0900 219.0000 1.0000
68.1000 247.0000 1.0000
68.1100 260.0000 1.0000
68.1200 242.0000 1.0000
68.1300 231.0000 1.0000
68.1400 228.0000 1.0000
68.1500 248.0000 1.0000
68.1600 248.0000 1.0000
68.1700 237.0000 1.0000
68.1800 248.0000 1.0000
68.1900 268.0000 1.0000
68.2000 256.0000 1.0000
68.2100 245.0000 1.0000
68.2200 243.0000 1.0000
68.2300 232.0000 1.0000
68.2400 237.0000 1.0000
68.2500 249.0000 1.0000
68.2600 235.0000 1.0000
68.2700 235.0000 1.0000
68.2800 257.0000 1.0000
68.2900 248.0000 1.0000
68.3000 237.0000 1.0000
68.3100 258.0000 1.0000
68.3200 241.0000 1.0000
68.3300 256.0000 1.0000
68.3400 256.0000 1.0000
68.3500 231.0000 1.0000
68.3600 255.0000 1.0000
68.3700 242.0000 1.0000
68.3800 239.0000 1.0000
68.3900 261.0000 1.0000
68.4000 262.0000 1.0000
68.4100 254.0000 1.0000
68.4200 234.0000 1.0000
68.4300 237.0000 1.0000
68.4400 241.0000 1.0000
68.4500 250.0000 1.0000
68.4600 258.0000 1.0000
68.4700 273.0000 1.0000
68.4800 252.0000 1.0000
68.4900 258.0000 1.0000
68.5000 234.0000 1.0000
68.5100 257.0000 1.0000
68.5200 252.0000 1.0000
68.5300 240.0000 1.0000
68.5400 275.0000 1.0000
68.5500 244.0000 1.0000
68.5600 261.0000 1.0000
68.5700 238.0000 1.0000
68.5800 226.0000 1.0000
68.5900 236.0000 1.0000
68.6000 259.0000 1.0000
68.6100 230.0000 1.0000
68.6200 247.0000 1.0000
68.6300 243.0000 1.0000
68.6400 228.0000 1.0000
68.6500 267.0000 1.0000
68.6600 253.0000 1.0000
68.6700 243.0000 1.0000
68.6800 228.0000 1.0000
68.6900 251.0000 1.0000
68.7000 251.0000 1.0000
68.7100 232.0000 1.0000
68.7200 237.0000 1.0000
68.7300 234.0000 1.0000
68.7400 237.0000 1.0000
68.7500 260.0000 1.0000
68.7600 229.0000 1.0000
68.7700 239.0000 1.0000
68.7800 250.0000 1.0000
68.7900 254.0000 1.0000
68.8000 255.0000 1.0000
68.8100 209.0000 1.0000
68.8200 236.0000 1.0000
68.8300 220.0000 1.0000
68.8400 264.0000 1.0000
68.8500 264.0000 1.0000
68.8600 244.0000 1.0000
68.8700 249.0000 1.0000
68.8800 240.0000 1.0000
68.8900 252.0000 1.0000
68.9000 241.0000 1.0000
68.9100 242.0000 1.0000
68.9200 250.0000 1.0000
68.9300 240.0000 1.0000
68.9400 246.0000 1.0000
68.9500 255.0000 1.0000
68.9600 239.0000 1.0000
68.9700 233.0000 1.0000
68.9800 228.0000 1.0000
68.9900 217.0000 1.0000
69.0000 237.0000 1.0000
69.0100 242.0000 1.0000
69.0200 234.0000 1.0000
69.0300 238.0000 1.0000
69.0400 243.0000 1.0000
69.0500 281.0000 1.0000
69.0600 225.0000 1.0000
69.0700 220.0000 1.0000
69.0800 223.0000 1.0000
69.0900 240.0000 1.0000
69.1000 236.0000 1.0000
69.1100 223.0000 1.0000
69.1200 264.0000 1.0000
69.1300 245.0000 1.0000
69.1400 239.0000 1.0000
69.1500 252.0000 1.0000
69.1600 241.0000 1.0000
69.1700 230.0000 1.0000
69.1800 224.0000 1.0000
69.1900 259.0000 1.0000
69.2000 253.0000 1.0000
69.2100 239.0000 1.0000
69.2200 247.0000 1.0000
69.2300 246.0000 1.0000
69.2400 235.0000 1.0000
69.2500 220.0000 1.0000
69.2600 229.0000 1.0000
69.2700 226.0000 1.0000
69.2800 213.0000 1.0000
69.2900 231.0000 1.0000
69.3000 249.0000 1.0000
69.3100 244.0000 1.0000
69.3200 214.0000 1.0000
69.3300 237.0000 1.0000
69.3400 244.0000 1.0000
69.3500 231.0000 1.0000
69.3600 241.0000 1.0000
69.3700 260.0000 1.0000
69.3800 236.0000 1.0000
69.3900 238.0000 1.0000
69.4000 233.0000 1.0000
69.4100 253.0000 1.0000
69.4200 250.0000 1.0000
69.4300 214.0000 1.0000
69.4400 251.0000 1.0000
69.4500 248.0000 1.0000
69.4600 224.0000 1.0000
69.4700 249.0000 1.0000
69.4800 234.0000 1.0000
69.4900 243.0000 1.0000
69.5000 272.0000 1.0000
69.5100 260.0000 1.0000
69.5200 258.0000 1.0000
69.5300 258.0000 1.0000
69.5400 239.0000 1.0000
69.5500 251.0000 1.0000
69.5600 216.0000 1.0000
69.5700 230.0000 1.0000
69.5800 243.0000 1.0000
69.5900 251.0000 1.0000
69.6000 234.0000 1.0000
69.6100 264.0000 1.0000
69.6200 256.0000 1.0000
69.6300 251.0000 1.0000
69.6400 245.0000 1.0000
69.6500 240.0000 1.0000
69.6600 252.0000 1.0000
69.6700 223.0000 1.0000
69.6800 242.0000 1.0000
69.6900 238.0000 1.0000
69.7000 234.0000 1.0000
69.7100 266.0000 1.0000
69.7200 251.0000 1.0000
69.7300 252.0000 1.0000
69.7400 235.0000 1.0000
69.7500 237.0000 1.0000
69.7600 266.0000 1.0000
69.7700 243.0000 1.0000
69.7800 246.0000 1.0000
69.7900 228.0000 1.0000
69.8000 242.0000 1.0000
69.8100 247.0000 1.0000
69.8200 249.0000 1.0000
69.8300 216.0000 1.0000
69.8400 246.0000 1.0000
69.8500 242.0000 1.0000
69.8600 261.0000 1.0000
69.8700 239.0000 1.0000
69.8800 263.0000 1.0000
69.8900 257.0000 1.0000
69.9000 251.0000 1.0000
69.9100 229.0000 1.0000
69.9200 261.0000 1.0000
69.9300 237.0000 1.0000
69.9400 238.0000 1.0000
69.9500 247.0000 1.0000
69.9600 252.0000 1.0000
69.9700 239.0000 1.0000
69.9800 248.0000 1.0000
69.9900 234.0000 1.0000
70.0000 216.0000 1.0000
*RAS_INT_END
*RAS_TEMPERATURE_START
*RAS_TEMPERATURE_END
*RAS_DATA_END
