*RAS_DATA_START
*RAS_HEADER_START
*DISP_FMT_X "%.2f"
*DISP_FMT_Y "%.0f"
*DISP_FULLSCALE "13830.0000000000"
*DISP_LINE_COLOR "255.0000000000"
*DISP_LINE_STYLE "0.0000000000"
*DISP_LINE_WIDTH "0.2500000000"
*DISP_NOTE "測定データ-4"
*DISP_OFFSET_Y "0.0000000000"
*DISP_PEAKSEARCH_UNIT_Y "cps"
*DISP_RANGE_BOTTOM "0.0000000000"
*DISP_RANGE_LEFT "20.0000000000"
*DISP_RANGE_LOGCUTOFF "0.0100000000"
*DISP_RANGE_RIGHT "70.0000000000"
*DISP_RANGE_TOP "13830.0000000000"
*DISP_SCALE_MODE_Y "0.0000000000"
*DISP_TAB_NAME "2θ/θ"
*DISP_TITLE_Y "強度"
*DISP_UNIT_Y "cps"
*DISP_WINDOW_NAME "MSG_MACROENGINE"
*FILE_COMMENT " "
*FILE_MD5 ""
*FILE_MEMO " "
*FILE_OPERATOR "Administrator"
*FILE_SAMPLE " "
*FILE_TYPE "RAS_RAW"
*FILE_USERGROUP "システムマネージャ"
*FILE_VERSION "1.0000000000"
*HW_ATTACHMENT_ID "ATT0025"
*HW_ATTACHMENT_NAME "標準|Standard"
*HW_COUNTER_ID-0 "CUT0025"
*HW_COUNTER_ID-1 "CUT0020"
*HW_COUNTER_ID-2 "CUT0020"
*HW_COUNTER_ID-3 "CSL0021"
*HW_COUNTER_ID-4 "CMC0021"
*HW_COUNTER_NAME-0 "D/teX Ultra|D/teX Ultra"
*HW_COUNTER_NAME-1 "None|None"
*HW_COUNTER_NAME-2 "None|None"
*HW_COUNTER_NAME-3 "BBM|BBM"
*HW_COUNTER_NAME-4 "検出器モノクロメータ|Detector monochromator"
*HW_COUNTER_SELECT_NAME "D/teX Ultra|D/teX Ultra"
*HW_GONIOMETER_ID "GON0023"
*HW_GONIOMETER_NAME "SmartLab|SmartLab"
*HW_GONIOMETER_RADIUS-0 "90.0"
*HW_GONIOMETER_RADIUS-1 "114.0"
*HW_GONIOMETER_RADIUS-2 "190.0"
*HW_GONIOMETER_RADIUS-3 "300.0"
*HW_GONIOMETER_RADIUS-4 "187.0"
*HW_GONIOMETER_RADIUS-5 "300.0"
*HW_GONIOMETER_RADIUS-6 "113.0"
*HW_GONIOMETER_RADIUS-7 "331.0"
*HW_I_OPT_ID-0 "CBO0021"
*HW_I_OPT_ID-1 "ICR0023"
*HW_I_OPT_ID-2 "ISL0021"
*HW_I_OPT_ID-3 "ISO0021"
*HW_I_OPT_ID-4 "IAD0021"
*HW_I_OPT_ID-5 "IPR0001"
*HW_I_OPT_NAME-0 "CBOユニット|CBO unit"
*HW_I_OPT_NAME-1 "標準入射光学ユニット|Standard incident optical unit"
*HW_I_OPT_NAME-2 "標準入射スリットボックス|Standard incident slit box"
*HW_I_OPT_NAME-3 "入射平行スリット|Incident parallel slit"
*HW_I_OPT_NAME-4 "長手制限スリット|Length limiting slit"
*HW_I_OPT_NAME-5 "None|None"
*HW_R_ATTENUATER_AUTOMODE "0"
*HW_R_OPT_ID-0 "RSS0021"
*HW_R_OPT_ID-1 "RCR0023"
*HW_R_OPT_ID-2 "RSO0021"
*HW_R_OPT_ID-3 "RRS0021"
*HW_R_OPT_ID-4 "ATN0021"
*HW_R_OPT_ID-5 "RFL0021"
*HW_R_OPT_ID-6 "RAD0021"
*HW_R_OPT_NAME-0 "標準受光スリットボックス1|Standard receiving slit box # 1"
*HW_R_OPT_NAME-1 "標準受光光学ユニット1|Standard receiving unit # 1"
*HW_R_OPT_NAME-2 "標準受光光学ユニット2|Standard receiving optical unit # 2"
*HW_R_OPT_NAME-3 "標準受光スリットボックス2|Standard receiving slit box # 2"
*HW_R_OPT_NAME-4 "標準アッテネータ|Standard Attenuator"
*HW_R_OPT_NAME-5 "Cu Kβ|Cu K-beta"
*HW_R_OPT_NAME-6 "調整用受光スリット|Alignment receiving slit"
*HW_SAMPLE_HOLDER_ID "SMP0023"
*HW_SAMPLE_HOLDER_NAME "標準Zステージ|Standard Z stage"
*HW_XG_CURRENT_MAX "50"
*HW_XG_CURRENT_MIN "2"
*HW_XG_CURRENT_RESOLUTION "1"
*HW_XG_CURRENT_UNIT "mA"
*HW_XG_FOCUS "1mm x 10mm"
*HW_XG_FOCUS_TYPE "Normal"
*HW_XG_ID ""
*HW_XG_NAME "3kW 封入管(ID:1200)|3kW Sealed tube(ID:1200)"
*HW_XG_TARGET_ATOMIC_NUMBER "29.0000000000"
*HW_XG_TARGET_NAME "Cu"
*HW_XG_TYPE "Hermetic"
*HW_XG_VOLTAGE_MAX "60"
*HW_XG_VOLTAGE_MIN "20"
*HW_XG_VOLTAGE_RESOLUTION "1"
*HW_XG_VOLTAGE_UNIT "kV"
*HW_XG_WATT_MAX "1.500"
*HW_XG_WATT_UNIT "kW"
*HW_XG_WAVE_LENGTH_ALPHA1 "1.540593"
*HW_XG_WAVE_LENGTH_ALPHA2 "1.544414"
*HW_XG_WAVE_LENGTH_BETA "1.392250"
*MEAS_COND_AXIS_NAME-0 "2θ/θ"
*MEAS_COND_AXIS_NAME-1 "2θ"
*MEAS_COND_AXIS_NAME-2 "ω"
*MEAS_COND_AXIS_NAME-3 "Z"
*MEAS_COND_AXIS_NAME-4 "2θ/ω"
*MEAS_COND_AXIS_NAME-5 "θs"
*MEAS_COND_AXIS_NAME-6 "θd"
*MEAS_COND_AXIS_NAME-7 "Ts"
*MEAS_COND_AXIS_NAME-8 "CBO選択スリット"
*MEAS_COND_AXIS_NAME-9 "M"
*MEAS_COND_AXIS_NAME-10 "入射平行スリット"
*MEAS_COND_AXIS_NAME-11 "入射スリット"
*MEAS_COND_AXIS_NAME-12 ""
*MEAS_COND_AXIS_NAME-13 "Zs"
*MEAS_COND_AXIS_NAME-14 "入射光学素子"
*MEAS_COND_AXIS_NAME-15 "長手制限スリット"
*MEAS_COND_AXIS_NAME-16 "センタースリット"
*MEAS_COND_AXIS_NAME-17 "フィルター"
*MEAS_COND_AXIS_NAME-18 "受光スリット1"
*MEAS_COND_AXIS_NAME-19 "受光スリット2"
*MEAS_COND_AXIS_NAME-20 "受光光学素子"
*MEAS_COND_AXIS_NAME-21 "受光平行スリット"
*MEAS_COND_AXIS_NAME-22 "調整用受光スリット"
*MEAS_COND_AXIS_NAME-23 ""
*MEAS_COND_AXIS_NAME-24 ""
*MEAS_COND_AXIS_NAME-25 "Zd"
*MEAS_COND_AXIS_NAME-26 "アッテネータ"
*MEAS_COND_AXIS_NAME-27 "検出器モノクロメータ"
*MEAS_COND_AXIS_NAME-28 "モノクロメータスリット"
*MEAS_COND_AXIS_NAME-29 "プライマリビーム"
*MEAS_COND_AXIS_NAME-30 "PHA"
*MEAS_COND_AXIS_NAME_INTERNAL-0 "TwoThetaTheta"
*MEAS_COND_AXIS_NAME_INTERNAL-1 "TwoTheta"
*MEAS_COND_AXIS_NAME_INTERNAL-2 "Omega"
*MEAS_COND_AXIS_NAME_INTERNAL-3 "Z"
*MEAS_COND_AXIS_NAME_INTERNAL-4 "TwoThetaOmega"
*MEAS_COND_AXIS_NAME_INTERNAL-5 "ThetaS"
*MEAS_COND_AXIS_NAME_INTERNAL-6 "ThetaD"
*MEAS_COND_AXIS_NAME_INTERNAL-7 "Ts"
*MEAS_COND_AXIS_NAME_INTERNAL-8 "CBO"
*MEAS_COND_AXIS_NAME_INTERNAL-9 "CBO-M"
*MEAS_COND_AXIS_NAME_INTERNAL-10 "IncidentSollerSlit"
*MEAS_COND_AXIS_NAME_INTERNAL-11 "IncidentSlitBox"
*MEAS_COND_AXIS_NAME_INTERNAL-12 "IncidentSlitBox-_Axis"
*MEAS_COND_AXIS_NAME_INTERNAL-13 "Zs"
*MEAS_COND_AXIS_NAME_INTERNAL-14 "IncidentMonochromator"
*MEAS_COND_AXIS_NAME_INTERNAL-15 "IncidentAxdSlit"
*MEAS_COND_AXIS_NAME_INTERNAL-16 "CenterSlit"
*MEAS_COND_AXIS_NAME_INTERNAL-17 "Filter"
*MEAS_COND_AXIS_NAME_INTERNAL-18 "ReceivingSlitBox1"
*MEAS_COND_AXIS_NAME_INTERNAL-19 "ReceivingSlitBox2"
*MEAS_COND_AXIS_NAME_INTERNAL-20 "ReceivingOptics"
*MEAS_COND_AXIS_NAME_INTERNAL-21 "ReceivingSollerSlit"
*MEAS_COND_AXIS_NAME_INTERNAL-22 "ReceivingAxdSlit"
*MEAS_COND_AXIS_NAME_INTERNAL-23 "ReceivingSlitBox1-_Axis"
*MEAS_COND_AXIS_NAME_INTERNAL-24 "ReceivingSlitBox2-_Axis"
*MEAS_COND_AXIS_NAME_INTERNAL-25 "ReceivingSlitBox2-Zd"
*MEAS_COND_AXIS_NAME_INTERNAL-26 "Attenuator"
*MEAS_COND_AXIS_NAME_INTERNAL-27 "CounterMonochromator"
*MEAS_COND_AXIS_NAME_INTERNAL-28 "CounterSlit"
*MEAS_COND_AXIS_NAME_INTERNAL-29 "IncidentPrimary"
*MEAS_COND_AXIS_NAME_INTERNAL-30 "PHA"
*MEAS_COND_AXIS_NAME_MAGICNO-0 "83951616.0000000000"
*MEAS_COND_AXIS_NAME_MAGICNO-1 "268632064.0000000000"
*MEAS_COND_AXIS_NAME_MAGICNO-2 "268500992.0000000000"
*MEAS_COND_AXIS_NAME_MAGICNO-3 "285278208.0000000000"
*MEAS_COND_AXIS_NAME_MAGICNO-4 "83951616.0000000000"
*MEAS_COND_AXIS_NAME_MAGICNO-5 "131072.0000000000"
*MEAS_COND_AXIS_NAME_MAGICNO-6 "131072.0000000000"
*MEAS_COND_AXIS_NAME_MAGICNO-7 "318898176.0000000000"
*MEAS_COND_AXIS_NAME_MAGICNO-8 "20971521.0000000000"
*MEAS_COND_AXIS_NAME_MAGICNO-9 "285343744.0000000000"
*MEAS_COND_AXIS_NAME_MAGICNO-10 "20971521.0000000000"
*MEAS_COND_AXIS_NAME_MAGICNO-11 "22020097.0000000000"
*MEAS_COND_AXIS_NAME_MAGICNO-12 "25165824.0000000000"
*MEAS_COND_AXIS_NAME_MAGICNO-13 "318898176.0000000000"
*MEAS_COND_AXIS_NAME_MAGICNO-14 "1.0000000000"
*MEAS_COND_AXIS_NAME_MAGICNO-15 "20971521.0000000000"
*MEAS_COND_AXIS_NAME_MAGICNO-16 "20971521.0000000000"
*MEAS_COND_AXIS_NAME_MAGICNO-17 "20971521.0000000000"
*MEAS_COND_AXIS_NAME_MAGICNO-18 "23068673.0000000000"
*MEAS_COND_AXIS_NAME_MAGICNO-19 "23068673.0000000000"
*MEAS_COND_AXIS_NAME_MAGICNO-20 "20971521.0000000000"
*MEAS_COND_AXIS_NAME_MAGICNO-21 "20971521.0000000000"
*MEAS_COND_AXIS_NAME_MAGICNO-22 "20971521.0000000000"
*MEAS_COND_AXIS_NAME_MAGICNO-23 "25165824.0000000000"
*MEAS_COND_AXIS_NAME_MAGICNO-24 "25165824.0000000000"
*MEAS_COND_AXIS_NAME_MAGICNO-25 "285343744.0000000000"
*MEAS_COND_AXIS_NAME_MAGICNO-26 "17301505.0000000000"
*MEAS_COND_AXIS_NAME_MAGICNO-27 "20971521.0000000000"
*MEAS_COND_AXIS_NAME_MAGICNO-28 "20971521.0000000000"
*MEAS_COND_AXIS_NAME_MAGICNO-29 "20971521.0000000000"
*MEAS_COND_AXIS_NAME_MAGICNO-30 "0.0000000000"
*MEAS_COND_AXIS_OFFSET-0 "-"
*MEAS_COND_AXIS_OFFSET-1 "-0.0801000000"
*MEAS_COND_AXIS_OFFSET-2 "-0.2746000000"
*MEAS_COND_AXIS_OFFSET-3 "-"
*MEAS_COND_AXIS_OFFSET-4 "-"
*MEAS_COND_AXIS_OFFSET-5 "-0.2746000000"
*MEAS_COND_AXIS_OFFSET-6 "0.1945000000"
*MEAS_COND_AXIS_OFFSET-7 "-"
*MEAS_COND_AXIS_OFFSET-8 "-"
*MEAS_COND_AXIS_OFFSET-9 "-"
*MEAS_COND_AXIS_OFFSET-10 "-"
*MEAS_COND_AXIS_OFFSET-11 "-"
*MEAS_COND_AXIS_OFFSET-12 "-"
*MEAS_COND_AXIS_OFFSET-13 "-"
*MEAS_COND_AXIS_OFFSET-14 "-"
*MEAS_COND_AXIS_OFFSET-15 "-"
*MEAS_COND_AXIS_OFFSET-16 "-"
*MEAS_COND_AXIS_OFFSET-17 "-"
*MEAS_COND_AXIS_OFFSET-18 "-"
*MEAS_COND_AXIS_OFFSET-19 "-"
*MEAS_COND_AXIS_OFFSET-20 "-"
*MEAS_COND_AXIS_OFFSET-21 "-"
*MEAS_COND_AXIS_OFFSET-22 "-"
*MEAS_COND_AXIS_OFFSET-23 "-"
*MEAS_COND_AXIS_OFFSET-24 "-"
*MEAS_COND_AXIS_OFFSET-25 "-"
*MEAS_COND_AXIS_OFFSET-26 "-"
*MEAS_COND_AXIS_OFFSET-27 "-"
*MEAS_COND_AXIS_OFFSET-28 "-"
*MEAS_COND_AXIS_OFFSET-29 "-"
*MEAS_COND_AXIS_OFFSET-30 "-"
*MEAS_COND_AXIS_POSITION-0 "0.0000000000"
*MEAS_COND_AXIS_POSITION-1 "0.0000000000"
*MEAS_COND_AXIS_POSITION-2 "0.0000000000"
*MEAS_COND_AXIS_POSITION-3 "-2.9426000000"
*MEAS_COND_AXIS_POSITION-4 "0.0000000000"
*MEAS_COND_AXIS_POSITION-5 "0.0000000000"
*MEAS_COND_AXIS_POSITION-6 "0.0000000000"
*MEAS_COND_AXIS_POSITION-7 "-0.4278800000"
*MEAS_COND_AXIS_POSITION-8 "BB"
*MEAS_COND_AXIS_POSITION-9 "0.0000000000"
*MEAS_COND_AXIS_POSITION-10 "Soller_slit_5.0deg"
*MEAS_COND_AXIS_POSITION-11 "2/3deg"
*MEAS_COND_AXIS_POSITION-12 "2.2088000000"
*MEAS_COND_AXIS_POSITION-13 "-1.0609400000"
*MEAS_COND_AXIS_POSITION-14 "0.0000000000"
*MEAS_COND_AXIS_POSITION-15 "10.0mm"
*MEAS_COND_AXIS_POSITION-16 "None"
*MEAS_COND_AXIS_POSITION-17 "Cu_K-beta"
*MEAS_COND_AXIS_POSITION-18 "13.000mm"
*MEAS_COND_AXIS_POSITION-19 "13.000mm"
*MEAS_COND_AXIS_POSITION-20 "No_unit"
*MEAS_COND_AXIS_POSITION-21 "Soller_slit_5.0deg"
*MEAS_COND_AXIS_POSITION-22 "None"
*MEAS_COND_AXIS_POSITION-23 "13.0000000000"
*MEAS_COND_AXIS_POSITION-24 "13.0000000000"
*MEAS_COND_AXIS_POSITION-25 "0.0081300000"
*MEAS_COND_AXIS_POSITION-26 "Open"
*MEAS_COND_AXIS_POSITION-27 "None"
*MEAS_COND_AXIS_POSITION-28 "None"
*MEAS_COND_AXIS_POSITION-29 "None"
*MEAS_COND_AXIS_POSITION-30 "38.0000000000"
*MEAS_COND_AXIS_UNIT-0 "deg"
*MEAS_COND_AXIS_UNIT-1 "deg"
*MEAS_COND_AXIS_UNIT-2 "deg"
*MEAS_COND_AXIS_UNIT-3 "mm"
*MEAS_COND_AXIS_UNIT-4 "deg"
*MEAS_COND_AXIS_UNIT-5 "deg"
*MEAS_COND_AXIS_UNIT-6 "deg"
*MEAS_COND_AXIS_UNIT-7 "mm"
*MEAS_COND_AXIS_UNIT-8 ""
*MEAS_COND_AXIS_UNIT-9 "pulse"
*MEAS_COND_AXIS_UNIT-10 ""
*MEAS_COND_AXIS_UNIT-11 ""
*MEAS_COND_AXIS_UNIT-12 "mm"
*MEAS_COND_AXIS_UNIT-13 "mm"
*MEAS_COND_AXIS_UNIT-14 ""
*MEAS_COND_AXIS_UNIT-15 ""
*MEAS_COND_AXIS_UNIT-16 ""
*MEAS_COND_AXIS_UNIT-17 ""
*MEAS_COND_AXIS_UNIT-18 ""
*MEAS_COND_AXIS_UNIT-19 ""
*MEAS_COND_AXIS_UNIT-20 ""
*MEAS_COND_AXIS_UNIT-21 ""
*MEAS_COND_AXIS_UNIT-22 ""
*MEAS_COND_AXIS_UNIT-23 "mm"
*MEAS_COND_AXIS_UNIT-24 "mm"
*MEAS_COND_AXIS_UNIT-25 "mm"
*MEAS_COND_AXIS_UNIT-26 ""
*MEAS_COND_AXIS_UNIT-27 ""
*MEAS_COND_AXIS_UNIT-28 ""
*MEAS_COND_AXIS_UNIT-29 ""
*MEAS_COND_AXIS_UNIT-30 "div"
*MEAS_COND_COUNTER_CNTLOSS_CORR "0.0000000000"
*MEAS_COND_COUNTER_PHABASE "38.0000000000"
*MEAS_COND_COUNTER_PHAWINDOW "16.0000000000"
*MEAS_COND_COUNTER_PHA_UNIT "div"
*MEAS_COND_COUNTER_TAUDIFF "30.0000000000"
*MEAS_COND_COUNTER_TAUINT "0.0000000000"
*MEAS_COND_IRRADIATION_MODE "OFF"
*MEAS_COND_IRRADIATION_WIDTH ""
*MEAS_COND_OPT_ATTR "集中法"
*MEAS_COND_OPT_NAME "@集中法"
*MEAS_COND_UNSYMMETRIC_MODE "OFF"
*MEAS_COND_XG_CURRENT "30.0000000000"
*MEAS_COND_XG_VOLTAGE "40.0000000000"
*MEAS_COND_XG_WAVE_TYPE "Ka"
*MEAS_DATA_COUNT "5001.0000000000"
*MEAS_SCAN_AXIS_X "2θ/θ"
*MEAS_SCAN_AXIS_X_INTERNAL "TwoThetaTheta"
*MEAS_SCAN_END_TIME "08/05/22 18:21:04"
*MEAS_SCAN_MODE "CONTINUOUS"
*MEAS_SCAN_MONITOR "0"
*MEAS_SCAN_RESOLUTION_X "0.0002"
*MEAS_SCAN_SPEED "2.5"
*MEAS_SCAN_SPEED_UNIT "deg/min"
*MEAS_SCAN_START "20.0000000000"
*MEAS_SCAN_START_TIME "08/05/22 17:59:40"
*MEAS_SCAN_STEP "0.0100000000"
*MEAS_SCAN_STOP "70.0000000000"
*MEAS_SCAN_UNIT_X "deg"
*MEAS_SCAN_UNIT_Y "counts"
*RAS_HEADER_END
*RAS_INT_START
20.0000 855.0000 1.0000
20.0100 944.0000 1.0000
20.0200 851.0000 1.0000
20.0300 886.0000 1.0000
20.0400 900.0000 1.0000
20.0500 929.0000 1.0000
20.0600 856.0000 1.0000
20.0700 919.0000 1.0000
20.0800 839.0000 1.0000
20.0900 905.0000 1.0000
20.1000 896.0000 1.0000
20.1100 876.0000 1.0000
20.1200 887.0000 1.0000
20.1300 846.0000 1.0000
20.1400 889.0000 1.0000
20.1500 889.0000 1.0000
20.1600 855.0000 1.0000
20.1700 914.0000 1.0000
20.1800 865.0000 1.0000
20.1900 873.0000 1.0000
20.2000 889.0000 1.0000
20.2100 886.0000 1.0000
20.2200 909.0000 1.0000
20.2300 882.0000 1.0000
20.2400 872.0000 1.0000
20.2500 879.0000 1.0000
20.2600 855.0000 1.0000
20.2700 899.0000 1.0000
20.2800 908.0000 1.0000
20.2900 865.0000 1.0000
20.3000 856.0000 1.0000
20.3100 916.0000 1.0000
20.3200 906.0000 1.0000
20.3300 861.0000 1.0000
20.3400 850.0000 1.0000
20.3500 861.0000 1.0000
20.3600 851.0000 1.0000
20.3700 880.0000 1.0000
20.3800 916.0000 1.0000
20.3900 918.0000 1.0000
20.4000 882.0000 1.0000
20.4100 922.0000 1.0000
20.4200 886.0000 1.0000
20.4300 886.0000 1.0000
20.4400 924.0000 1.0000
20.4500 893.0000 1.0000
20.4600 914.0000 1.0000
20.4700 886.0000 1.0000
20.4800 891.0000 1.0000
20.4900 889.0000 1.0000
20.5000 867.0000 1.0000
20.5100 828.0000 1.0000
20.5200 842.0000 1.0000
20.5300 880.0000 1.0000
20.5400 878.0000 1.0000
20.5500 886.0000 1.0000
20.5600 880.0000 1.0000
20.5700 855.0000 1.0000
20.5800 848.0000 1.0000
20.5900 868.0000 1.0000
20.6000 882.0000 1.0000
20.6100 876.0000 1.0000
20.6200 886.0000 1.0000
20.6300 860.0000 1.0000
20.6400 860.0000 1.0000
20.6500 891.0000 1.0000
20.6600 890.0000 1.0000
20.6700 841.0000 1.0000
20.6800 856.0000 1.0000
20.6900 843.0000 1.0000
20.7000 860.0000 1.0000
20.7100 903.0000 1.0000
20.7200 871.0000 1.0000
20.7300 893.0000 1.0000
20.7400 919.0000 1.0000
20.7500 899.0000 1.0000
20.7600 872.0000 1.0000
20.7700 874.0000 1.0000
20.7800 909.0000 1.0000
20.7900 875.0000 1.0000
20.8000 877.0000 1.0000
20.8100 858.0000 1.0000
20.8200 952.0000 1.0000
20.8300 859.0000 1.0000
20.8400 863.0000 1.0000
20.8500 885.0000 1.0000
20.8600 920.0000 1.0000
20.8700 901.0000 1.0000
20.8800 868.0000 1.0000
20.8900 889.0000 1.0000
20.9000 840.0000 1.0000
20.9100 881.0000 1.0000
20.9200 892.0000 1.0000
20.9300 784.0000 1.0000
20.9400 889.0000 1.0000
20.9500 897.0000 1.0000
20.9600 900.0000 1.0000
20.9700 883.0000 1.0000
20.9800 908.0000 1.0000
20.9900 835.0000 1.0000
21.0000 861.0000 1.0000
21.0100 865.0000 1.0000
21.0200 856.0000 1.0000
21.0300 855.0000 1.0000
21.0400 886.0000 1.0000
21.0500 875.0000 1.0000
21.0600 858.0000 1.0000
21.0700 845.0000 1.0000
21.0800 887.0000 1.0000
21.0900 888.0000 1.0000
21.1000 885.0000 1.0000
21.1100 862.0000 1.0000
21.1200 854.0000 1.0000
21.1300 830.0000 1.0000
21.1400 862.0000 1.0000
21.1500 845.0000 1.0000
21.1600 808.0000 1.0000
21.1700 869.0000 1.0000
21.1800 865.0000 1.0000
21.1900 885.0000 1.0000
21.2000 866.0000 1.0000
21.2100 851.0000 1.0000
21.2200 915.0000 1.0000
21.2300 843.0000 1.0000
21.2400 895.0000 1.0000
21.2500 854.0000 1.0000
21.2600 846.0000 1.0000
21.2700 842.0000 1.0000
21.2800 874.0000 1.0000
21.2900 865.0000 1.0000
21.3000 837.0000 1.0000
21.3100 854.0000 1.0000
21.3200 821.0000 1.0000
21.3300 835.0000 1.0000
21.3400 864.0000 1.0000
21.3500 860.0000 1.0000
21.3600 860.0000 1.0000
21.3700 855.0000 1.0000
21.3800 892.0000 1.0000
21.3900 861.0000 1.0000
21.4000 849.0000 1.0000
21.4100 881.0000 1.0000
21.4200 871.0000 1.0000
21.4300 886.0000 1.0000
21.4400 873.0000 1.0000
21.4500 821.0000 1.0000
21.4600 901.0000 1.0000
21.4700 828.0000 1.0000
21.4800 861.0000 1.0000
21.4900 824.0000 1.0000
21.5000 863.0000 1.0000
21.5100 921.0000 1.0000
21.5200 901.0000 1.0000
21.5300 893.0000 1.0000
21.5400 880.0000 1.0000
21.5500 832.0000 1.0000
21.5600 884.0000 1.0000
21.5700 865.0000 1.0000
21.5800 861.0000 1.0000
21.5900 854.0000 1.0000
21.6000 849.0000 1.0000
21.6100 842.0000 1.0000
21.6200 851.0000 1.0000
21.6300 824.0000 1.0000
21.6400 831.0000 1.0000
21.6500 900.0000 1.0000
21.6600 866.0000 1.0000
21.6700 868.0000 1.0000
21.6800 837.0000 1.0000
21.6900 857.0000 1.0000
21.7000 879.0000 1.0000
21.7100 856.0000 1.0000
21.7200 846.0000 1.0000
21.7300 865.0000 1.0000
21.7400 865.0000 1.0000
21.7500 880.0000 1.0000
21.7600 835.0000 1.0000
21.7700 828.0000 1.0000
21.7800 843.0000 1.0000
21.7900 870.0000 1.0000
21.8000 897.0000 1.0000
21.8100 852.0000 1.0000
21.8200 878.0000 1.0000
21.8300 857.0000 1.0000
21.8400 863.0000 1.0000
21.8500 833.0000 1.0000
21.8600 863.0000 1.0000
21.8700 904.0000 1.0000
21.8800 856.0000 1.0000
21.8900 894.0000 1.0000
21.9000 888.0000 1.0000
21.9100 907.0000 1.0000
21.9200 835.0000 1.0000
21.9300 876.0000 1.0000
21.9400 843.0000 1.0000
21.9500 863.0000 1.0000
21.9600 890.0000 1.0000
21.9700 882.0000 1.0000
21.9800 881.0000 1.0000
21.9900 881.0000 1.0000
22.0000 859.0000 1.0000
22.0100 854.0000 1.0000
22.0200 846.0000 1.0000
22.0300 796.0000 1.0000
22.0400 840.0000 1.0000
22.0500 900.0000 1.0000
22.0600 849.0000 1.0000
22.0700 853.0000 1.0000
22.0800 867.0000 1.0000
22.0900 821.0000 1.0000
22.1000 838.0000 1.0000
22.1100 832.0000 1.0000
22.1200 860.0000 1.0000
22.1300 859.0000 1.0000
22.1400 876.0000 1.0000
22.1500 829.0000 1.0000
22.1600 821.0000 1.0000
22.1700 849.0000 1.0000
22.1800 869.0000 1.0000
22.1900 827.0000 1.0000
22.2000 816.0000 1.0000
22.2100 777.0000 1.0000
22.2200 857.0000 1.0000
22.2300 910.0000 1.0000
22.2400 859.0000 1.0000
22.2500 852.0000 1.0000
22.2600 845.0000 1.0000
22.2700 879.0000 1.0000
22.2800 850.0000 1.0000
22.2900 809.0000 1.0000
22.3000 840.0000 1.0000
22.3100 848.0000 1.0000
22.3200 842.0000 1.0000
22.3300 863.0000 1.0000
22.3400 887.0000 1.0000
22.3500 833.0000 1.0000
22.3600 795.0000 1.0000
22.3700 818.0000 1.0000
22.3800 872.0000 1.0000
22.3900 833.0000 1.0000
22.4000 839.0000 1.0000
22.4100 809.0000 1.0000
22.4200 893.0000 1.0000
22.4300 866.0000 1.0000
22.4400 809.0000 1.0000
22.4500 834.0000 1.0000
22.4600 852.0000 1.0000
22.4700 852.0000 1.0000
22.4800 815.0000 1.0000
22.4900 836.0000 1.0000
22.5000 823.0000 1.0000
22.5100 813.0000 1.0000
22.5200 819.0000 1.0000
22.5300 860.0000 1.0000
22.5400 906.0000 1.0000
22.5500 840.0000 1.0000
22.5600 878.0000 1.0000
22.5700 834.0000 1.0000
22.5800 827.0000 1.0000
22.5900 857.0000 1.0000
22.6000 823.0000 1.0000
22.6100 855.0000 1.0000
22.6200 836.0000 1.0000
22.6300 828.0000 1.0000
22.6400 847.0000 1.0000
22.6500 848.0000 1.0000
22.6600 822.0000 1.0000
22.6700 836.0000 1.0000
22.6800 830.0000 1.0000
22.6900 852.0000 1.0000
22.7000 867.0000 1.0000
22.7100 840.0000 1.0000
22.7200 837.0000 1.0000
22.7300 816.0000 1.0000
22.7400 824.0000 1.0000
22.7500 831.0000 1.0000
22.7600 825.0000 1.0000
22.7700 813.0000 1.0000
22.7800 870.0000 1.0000
22.7900 871.0000 1.0000
22.8000 832.0000 1.0000
22.8100 825.0000 1.0000
22.8200 854.0000 1.0000
22.8300 868.0000 1.0000
22.8400 840.0000 1.0000
22.8500 796.0000 1.0000
22.8600 850.0000 1.0000
22.8700 780.0000 1.0000
22.8800 824.0000 1.0000
22.8900 801.0000 1.0000
22.9000 811.0000 1.0000
22.9100 873.0000 1.0000
22.9200 880.0000 1.0000
22.9300 859.0000 1.0000
22.9400 906.0000 1.0000
22.9500 829.0000 1.0000
22.9600 837.0000 1.0000
22.9700 855.0000 1.0000
22.9800 888.0000 1.0000
22.9900 856.0000 1.0000
23.0000 811.0000 1.0000
23.0100 838.0000 1.0000
23.0200 851.0000 1.0000
23.0300 797.0000 1.0000
23.0400 830.0000 1.0000
23.0500 856.0000 1.0000
23.0600 863.0000 1.0000
23.0700 806.0000 1.0000
23.0800 827.0000 1.0000
23.0900 849.0000 1.0000
23.1000 884.0000 1.0000
23.1100 845.0000 1.0000
23.1200 809.0000 1.0000
23.1300 822.0000 1.0000
23.1400 833.0000 1.0000
23.1500 850.0000 1.0000
23.1600 861.0000 1.0000
23.1700 818.0000 1.0000
23.1800 865.0000 1.0000
23.1900 827.0000 1.0000
23.2000 786.0000 1.0000
23.2100 796.0000 1.0000
23.2200 796.0000 1.0000
23.2300 810.0000 1.0000
23.2400 811.0000 1.0000
23.2500 819.0000 1.0000
23.2600 770.0000 1.0000
23.2700 814.0000 1.0000
23.2800 830.0000 1.0000
23.2900 843.0000 1.0000
23.3000 846.0000 1.0000
23.3100 855.0000 1.0000
23.3200 818.0000 1.0000
23.3300 838.0000 1.0000
23.3400 851.0000 1.0000
23.3500 850.0000 1.0000
23.3600 844.0000 1.0000
23.3700 870.0000 1.0000
23.3800 829.0000 1.0000
23.3900 843.0000 1.0000
23.4000 828.0000 1.0000
23.4100 812.0000 1.0000
23.4200 852.0000 1.0000
23.4300 839.0000 1.0000
23.4400 786.0000 1.0000
23.4500 814.0000 1.0000
23.4600 816.0000 1.0000
23.4700 831.0000 1.0000
23.4800 782.0000 1.0000
23.4900 808.0000 1.0000
23.5000 774.0000 1.0000
23.5100 850.0000 1.0000
23.5200 816.0000 1.0000
23.5300 859.0000 1.0000
23.5400 844.0000 1.0000
23.5500 867.0000 1.0000
23.5600 836.0000 1.0000
23.5700 823.0000 1.0000
23.5800 795.0000 1.0000
23.5900 793.0000 1.0000
23.6000 863.0000 1.0000
23.6100 843.0000 1.0000
23.6200 829.0000 1.0000
23.6300 860.0000 1.0000
23.6400 841.0000 1.0000
23.6500 869.0000 1.0000
23.6600 800.0000 1.0000
23.6700 854.0000 1.0000
23.6800 844.0000 1.0000
23.6900 849.0000 1.0000
23.7000 840.0000 1.0000
23.7100 815.0000 1.0000
23.7200 878.0000 1.0000
23.7300 882.0000 1.0000
23.7400 810.0000 1.0000
23.7500 857.0000 1.0000
23.7600 858.0000 1.0000
23.7700 809.0000 1.0000
23.7800 849.0000 1.0000
23.7900 799.0000 1.0000
23.8000 831.0000 1.0000
23.8100 849.0000 1.0000
23.8200 858.0000 1.0000
23.8300 851.0000 1.0000
23.8400 855.0000 1.0000
23.8500 860.0000 1.0000
23.8600 877.0000 1.0000
23.8700 843.0000 1.0000
23.8800 832.0000 1.0000
23.8900 921.0000 1.0000
23.9000 852.0000 1.0000
23.9100 900.0000 1.0000
23.9200 879.0000 1.0000
23.9300 913.0000 1.0000
23.9400 873.0000 1.0000
23.9500 847.0000 1.0000
23.9600 868.0000 1.0000
23.9700 889.0000 1.0000
23.9800 903.0000 1.0000
23.9900 916.0000 1.0000
24.0000 910.0000 1.0000
24.0100 862.0000 1.0000
24.0200 894.0000 1.0000
24.0300 913.0000 1.0000
24.0400 920.0000 1.0000
24.0500 860.0000 1.0000
24.0600 917.0000 1.0000
24.0700 893.0000 1.0000
24.0800 921.0000 1.0000
24.0900 931.0000 1.0000
24.1000 900.0000 1.0000
24.1100 936.0000 1.0000
24.1200 930.0000 1.0000
24.1300 918.0000 1.0000
24.1400 943.0000 1.0000
24.1500 891.0000 1.0000
24.1600 947.0000 1.0000
24.1700 855.0000 1.0000
24.1800 905.0000 1.0000
24.1900 863.0000 1.0000
24.2000 899.0000 1.0000
24.2100 902.0000 1.0000
24.2200 898.0000 1.0000
24.2300 925.0000 1.0000
24.2400 873.0000 1.0000
24.2500 859.0000 1.0000
24.2600 824.0000 1.0000
24.2700 863.0000 1.0000
24.2800 864.0000 1.0000
24.2900 876.0000 1.0000
24.3000 809.0000 1.0000
24.3100 812.0000 1.0000
24.3200 826.0000 1.0000
24.3300 818.0000 1.0000
24.3400 844.0000 1.0000
24.3500 833.0000 1.0000
24.3600 844.0000 1.0000
24.3700 811.0000 1.0000
24.3800 842.0000 1.0000
24.3900 849.0000 1.0000
24.4000 814.0000 1.0000
24.4100 811.0000 1.0000
24.4200 788.0000 1.0000
24.4300 751.0000 1.0000
24.4400 821.0000 1.0000
24.4500 827.0000 1.0000
24.4600 821.0000 1.0000
24.4700 795.0000 1.0000
24.4800 833.0000 1.0000
24.4900 879.0000 1.0000
24.5000 807.0000 1.0000
24.5100 809.0000 1.0000
24.5200 820.0000 1.0000
24.5300 811.0000 1.0000
24.5400 797.0000 1.0000
24.5500 848.0000 1.0000
24.5600 858.0000 1.0000
24.5700 801.0000 1.0000
24.5800 829.0000 1.0000
24.5900 781.0000 1.0000
24.6000 841.0000 1.0000
24.6100 805.0000 1.0000
24.6200 824.0000 1.0000
24.6300 762.0000 1.0000
24.6400 796.0000 1.0000
24.6500 823.0000 1.0000
24.6600 795.0000 1.0000
24.6700 805.0000 1.0000
24.6800 787.0000 1.0000
24.6900 831.0000 1.0000
24.7000 822.0000 1.0000
24.7100 796.0000 1.0000
24.7200 809.0000 1.0000
24.7300 829.0000 1.0000
24.7400 845.0000 1.0000
24.7500 810.0000 1.0000
24.7600 809.0000 1.0000
24.7700 776.0000 1.0000
24.7800 782.0000 1.0000
24.7900 788.0000 1.0000
24.8000 768.0000 1.0000
24.8100 812.0000 1.0000
24.8200 832.0000 1.0000
24.8300 817.0000 1.0000
24.8400 771.0000 1.0000
24.8500 818.0000 1.0000
24.8600 800.0000 1.0000
24.8700 812.0000 1.0000
24.8800 801.0000 1.0000
24.8900 817.0000 1.0000
24.9000 812.0000 1.0000
24.9100 784.0000 1.0000
24.9200 840.0000 1.0000
24.9300 798.0000 1.0000
24.9400 804.0000 1.0000
24.9500 834.0000 1.0000
24.9600 749.0000 1.0000
24.9700 793.0000 1.0000
24.9800 780.0000 1.0000
24.9900 779.0000 1.0000
25.0000 834.0000 1.0000
25.0100 772.0000 1.0000
25.0200 819.0000 1.0000
25.0300 821.0000 1.0000
25.0400 840.0000 1.0000
25.0500 791.0000 1.0000
25.0600 822.0000 1.0000
25.0700 797.0000 1.0000
25.0800 788.0000 1.0000
25.0900 802.0000 1.0000
25.1000 806.0000 1.0000
25.1100 790.0000 1.0000
25.1200 831.0000 1.0000
25.1300 781.0000 1.0000
25.1400 788.0000 1.0000
25.1500 782.0000 1.0000
25.1600 766.0000 1.0000
25.1700 794.0000 1.0000
25.1800 811.0000 1.0000
25.1900 790.0000 1.0000
25.2000 780.0000 1.0000
25.2100 770.0000 1.0000
25.2200 813.0000 1.0000
25.2300 775.0000 1.0000
25.2400 812.0000 1.0000
25.2500 793.0000 1.0000
25.2600 797.0000 1.0000
25.2700 827.0000 1.0000
25.2800 787.0000 1.0000
25.2900 785.0000 1.0000
25.3000 791.0000 1.0000
25.3100 820.0000 1.0000
25.3200 763.0000 1.0000
25.3300 819.0000 1.0000
25.3400 793.0000 1.0000
25.3500 770.0000 1.0000
25.3600 804.0000 1.0000
25.3700 792.0000 1.0000
25.3800 789.0000 1.0000
25.3900 813.0000 1.0000
25.4000 795.0000 1.0000
25.4100 777.0000 1.0000
25.4200 808.0000 1.0000
25.4300 803.0000 1.0000
25.4400 767.0000 1.0000
25.4500 811.0000 1.0000
25.4600 831.0000 1.0000
25.4700 816.0000 1.0000
25.4800 816.0000 1.0000
25.4900 827.0000 1.0000
25.5000 774.0000 1.0000
25.5100 761.0000 1.0000
25.5200 825.0000 1.0000
25.5300 804.0000 1.0000
25.5400 823.0000 1.0000
25.5500 853.0000 1.0000
25.5600 828.0000 1.0000
25.5700 829.0000 1.0000
25.5800 817.0000 1.0000
25.5900 823.0000 1.0000
25.6000 805.0000 1.0000
25.6100 783.0000 1.0000
25.6200 838.0000 1.0000
25.6300 837.0000 1.0000
25.6400 786.0000 1.0000
25.6500 781.0000 1.0000
25.6600 817.0000 1.0000
25.6700 803.0000 1.0000
25.6800 805.0000 1.0000
25.6900 866.0000 1.0000
25.7000 810.0000 1.0000
25.7100 854.0000 1.0000
25.7200 893.0000 1.0000
25.7300 808.0000 1.0000
25.7400 811.0000 1.0000
25.7500 790.0000 1.0000
25.7600 850.0000 1.0000
25.7700 808.0000 1.0000
25.7800 769.0000 1.0000
25.7900 809.0000 1.0000
25.8000 837.0000 1.0000
25.8100 833.0000 1.0000
25.8200 819.0000 1.0000
25.8300 813.0000 1.0000
25.8400 867.0000 1.0000
25.8500 842.0000 1.0000
25.8600 863.0000 1.0000
25.8700 871.0000 1.0000
25.8800 860.0000 1.0000
25.8900 879.0000 1.0000
25.9000 899.0000 1.0000
25.9100 868.0000 1.0000
25.9200 883.0000 1.0000
25.9300 846.0000 1.0000
25.9400 888.0000 1.0000
25.9500 864.0000 1.0000
25.9600 863.0000 1.0000
25.9700 851.0000 1.0000
25.9800 882.0000 1.0000
25.9900 839.0000 1.0000
26.0000 841.0000 1.0000
26.0100 878.0000 1.0000
26.0200 903.0000 1.0000
26.0300 897.0000 1.0000
26.0400 934.0000 1.0000
26.0500 883.0000 1.0000
26.0600 912.0000 1.0000
26.0700 866.0000 1.0000
26.0800 946.0000 1.0000
26.0900 935.0000 1.0000
26.1000 917.0000 1.0000
26.1100 998.0000 1.0000
26.1200 973.0000 1.0000
26.1300 981.0000 1.0000
26.1400 942.0000 1.0000
26.1500 979.0000 1.0000
26.1600 979.0000 1.0000
26.1700 1003.0000 1.0000
26.1800 1040.0000 1.0000
26.1900 1045.0000 1.0000
26.2000 1074.0000 1.0000
26.2100 1140.0000 1.0000
26.2200 1118.0000 1.0000
26.2300 1159.0000 1.0000
26.2400 1214.0000 1.0000
26.2500 1237.0000 1.0000
26.2600 1253.0000 1.0000
26.2700 1277.0000 1.0000
26.2800 1357.0000 1.0000
26.2900 1398.0000 1.0000
26.3000 1521.0000 1.0000
26.3100 1494.0000 1.0000
26.3200 1529.0000 1.0000
26.3300 1690.0000 1.0000
26.3400 1739.0000 1.0000
26.3500 1838.0000 1.0000
26.3600 1906.0000 1.0000
26.3700 1998.0000 1.0000
26.3800 2053.0000 1.0000
26.3900 2239.0000 1.0000
26.4000 2370.0000 1.0000
26.4100 2455.0000 1.0000
26.4200 2579.0000 1.0000
26.4300 2619.0000 1.0000
26.4400 2696.0000 1.0000
26.4500 2674.0000 1.0000
26.4600 2766.0000 1.0000
26.4700 2741.0000 1.0000
26.4800 2612.0000 1.0000
26.4900 2642.0000 1.0000
26.5000 2450.0000 1.0000
26.5100 2327.0000 1.0000
26.5200 2342.0000 1.0000
26.5300 2273.0000 1.0000
26.5400 2055.0000 1.0000
26.5500 2033.0000 1.0000
26.5600 1964.0000 1.0000
26.5700 1702.0000 1.0000
26.5800 1720.0000 1.0000
26.5900 1650.0000 1.0000
26.6000 1558.0000 1.0000
26.6100 1434.0000 1.0000
26.6200 1345.0000 1.0000
26.6300 1365.0000 1.0000
26.6400 1331.0000 1.0000
26.6500 1215.0000 1.0000
26.6600 1178.0000 1.0000
26.6700 1147.0000 1.0000
26.6800 1143.0000 1.0000
26.6900 1067.0000 1.0000
26.7000 1061.0000 1.0000
26.7100 1054.0000 1.0000
26.7200 1001.0000 1.0000
26.7300 1003.0000 1.0000
26.7400 992.0000 1.0000
26.7500 950.0000 1.0000
26.7600 911.0000 1.0000
26.7700 947.0000 1.0000
26.7800 917.0000 1.0000
26.7900 938.0000 1.0000
26.8000 921.0000 1.0000
26.8100 900.0000 1.0000
26.8200 948.0000 1.0000
26.8300 858.0000 1.0000
26.8400 899.0000 1.0000
26.8500 884.0000 1.0000
26.8600 864.0000 1.0000
26.8700 866.0000 1.0000
26.8800 885.0000 1.0000
26.8900 832.0000 1.0000
26.9000 824.0000 1.0000
26.9100 848.0000 1.0000
26.9200 830.0000 1.0000
26.9300 830.0000 1.0000
26.9400 822.0000 1.0000
26.9500 836.0000 1.0000
26.9600 808.0000 1.0000
26.9700 814.0000 1.0000
26.9800 796.0000 1.0000
26.9900 802.0000 1.0000
27.0000 828.0000 1.0000
27.0100 780.0000 1.0000
27.0200 777.0000 1.0000
27.0300 772.0000 1.0000
27.0400 807.0000 1.0000
27.0500 795.0000 1.0000
27.0600 749.0000 1.0000
27.0700 783.0000 1.0000
27.0800 779.0000 1.0000
27.0900 787.0000 1.0000
27.1000 792.0000 1.0000
27.1100 827.0000 1.0000
27.1200 746.0000 1.0000
27.1300 792.0000 1.0000
27.1400 794.0000 1.0000
27.1500 789.0000 1.0000
27.1600 724.0000 1.0000
27.1700 774.0000 1.0000
27.1800 799.0000 1.0000
27.1900 782.0000 1.0000
27.2000 754.0000 1.0000
27.2100 739.0000 1.0000
27.2200 777.0000 1.0000
27.2300 758.0000 1.0000
27.2400 738.0000 1.0000
27.2500 793.0000 1.0000
27.2600 793.0000 1.0000
27.2700 752.0000 1.0000
27.2800 751.0000 1.0000
27.2900 743.0000 1.0000
27.3000 705.0000 1.0000
27.3100 752.0000 1.0000
27.3200 799.0000 1.0000
27.3300 754.0000 1.0000
27.3400 802.0000 1.0000
27.3500 790.0000 1.0000
27.3600 765.0000 1.0000
27.3700 781.0000 1.0000
27.3800 720.0000 1.0000
27.3900 753.0000 1.0000
27.4000 750.0000 1.0000
27.4100 802.0000 1.0000
27.4200 741.0000 1.0000
27.4300 765.0000 1.0000
27.4400 763.0000 1.0000
27.4500 771.0000 1.0000
27.4600 767.0000 1.0000
27.4700 759.0000 1.0000
27.4800 799.0000 1.0000
27.4900 754.0000 1.0000
27.5000 737.0000 1.0000
27.5100 777.0000 1.0000
27.5200 748.0000 1.0000
27.5300 752.0000 1.0000
27.5400 747.0000 1.0000
27.5500 727.0000 1.0000
27.5600 755.0000 1.0000
27.5700 741.0000 1.0000
27.5800 771.0000 1.0000
27.5900 727.0000 1.0000
27.6000 737.0000 1.0000
27.6100 700.0000 1.0000
27.6200 728.0000 1.0000
27.6300 715.0000 1.0000
27.6400 753.0000 1.0000
27.6500 729.0000 1.0000
27.6600 778.0000 1.0000
27.6700 749.0000 1.0000
27.6800 683.0000 1.0000
27.6900 736.0000 1.0000
27.7000 747.0000 1.0000
27.7100 715.0000 1.0000
27.7200 721.0000 1.0000
27.7300 722.0000 1.0000
27.7400 691.0000 1.0000
27.7500 661.0000 1.0000
27.7600 710.0000 1.0000
27.7700 687.0000 1.0000
27.7800 747.0000 1.0000
27.7900 704.0000 1.0000
27.8000 738.0000 1.0000
27.8100 720.0000 1.0000
27.8200 739.0000 1.0000
27.8300 704.0000 1.0000
27.8400 696.0000 1.0000
27.8500 678.0000 1.0000
27.8600 719.0000 1.0000
27.8700 755.0000 1.0000
27.8800 707.0000 1.0000
27.8900 697.0000 1.0000
27.9000 735.0000 1.0000
27.9100 711.0000 1.0000
27.9200 717.0000 1.0000
27.9300 744.0000 1.0000
27.9400 719.0000 1.0000
27.9500 688.0000 1.0000
27.9600 688.0000 1.0000
27.9700 680.0000 1.0000
27.9800 726.0000 1.0000
27.9900 735.0000 1.0000
28.0000 666.0000 1.0000
28.0100 786.0000 1.0000
28.0200 737.0000 1.0000
28.0300 688.0000 1.0000
28.0400 720.0000 1.0000
28.0500 706.0000 1.0000
28.0600 730.0000 1.0000
28.0700 720.0000 1.0000
28.0800 703.0000 1.0000
28.0900 682.0000 1.0000
28.1000 735.0000 1.0000
28.1100 712.0000 1.0000
28.1200 706.0000 1.0000
28.1300 753.0000 1.0000
28.1400 707.0000 1.0000
28.1500 700.0000 1.0000
28.1600 708.0000 1.0000
28.1700 706.0000 1.0000
28.1800 703.0000 1.0000
28.1900 664.0000 1.0000
28.2000 665.0000 1.0000
28.2100 685.0000 1.0000
28.2200 678.0000 1.0000
28.2300 682.0000 1.0000
28.2400 722.0000 1.0000
28.2500 722.0000 1.0000
28.2600 758.0000 1.0000
28.2700 688.0000 1.0000
28.2800 721.0000 1.0000
28.2900 721.0000 1.0000
28.3000 749.0000 1.0000
28.3100 683.0000 1.0000
28.3200 724.0000 1.0000
28.3300 716.0000 1.0000
28.3400 693.0000 1.0000
28.3500 686.0000 1.0000
28.3600 714.0000 1.0000
28.3700 689.0000 1.0000
28.3800 695.0000 1.0000
28.3900 751.0000 1.0000
28.4000 670.0000 1.0000
28.4100 676.0000 1.0000
28.4200 689.0000 1.0000
28.4300 660.0000 1.0000
28.4400 693.0000 1.0000
28.4500 694.0000 1.0000
28.4600 735.0000 1.0000
28.4700 676.0000 1.0000
28.4800 692.0000 1.0000
28.4900 649.0000 1.0000
28.5000 682.0000 1.0000
28.5100 686.0000 1.0000
28.5200 724.0000 1.0000
28.5300 684.0000 1.0000
28.5400 674.0000 1.0000
28.5500 696.0000 1.0000
28.5600 663.0000 1.0000
28.5700 659.0000 1.0000
28.5800 702.0000 1.0000
28.5900 694.0000 1.0000
28.6000 706.0000 1.0000
28.6100 677.0000 1.0000
28.6200 656.0000 1.0000
28.6300 665.0000 1.0000
28.6400 677.0000 1.0000
28.6500 650.0000 1.0000
28.6600 654.0000 1.0000
28.6700 630.0000 1.0000
28.6800 692.0000 1.0000
28.6900 692.0000 1.0000
28.7000 661.0000 1.0000
28.7100 675.0000 1.0000
28.7200 684.0000 1.0000
28.7300 632.0000 1.0000
28.7400 678.0000 1.0000
28.7500 669.0000 1.0000
28.7600 656.0000 1.0000
28.7700 659.0000 1.0000
28.7800 652.0000 1.0000
28.7900 657.0000 1.0000
28.8000 676.0000 1.0000
28.8100 668.0000 1.0000
28.8200 665.0000 1.0000
28.8300 662.0000 1.0000
28.8400 685.0000 1.0000
28.8500 687.0000 1.0000
28.8600 645.0000 1.0000
28.8700 704.0000 1.0000
28.8800 681.0000 1.0000
28.8900 695.0000 1.0000
28.9000 664.0000 1.0000
28.9100 680.0000 1.0000
28.9200 662.0000 1.0000
28.9300 661.0000 1.0000
28.9400 712.0000 1.0000
28.9500 678.0000 1.0000
28.9600 658.0000 1.0000
28.9700 656.0000 1.0000
28.9800 648.0000 1.0000
28.9900 688.0000 1.0000
29.0000 688.0000 1.0000
29.0100 683.0000 1.0000
29.0200 680.0000 1.0000
29.0300 691.0000 1.0000
29.0400 682.0000 1.0000
29.0500 638.0000 1.0000
29.0600 639.0000 1.0000
29.0700 666.0000 1.0000
29.0800 663.0000 1.0000
29.0900 723.0000 1.0000
29.1000 707.0000 1.0000
29.1100 664.0000 1.0000
29.1200 659.0000 1.0000
29.1300 655.0000 1.0000
29.1400 659.0000 1.0000
29.1500 642.0000 1.0000
29.1600 699.0000 1.0000
29.1700 630.0000 1.0000
29.1800 681.0000 1.0000
29.1900 668.0000 1.0000
29.2000 675.0000 1.0000
29.2100 673.0000 1.0000
29.2200 694.0000 1.0000
29.2300 650.0000 1.0000
29.2400 648.0000 1.0000
29.2500 700.0000 1.0000
29.2600 706.0000 1.0000
29.2700 638.0000 1.0000
29.2800 657.0000 1.0000
29.2900 646.0000 1.0000
29.3000 652.0000 1.0000
29.3100 639.0000 1.0000
29.3200 644.0000 1.0000
29.3300 657.0000 1.0000
29.3400 645.0000 1.0000
29.3500 645.0000 1.0000
29.3600 649.0000 1.0000
29.3700 670.0000 1.0000
29.3800 652.0000 1.0000
29.3900 633.0000 1.0000
29.4000 667.0000 1.0000
29.4100 669.0000 1.0000
29.4200 715.0000 1.0000
29.4300 665.0000 1.0000
29.4400 632.0000 1.0000
29.4500 687.0000 1.0000
29.4600 677.0000 1.0000
29.4700 671.0000 1.0000
29.4800 658.0000 1.0000
29.4900 690.0000 1.0000
29.5000 701.0000 1.0000
29.5100 678.0000 1.0000
29.5200 690.0000 1.0000
29.5300 671.0000 1.0000
29.5400 685.0000 1.0000
29.5500 682.0000 1.0000
29.5600 641.0000 1.0000
29.5700 675.0000 1.0000
29.5800 665.0000 1.0000
29.5900 632.0000 1.0000
29.6000 665.0000 1.0000
29.6100 664.0000 1.0000
29.6200 679.0000 1.0000
29.6300 621.0000 1.0000
29.6400 637.0000 1.0000
29.6500 686.0000 1.0000
29.6600 647.0000 1.0000
29.6700 674.0000 1.0000
29.6800 628.0000 1.0000
29.6900 647.0000 1.0000
29.7000 654.0000 1.0000
29.7100 642.0000 1.0000
29.7200 621.0000 1.0000
29.7300 645.0000 1.0000
29.7400 587.0000 1.0000
29.7500 651.0000 1.0000
29.7600 651.0000 1.0000
29.7700 622.0000 1.0000
29.7800 653.0000 1.0000
29.7900 654.0000 1.0000
29.8000 657.0000 1.0000
29.8100 645.0000 1.0000
29.8200 611.0000 1.0000
29.8300 661.0000 1.0000
29.8400 642.0000 1.0000
29.8500 658.0000 1.0000
29.8600 635.0000 1.0000
29.8700 616.0000 1.0000
29.8800 638.0000 1.0000
29.8900 648.0000 1.0000
29.9000 646.0000 1.0000
29.9100 646.0000 1.0000
29.9200 598.0000 1.0000
29.9300 647.0000 1.0000
29.9400 626.0000 1.0000
29.9500 671.0000 1.0000
29.9600 654.0000 1.0000
29.9700 629.0000 1.0000
29.9800 653.0000 1.0000
29.9900 673.0000 1.0000
30.0000 631.0000 1.0000
30.0100 601.0000 1.0000
30.0200 655.0000 1.0000
30.0300 634.0000 1.0000
30.0400 636.0000 1.0000
30.0500 671.0000 1.0000
30.0600 680.0000 1.0000
30.0700 622.0000 1.0000
30.0800 633.0000 1.0000
30.0900 617.0000 1.0000
30.1000 675.0000 1.0000
30.1100 642.0000 1.0000
30.1200 616.0000 1.0000
30.1300 627.0000 1.0000
30.1400 621.0000 1.0000
30.1500 613.0000 1.0000
30.1600 612.0000 1.0000
30.1700 675.0000 1.0000
30.1800 603.0000 1.0000
30.1900 619.0000 1.0000
30.2000 661.0000 1.0000
30.2100 679.0000 1.0000
30.2200 645.0000 1.0000
30.2300 632.0000 1.0000
30.2400 650.0000 1.0000
30.2500 665.0000 1.0000
30.2600 643.0000 1.0000
30.2700 656.0000 1.0000
30.2800 587.0000 1.0000
30.2900 639.0000 1.0000
30.3000 677.0000 1.0000
30.3100 691.0000 1.0000
30.3200 680.0000 1.0000
30.3300 664.0000 1.0000
30.3400 651.0000 1.0000
30.3500 631.0000 1.0000
30.3600 590.0000 1.0000
30.3700 663.0000 1.0000
30.3800 621.0000 1.0000
30.3900 633.0000 1.0000
30.4000 658.0000 1.0000
30.4100 628.0000 1.0000
30.4200 662.0000 1.0000
30.4300 625.0000 1.0000
30.4400 626.0000 1.0000
30.4500 644.0000 1.0000
30.4600 643.0000 1.0000
30.4700 627.0000 1.0000
30.4800 630.0000 1.0000
30.4900 635.0000 1.0000
30.5000 681.0000 1.0000
30.5100 635.0000 1.0000
30.5200 628.0000 1.0000
30.5300 628.0000 1.0000
30.5400 675.0000 1.0000
30.5500 665.0000 1.0000
30.5600 655.0000 1.0000
30.5700 630.0000 1.0000
30.5800 624.0000 1.0000
30.5900 616.0000 1.0000
30.6000 653.0000 1.0000
30.6100 658.0000 1.0000
30.6200 614.0000 1.0000
30.6300 584.0000 1.0000
30.6400 661.0000 1.0000
30.6500 650.0000 1.0000
30.6600 621.0000 1.0000
30.6700 599.0000 1.0000
30.6800 616.0000 1.0000
30.6900 621.0000 1.0000
30.7000 618.0000 1.0000
30.7100 603.0000 1.0000
30.7200 654.0000 1.0000
30.7300 636.0000 1.0000
30.7400 606.0000 1.0000
30.7500 656.0000 1.0000
30.7600 652.0000 1.0000
30.7700 631.0000 1.0000
30.7800 606.0000 1.0000
30.7900 617.0000 1.0000
30.8000 602.0000 1.0000
30.8100 663.0000 1.0000
30.8200 611.0000 1.0000
30.8300 604.0000 1.0000
30.8400 624.0000 1.0000
30.8500 578.0000 1.0000
30.8600 594.0000 1.0000
30.8700 645.0000 1.0000
30.8800 615.0000 1.0000
30.8900 632.0000 1.0000
30.9000 651.0000 1.0000
30.9100 660.0000 1.0000
30.9200 621.0000 1.0000
30.9300 608.0000 1.0000
30.9400 603.0000 1.0000
30.9500 606.0000 1.0000
30.9600 609.0000 1.0000
30.9700 658.0000 1.0000
30.9800 617.0000 1.0000
30.9900 592.0000 1.0000
31.0000 621.0000 1.0000
31.0100 601.0000 1.0000
31.0200 621.0000 1.0000
31.0300 605.0000 1.0000
31.0400 625.0000 1.0000
31.0500 628.0000 1.0000
31.0600 626.0000 1.0000
31.0700 597.0000 1.0000
31.0800 616.0000 1.0000
31.0900 628.0000 1.0000
31.1000 639.0000 1.0000
31.1100 664.0000 1.0000
31.1200 605.0000 1.0000
31.1300 647.0000 1.0000
31.1400 591.0000 1.0000
31.1500 615.0000 1.0000
31.1600 615.0000 1.0000
31.1700 632.0000 1.0000
31.1800 634.0000 1.0000
31.1900 620.0000 1.0000
31.2000 603.0000 1.0000
31.2100 618.0000 1.0000
31.2200 622.0000 1.0000
31.2300 607.0000 1.0000
31.2400 631.0000 1.0000
31.2500 582.0000 1.0000
31.2600 568.0000 1.0000
31.2700 641.0000 1.0000
31.2800 626.0000 1.0000
31.2900 624.0000 1.0000
31.3000 655.0000 1.0000
31.3100 629.0000 1.0000
31.3200 620.0000 1.0000
31.3300 611.0000 1.0000
31.3400 626.0000 1.0000
31.3500 592.0000 1.0000
31.3600 636.0000 1.0000
31.3700 608.0000 1.0000
31.3800 584.0000 1.0000
31.3900 607.0000 1.0000
31.4000 623.0000 1.0000
31.4100 613.0000 1.0000
31.4200 610.0000 1.0000
31.4300 589.0000 1.0000
31.4400 644.0000 1.0000
31.4500 604.0000 1.0000
31.4600 575.0000 1.0000
31.4700 589.0000 1.0000
31.4800 569.0000 1.0000
31.4900 578.0000 1.0000
31.5000 589.0000 1.0000
31.5100 616.0000 1.0000
31.5200 632.0000 1.0000
31.5300 581.0000 1.0000
31.5400 575.0000 1.0000
31.5500 599.0000 1.0000
31.5600 581.0000 1.0000
31.5700 601.0000 1.0000
31.5800 598.0000 1.0000
31.5900 625.0000 1.0000
31.6000 593.0000 1.0000
31.6100 644.0000 1.0000
31.6200 626.0000 1.0000
31.6300 615.0000 1.0000
31.6400 649.0000 1.0000
31.6500 606.0000 1.0000
31.6600 591.0000 1.0000
31.6700 585.0000 1.0000
31.6800 600.0000 1.0000
31.6900 612.0000 1.0000
31.7000 604.0000 1.0000
31.7100 630.0000 1.0000
31.7200 608.0000 1.0000
31.7300 591.0000 1.0000
31.7400 566.0000 1.0000
31.7500 595.0000 1.0000
31.7600 594.0000 1.0000
31.7700 568.0000 1.0000
31.7800 558.0000 1.0000
31.7900 544.0000 1.0000
31.8000 597.0000 1.0000
31.8100 606.0000 1.0000
31.8200 613.0000 1.0000
31.8300 620.0000 1.0000
31.8400 609.0000 1.0000
31.8500 606.0000 1.0000
31.8600 579.0000 1.0000
31.8700 629.0000 1.0000
31.8800 583.0000 1.0000
31.8900 620.0000 1.0000
31.9000 591.0000 1.0000
31.9100 604.0000 1.0000
31.9200 559.0000 1.0000
31.9300 632.0000 1.0000
31.9400 602.0000 1.0000
31.9500 589.0000 1.0000
31.9600 579.0000 1.0000
31.9700 590.0000 1.0000
31.9800 587.0000 1.0000
31.9900 605.0000 1.0000
32.0000 588.0000 1.0000
32.0100 566.0000 1.0000
32.0200 606.0000 1.0000
32.0300 583.0000 1.0000
32.0400 616.0000 1.0000
32.0500 564.0000 1.0000
32.0600 555.0000 1.0000
32.0700 572.0000 1.0000
32.0800 601.0000 1.0000
32.0900 612.0000 1.0000
32.1000 565.0000 1.0000
32.1100 561.0000 1.0000
32.1200 584.0000 1.0000
32.1300 593.0000 1.0000
32.1400 589.0000 1.0000
32.1500 589.0000 1.0000
32.1600 590.0000 1.0000
32.1700 609.0000 1.0000
32.1800 558.0000 1.0000
32.1900 568.0000 1.0000
32.2000 609.0000 1.0000
32.2100 584.0000 1.0000
32.2200 540.0000 1.0000
32.2300 595.0000 1.0000
32.2400 617.0000 1.0000
32.2500 600.0000 1.0000
32.2600 569.0000 1.0000
32.2700 564.0000 1.0000
32.2800 610.0000 1.0000
32.2900 565.0000 1.0000
32.3000 608.0000 1.0000
32.3100 591.0000 1.0000
32.3200 588.0000 1.0000
32.3300 575.0000 1.0000
32.3400 584.0000 1.0000
32.3500 576.0000 1.0000
32.3600 536.0000 1.0000
32.3700 566.0000 1.0000
32.3800 618.0000 1.0000
32.3900 581.0000 1.0000
32.4000 609.0000 1.0000
32.4100 579.0000 1.0000
32.4200 581.0000 1.0000
32.4300 570.0000 1.0000
32.4400 573.0000 1.0000
32.4500 582.0000 1.0000
32.4600 610.0000 1.0000
32.4700 581.0000 1.0000
32.4800 606.0000 1.0000
32.4900 577.0000 1.0000
32.5000 569.0000 1.0000
32.5100 612.0000 1.0000
32.5200 593.0000 1.0000
32.5300 585.0000 1.0000
32.5400 579.0000 1.0000
32.5500 553.0000 1.0000
32.5600 572.0000 1.0000
32.5700 550.0000 1.0000
32.5800 597.0000 1.0000
32.5900 581.0000 1.0000
32.6000 605.0000 1.0000
32.6100 570.0000 1.0000
32.6200 579.0000 1.0000
32.6300 577.0000 1.0000
32.6400 605.0000 1.0000
32.6500 596.0000 1.0000
32.6600 597.0000 1.0000
32.6700 574.0000 1.0000
32.6800 591.0000 1.0000
32.6900 607.0000 1.0000
32.7000 581.0000 1.0000
32.7100 584.0000 1.0000
32.7200 579.0000 1.0000
32.7300 638.0000 1.0000
32.7400 591.0000 1.0000
32.7500 544.0000 1.0000
32.7600 589.0000 1.0000
32.7700 618.0000 1.0000
32.7800 603.0000 1.0000
32.7900 631.0000 1.0000
32.8000 604.0000 1.0000
32.8100 590.0000 1.0000
32.8200 619.0000 1.0000
32.8300 596.0000 1.0000
32.8400 588.0000 1.0000
32.8500 657.0000 1.0000
32.8600 569.0000 1.0000
32.8700 590.0000 1.0000
32.8800 586.0000 1.0000
32.8900 609.0000 1.0000
32.9000 619.0000 1.0000
32.9100 581.0000 1.0000
32.9200 667.0000 1.0000
32.9300 642.0000 1.0000
32.9400 654.0000 1.0000
32.9500 642.0000 1.0000
32.9600 642.0000 1.0000
32.9700 657.0000 1.0000
32.9800 645.0000 1.0000
32.9900 644.0000 1.0000
33.0000 617.0000 1.0000
33.0100 655.0000 1.0000
33.0200 687.0000 1.0000
33.0300 707.0000 1.0000
33.0400 655.0000 1.0000
33.0500 695.0000 1.0000
33.0600 695.0000 1.0000
33.0700 684.0000 1.0000
33.0800 709.0000 1.0000
33.0900 699.0000 1.0000
33.1000 732.0000 1.0000
33.1100 757.0000 1.0000
33.1200 759.0000 1.0000
33.1300 708.0000 1.0000
33.1400 724.0000 1.0000
33.1500 710.0000 1.0000
33.1600 709.0000 1.0000
33.1700 710.0000 1.0000
33.1800 735.0000 1.0000
33.1900 671.0000 1.0000
33.2000 716.0000 1.0000
33.2100 712.0000 1.0000
33.2200 677.0000 1.0000
33.2300 660.0000 1.0000
33.2400 713.0000 1.0000
33.2500 684.0000 1.0000
33.2600 695.0000 1.0000
33.2700 660.0000 1.0000
33.2800 642.0000 1.0000
33.2900 658.0000 1.0000
33.3000 662.0000 1.0000
33.3100 647.0000 1.0000
33.3200 659.0000 1.0000
33.3300 667.0000 1.0000
33.3400 653.0000 1.0000
33.3500 676.0000 1.0000
33.3600 652.0000 1.0000
33.3700 636.0000 1.0000
33.3800 651.0000 1.0000
33.3900 699.0000 1.0000
33.4000 669.0000 1.0000
33.4100 713.0000 1.0000
33.4200 730.0000 1.0000
33.4300 741.0000 1.0000
33.4400 729.0000 1.0000
33.4500 745.0000 1.0000
33.4600 737.0000 1.0000
33.4700 735.0000 1.0000
33.4800 744.0000 1.0000
33.4900 748.0000 1.0000
33.5000 776.0000 1.0000
33.5100 881.0000 1.0000
33.5200 821.0000 1.0000
33.5300 855.0000 1.0000
33.5400 920.0000 1.0000
33.5500 964.0000 1.0000
33.5600 957.0000 1.0000
33.5700 1048.0000 1.0000
33.5800 1085.0000 1.0000
33.5900 1101.0000 1.0000
33.6000 1211.0000 1.0000
33.6100 1186.0000 1.0000
33.6200 1226.0000 1.0000
33.6300 1201.0000 1.0000
33.6400 1330.0000 1.0000
33.6500 1315.0000 1.0000
33.6600 1354.0000 1.0000
33.6700 1340.0000 1.0000
33.6800 1336.0000 1.0000
33.6900 1366.0000 1.0000
33.7000 1286.0000 1.0000
33.7100 1248.0000 1.0000
33.7200 1209.0000 1.0000
33.7300 1238.0000 1.0000
33.7400 1142.0000 1.0000
33.7500 1152.0000 1.0000
33.7600 1115.0000 1.0000
33.7700 1079.0000 1.0000
33.7800 1031.0000 1.0000
33.7900 1010.0000 1.0000
33.8000 936.0000 1.0000
33.8100 912.0000 1.0000
33.8200 875.0000 1.0000
33.8300 844.0000 1.0000
33.8400 802.0000 1.0000
33.8500 789.0000 1.0000
33.8600 802.0000 1.0000
33.8700 744.0000 1.0000
33.8800 716.0000 1.0000
33.8900 710.0000 1.0000
33.9000 777.0000 1.0000
33.9100 709.0000 1.0000
33.9200 707.0000 1.0000
33.9300 703.0000 1.0000
33.9400 646.0000 1.0000
33.9500 659.0000 1.0000
33.9600 658.0000 1.0000
33.9700 641.0000 1.0000
33.9800 633.0000 1.0000
33.9900 633.0000 1.0000
34.0000 643.0000 1.0000
34.0100 596.0000 1.0000
34.0200 619.0000 1.0000
34.0300 557.0000 1.0000
34.0400 560.0000 1.0000
34.0500 590.0000 1.0000
34.0600 593.0000 1.0000
34.0700 585.0000 1.0000
34.0800 594.0000 1.0000
34.0900 577.0000 1.0000
34.1000 566.0000 1.0000
34.1100 551.0000 1.0000
34.1200 588.0000 1.0000
34.1300 561.0000 1.0000
34.1400 580.0000 1.0000
34.1500 564.0000 1.0000
34.1600 583.0000 1.0000
34.1700 575.0000 1.0000
34.1800 555.0000 1.0000
34.1900 562.0000 1.0000
34.2000 537.0000 1.0000
34.2100 576.0000 1.0000
34.2200 517.0000 1.0000
34.2300 567.0000 1.0000
34.2400 559.0000 1.0000
34.2500 566.0000 1.0000
34.2600 525.0000 1.0000
34.2700 564.0000 1.0000
34.2800 572.0000 1.0000
34.2900 551.0000 1.0000
34.3000 527.0000 1.0000
34.3100 570.0000 1.0000
34.3200 551.0000 1.0000
34.3300 528.0000 1.0000
34.3400 519.0000 1.0000
34.3500 517.0000 1.0000
34.3600 572.0000 1.0000
34.3700 556.0000 1.0000
34.3800 524.0000 1.0000
34.3900 547.0000 1.0000
34.4000 506.0000 1.0000
34.4100 546.0000 1.0000
34.4200 498.0000 1.0000
34.4300 535.0000 1.0000
34.4400 532.0000 1.0000
34.4500 520.0000 1.0000
34.4600 554.0000 1.0000
34.4700 541.0000 1.0000
34.4800 558.0000 1.0000
34.4900 513.0000 1.0000
34.5000 490.0000 1.0000
34.5100 539.0000 1.0000
34.5200 516.0000 1.0000
34.5300 533.0000 1.0000
34.5400 536.0000 1.0000
34.5500 518.0000 1.0000
34.5600 508.0000 1.0000
34.5700 517.0000 1.0000
34.5800 505.0000 1.0000
34.5900 535.0000 1.0000
34.6000 493.0000 1.0000
34.6100 487.0000 1.0000
34.6200 515.0000 1.0000
34.6300 509.0000 1.0000
34.6400 488.0000 1.0000
34.6500 482.0000 1.0000
34.6600 513.0000 1.0000
34.6700 536.0000 1.0000
34.6800 485.0000 1.0000
34.6900 506.0000 1.0000
34.7000 510.0000 1.0000
34.7100 496.0000 1.0000
34.7200 525.0000 1.0000
34.7300 539.0000 1.0000
34.7400 548.0000 1.0000
34.7500 534.0000 1.0000
34.7600 546.0000 1.0000
34.7700 537.0000 1.0000
34.7800 509.0000 1.0000
34.7900 534.0000 1.0000
34.8000 505.0000 1.0000
34.8100 518.0000 1.0000
34.8200 479.0000 1.0000
34.8300 521.0000 1.0000
34.8400 509.0000 1.0000
34.8500 523.0000 1.0000
34.8600 493.0000 1.0000
34.8700 543.0000 1.0000
34.8800 544.0000 1.0000
34.8900 492.0000 1.0000
34.9000 478.0000 1.0000
34.9100 517.0000 1.0000
34.9200 537.0000 1.0000
34.9300 513.0000 1.0000
34.9400 518.0000 1.0000
34.9500 489.0000 1.0000
34.9600 493.0000 1.0000
34.9700 490.0000 1.0000
34.9800 506.0000 1.0000
34.9900 514.0000 1.0000
35.0000 517.0000 1.0000
35.0100 520.0000 1.0000
35.0200 522.0000 1.0000
35.0300 498.0000 1.0000
35.0400 506.0000 1.0000
35.0500 493.0000 1.0000
35.0600 528.0000 1.0000
35.0700 529.0000 1.0000
35.0800 525.0000 1.0000
35.0900 537.0000 1.0000
35.1000 502.0000 1.0000
35.1100 490.0000 1.0000
35.1200 544.0000 1.0000
35.1300 535.0000 1.0000
35.1400 500.0000 1.0000
35.1500 533.0000 1.0000
35.1600 565.0000 1.0000
35.1700 560.0000 1.0000
35.1800 556.0000 1.0000
35.1900 510.0000 1.0000
35.2000 488.0000 1.0000
35.2100 511.0000 1.0000
35.2200 588.0000 1.0000
35.2300 560.0000 1.0000
35.2400 551.0000 1.0000
35.2500 528.0000 1.0000
35.2600 550.0000 1.0000
35.2700 555.0000 1.0000
35.2800 520.0000 1.0000
35.2900 537.0000 1.0000
35.3000 550.0000 1.0000
35.3100 561.0000 1.0000
35.3200 549.0000 1.0000
35.3300 565.0000 1.0000
35.3400 548.0000 1.0000
35.3500 580.0000 1.0000
35.3600 570.0000 1.0000
35.3700 575.0000 1.0000
35.3800 592.0000 1.0000
35.3900 617.0000 1.0000
35.4000 663.0000 1.0000
35.4100 653.0000 1.0000
35.4200 681.0000 1.0000
35.4300 696.0000 1.0000
35.4400 688.0000 1.0000
35.4500 738.0000 1.0000
35.4600 759.0000 1.0000
35.4700 764.0000 1.0000
35.4800 822.0000 1.0000
35.4900 840.0000 1.0000
35.5000 900.0000 1.0000
35.5100 918.0000 1.0000
35.5200 960.0000 1.0000
35.5300 1017.0000 1.0000
35.5400 1086.0000 1.0000
35.5500 1040.0000 1.0000
35.5600 1085.0000 1.0000
35.5700 1093.0000 1.0000
35.5800 1115.0000 1.0000
35.5900 1145.0000 1.0000
35.6000 1137.0000 1.0000
35.6100 1102.0000 1.0000
35.6200 1102.0000 1.0000
35.6300 1078.0000 1.0000
35.6400 1039.0000 1.0000
35.6500 989.0000 1.0000
35.6600 970.0000 1.0000
35.6700 942.0000 1.0000
35.6800 944.0000 1.0000
35.6900 839.0000 1.0000
35.7000 848.0000 1.0000
35.7100 788.0000 1.0000
35.7200 835.0000 1.0000
35.7300 788.0000 1.0000
35.7400 713.0000 1.0000
35.7500 743.0000 1.0000
35.7600 714.0000 1.0000
35.7700 662.0000 1.0000
35.7800 663.0000 1.0000
35.7900 643.0000 1.0000
35.8000 622.0000 1.0000
35.8100 599.0000 1.0000
35.8200 611.0000 1.0000
35.8300 556.0000 1.0000
35.8400 582.0000 1.0000
35.8500 568.0000 1.0000
35.8600 533.0000 1.0000
35.8700 547.0000 1.0000
35.8800 516.0000 1.0000
35.8900 502.0000 1.0000
35.9000 515.0000 1.0000
35.9100 493.0000 1.0000
35.9200 515.0000 1.0000
35.9300 565.0000 1.0000
35.9400 524.0000 1.0000
35.9500 522.0000 1.0000
35.9600 482.0000 1.0000
35.9700 492.0000 1.0000
35.9800 490.0000 1.0000
35.9900 502.0000 1.0000
36.0000 478.0000 1.0000
36.0100 477.0000 1.0000
36.0200 474.0000 1.0000
36.0300 530.0000 1.0000
36.0400 495.0000 1.0000
36.0500 540.0000 1.0000
36.0600 474.0000 1.0000
36.0700 499.0000 1.0000
36.0800 489.0000 1.0000
36.0900 467.0000 1.0000
36.1000 473.0000 1.0000
36.1100 461.0000 1.0000
36.1200 493.0000 1.0000
36.1300 510.0000 1.0000
36.1400 492.0000 1.0000
36.1500 488.0000 1.0000
36.1600 527.0000 1.0000
36.1700 446.0000 1.0000
36.1800 441.0000 1.0000
36.1900 484.0000 1.0000
36.2000 462.0000 1.0000
36.2100 470.0000 1.0000
36.2200 456.0000 1.0000
36.2300 514.0000 1.0000
36.2400 425.0000 1.0000
36.2500 464.0000 1.0000
36.2600 458.0000 1.0000
36.2700 448.0000 1.0000
36.2800 476.0000 1.0000
36.2900 437.0000 1.0000
36.3000 481.0000 1.0000
36.3100 505.0000 1.0000
36.3200 475.0000 1.0000
36.3300 475.0000 1.0000
36.3400 489.0000 1.0000
36.3500 505.0000 1.0000
36.3600 449.0000 1.0000
36.3700 480.0000 1.0000
36.3800 449.0000 1.0000
36.3900 499.0000 1.0000
36.4000 453.0000 1.0000
36.4100 492.0000 1.0000
36.4200 489.0000 1.0000
36.4300 481.0000 1.0000
36.4400 476.0000 1.0000
36.4500 495.0000 1.0000
36.4600 465.0000 1.0000
36.4700 462.0000 1.0000
36.4800 447.0000 1.0000
36.4900 458.0000 1.0000
36.5000 475.0000 1.0000
36.5100 443.0000 1.0000
36.5200 465.0000 1.0000
36.5300 476.0000 1.0000
36.5400 481.0000 1.0000
36.5500 462.0000 1.0000
36.5600 468.0000 1.0000
36.5700 440.0000 1.0000
36.5800 476.0000 1.0000
36.5900 460.0000 1.0000
36.6000 474.0000 1.0000
36.6100 460.0000 1.0000
36.6200 458.0000 1.0000
36.6300 428.0000 1.0000
36.6400 436.0000 1.0000
36.6500 465.0000 1.0000
36.6600 483.0000 1.0000
36.6700 452.0000 1.0000
36.6800 460.0000 1.0000
36.6900 495.0000 1.0000
36.7000 470.0000 1.0000
36.7100 478.0000 1.0000
36.7200 463.0000 1.0000
36.7300 456.0000 1.0000
36.7400 478.0000 1.0000
36.7500 469.0000 1.0000
36.7600 476.0000 1.0000
36.7700 471.0000 1.0000
36.7800 516.0000 1.0000
36.7900 508.0000 1.0000
36.8000 468.0000 1.0000
36.8100 470.0000 1.0000
36.8200 476.0000 1.0000
36.8300 451.0000 1.0000
36.8400 474.0000 1.0000
36.8500 460.0000 1.0000
36.8600 470.0000 1.0000
36.8700 456.0000 1.0000
36.8800 458.0000 1.0000
36.8900 463.0000 1.0000
36.9000 490.0000 1.0000
36.9100 440.0000 1.0000
36.9200 476.0000 1.0000
36.9300 472.0000 1.0000
36.9400 488.0000 1.0000
36.9500 454.0000 1.0000
36.9600 483.0000 1.0000
36.9700 484.0000 1.0000
36.9800 489.0000 1.0000
36.9900 467.0000 1.0000
37.0000 490.0000 1.0000
37.0100 483.0000 1.0000
37.0200 477.0000 1.0000
37.0300 430.0000 1.0000
37.0400 473.0000 1.0000
37.0500 457.0000 1.0000
37.0600 478.0000 1.0000
37.0700 472.0000 1.0000
37.0800 482.0000 1.0000
37.0900 467.0000 1.0000
37.1000 466.0000 1.0000
37.1100 498.0000 1.0000
37.1200 470.0000 1.0000
37.1300 456.0000 1.0000
37.1400 485.0000 1.0000
37.1500 490.0000 1.0000
37.1600 467.0000 1.0000
37.1700 454.0000 1.0000
37.1800 458.0000 1.0000
37.1900 499.0000 1.0000
37.2000 516.0000 1.0000
37.2100 506.0000 1.0000
37.2200 522.0000 1.0000
37.2300 469.0000 1.0000
37.2400 482.0000 1.0000
37.2500 470.0000 1.0000
37.2600 500.0000 1.0000
37.2700 541.0000 1.0000
37.2800 504.0000 1.0000
37.2900 526.0000 1.0000
37.3000 512.0000 1.0000
37.3100 512.0000 1.0000
37.3200 501.0000 1.0000
37.3300 559.0000 1.0000
37.3400 547.0000 1.0000
37.3500 531.0000 1.0000
37.3600 565.0000 1.0000
37.3700 552.0000 1.0000
37.3800 588.0000 1.0000
37.3900 563.0000 1.0000
37.4000 560.0000 1.0000
37.4100 586.0000 1.0000
37.4200 624.0000 1.0000
37.4300 623.0000 1.0000
37.4400 636.0000 1.0000
37.4500 670.0000 1.0000
37.4600 715.0000 1.0000
37.4700 697.0000 1.0000
37.4800 750.0000 1.0000
37.4900 757.0000 1.0000
37.5000 818.0000 1.0000
37.5100 845.0000 1.0000
37.5200 855.0000 1.0000
37.5300 905.0000 1.0000
37.5400 971.0000 1.0000
37.5500 999.0000 1.0000
37.5600 1092.0000 1.0000
37.5700 1115.0000 1.0000
37.5800 1125.0000 1.0000
37.5900 1213.0000 1.0000
37.6000 1309.0000 1.0000
37.6100 1391.0000 1.0000
37.6200 1471.0000 1.0000
37.6300 1581.0000 1.0000
37.6400 1613.0000 1.0000
37.6500 1685.0000 1.0000
37.6600 1792.0000 1.0000
37.6700 1882.0000 1.0000
37.6800 1946.0000 1.0000
37.6900 2031.0000 1.0000
37.7000 2120.0000 1.0000
37.7100 2153.0000 1.0000
37.7200 2067.0000 1.0000
37.7300 2219.0000 1.0000
37.7400 2240.0000 1.0000
37.7500 2177.0000 1.0000
37.7600 2127.0000 1.0000
37.7700 2055.0000 1.0000
37.7800 2056.0000 1.0000
37.7900 2051.0000 1.0000
37.8000 1899.0000 1.0000
37.8100 1851.0000 1.0000
37.8200 1743.0000 1.0000
37.8300 1730.0000 1.0000
37.8400 1582.0000 1.0000
37.8500 1469.0000 1.0000
37.8600 1412.0000 1.0000
37.8700 1376.0000 1.0000
37.8800 1278.0000 1.0000
37.8900 1218.0000 1.0000
37.9000 1165.0000 1.0000
37.9100 1050.0000 1.0000
37.9200 1051.0000 1.0000
37.9300 967.0000 1.0000
37.9400 884.0000 1.0000
37.9500 851.0000 1.0000
37.9600 829.0000 1.0000
37.9700 785.0000 1.0000
37.9800 771.0000 1.0000
37.9900 720.0000 1.0000
38.0000 682.0000 1.0000
38.0100 660.0000 1.0000
38.0200 637.0000 1.0000
38.0300 661.0000 1.0000
38.0400 618.0000 1.0000
38.0500 653.0000 1.0000
38.0600 574.0000 1.0000
38.0700 598.0000 1.0000
38.0800 561.0000 1.0000
38.0900 572.0000 1.0000
38.1000 552.0000 1.0000
38.1100 553.0000 1.0000
38.1200 519.0000 1.0000
38.1300 539.0000 1.0000
38.1400 547.0000 1.0000
38.1500 487.0000 1.0000
38.1600 522.0000 1.0000
38.1700 458.0000 1.0000
38.1800 490.0000 1.0000
38.1900 482.0000 1.0000
38.2000 506.0000 1.0000
38.2100 479.0000 1.0000
38.2200 478.0000 1.0000
38.2300 454.0000 1.0000
38.2400 463.0000 1.0000
38.2500 457.0000 1.0000
38.2600 467.0000 1.0000
38.2700 471.0000 1.0000
38.2800 472.0000 1.0000
38.2900 431.0000 1.0000
38.3000 473.0000 1.0000
38.3100 472.0000 1.0000
38.3200 443.0000 1.0000
38.3300 456.0000 1.0000
38.3400 443.0000 1.0000
38.3500 422.0000 1.0000
38.3600 415.0000 1.0000
38.3700 436.0000 1.0000
38.3800 434.0000 1.0000
38.3900 462.0000 1.0000
38.4000 452.0000 1.0000
38.4100 447.0000 1.0000
38.4200 437.0000 1.0000
38.4300 438.0000 1.0000
38.4400 453.0000 1.0000
38.4500 459.0000 1.0000
38.4600 473.0000 1.0000
38.4700 447.0000 1.0000
38.4800 457.0000 1.0000
38.4900 445.0000 1.0000
38.5000 433.0000 1.0000
38.5100 421.0000 1.0000
38.5200 426.0000 1.0000
38.5300 449.0000 1.0000
38.5400 405.0000 1.0000
38.5500 455.0000 1.0000
38.5600 454.0000 1.0000
38.5700 433.0000 1.0000
38.5800 456.0000 1.0000
38.5900 441.0000 1.0000
38.6000 428.0000 1.0000
38.6100 452.0000 1.0000
38.6200 465.0000 1.0000
38.6300 437.0000 1.0000
38.6400 424.0000 1.0000
38.6500 419.0000 1.0000
38.6600 415.0000 1.0000
38.6700 427.0000 1.0000
38.6800 415.0000 1.0000
38.6900 430.0000 1.0000
38.7000 446.0000 1.0000
38.7100 432.0000 1.0000
38.7200 458.0000 1.0000
38.7300 479.0000 1.0000
38.7400 415.0000 1.0000
38.7500 405.0000 1.0000
38.7600 420.0000 1.0000
38.7700 437.0000 1.0000
38.7800 436.0000 1.0000
38.7900 443.0000 1.0000
38.8000 434.0000 1.0000
38.8100 450.0000 1.0000
38.8200 444.0000 1.0000
38.8300 431.0000 1.0000
38.8400 441.0000 1.0000
38.8500 448.0000 1.0000
38.8600 429.0000 1.0000
38.8700 420.0000 1.0000
38.8800 453.0000 1.0000
38.8900 439.0000 1.0000
38.9000 423.0000 1.0000
38.9100 452.0000 1.0000
38.9200 396.0000 1.0000
38.9300 464.0000 1.0000
38.9400 455.0000 1.0000
38.9500 443.0000 1.0000
38.9600 458.0000 1.0000
38.9700 433.0000 1.0000
38.9800 425.0000 1.0000
38.9900 422.0000 1.0000
39.0000 437.0000 1.0000
39.0100 402.0000 1.0000
39.0200 403.0000 1.0000
39.0300 411.0000 1.0000
39.0400 361.0000 1.0000
39.0500 412.0000 1.0000
39.0600 403.0000 1.0000
39.0700 423.0000 1.0000
39.0800 415.0000 1.0000
39.0900 421.0000 1.0000
39.1000 437.0000 1.0000
39.1100 399.0000 1.0000
39.1200 406.0000 1.0000
39.1300 420.0000 1.0000
39.1400 436.0000 1.0000
39.1500 392.0000 1.0000
39.1600 408.0000 1.0000
39.1700 411.0000 1.0000
39.1800 407.0000 1.0000
39.1900 413.0000 1.0000
39.2000 402.0000 1.0000
39.2100 389.0000 1.0000
39.2200 426.0000 1.0000
39.2300 393.0000 1.0000
39.2400 362.0000 1.0000
39.2500 410.0000 1.0000
39.2600 419.0000 1.0000
39.2700 410.0000 1.0000
39.2800 411.0000 1.0000
39.2900 399.0000 1.0000
39.3000 416.0000 1.0000
39.3100 383.0000 1.0000
39.3200 376.0000 1.0000
39.3300 428.0000 1.0000
39.3400 418.0000 1.0000
39.3500 394.0000 1.0000
39.3600 377.0000 1.0000
39.3700 405.0000 1.0000
39.3800 412.0000 1.0000
39.3900 419.0000 1.0000
39.4000 371.0000 1.0000
39.4100 419.0000 1.0000
39.4200 410.0000 1.0000
39.4300 402.0000 1.0000
39.4400 397.0000 1.0000
39.4500 395.0000 1.0000
39.4600 376.0000 1.0000
39.4700 403.0000 1.0000
39.4800 376.0000 1.0000
39.4900 358.0000 1.0000
39.5000 354.0000 1.0000
39.5100 366.0000 1.0000
39.5200 416.0000 1.0000
39.5300 389.0000 1.0000
39.5400 427.0000 1.0000
39.5500 410.0000 1.0000
39.5600 414.0000 1.0000
39.5700 392.0000 1.0000
39.5800 432.0000 1.0000
39.5900 412.0000 1.0000
39.6000 418.0000 1.0000
39.6100 406.0000 1.0000
39.6200 391.0000 1.0000
39.6300 349.0000 1.0000
39.6400 393.0000 1.0000
39.6500 393.0000 1.0000
39.6600 383.0000 1.0000
39.6700 383.0000 1.0000
39.6800 369.0000 1.0000
39.6900 399.0000 1.0000
39.7000 385.0000 1.0000
39.7100 405.0000 1.0000
39.7200 385.0000 1.0000
39.7300 398.0000 1.0000
39.7400 390.0000 1.0000
39.7500 414.0000 1.0000
39.7600 386.0000 1.0000
39.7700 432.0000 1.0000
39.7800 415.0000 1.0000
39.7900 415.0000 1.0000
39.8000 381.0000 1.0000
39.8100 369.0000 1.0000
39.8200 404.0000 1.0000
39.8300 388.0000 1.0000
39.8400 375.0000 1.0000
39.8500 404.0000 1.0000
39.8600 419.0000 1.0000
39.8700 394.0000 1.0000
39.8800 408.0000 1.0000
39.8900 417.0000 1.0000
39.9000 420.0000 1.0000
39.9100 418.0000 1.0000
39.9200 401.0000 1.0000
39.9300 383.0000 1.0000
39.9400 392.0000 1.0000
39.9500 406.0000 1.0000
39.9600 422.0000 1.0000
39.9700 403.0000 1.0000
39.9800 384.0000 1.0000
39.9900 394.0000 1.0000
40.0000 409.0000 1.0000
40.0100 407.0000 1.0000
40.0200 380.0000 1.0000
40.0300 409.0000 1.0000
40.0400 402.0000 1.0000
40.0500 409.0000 1.0000
40.0600 413.0000 1.0000
40.0700 385.0000 1.0000
40.0800 378.0000 1.0000
40.0900 371.0000 1.0000
40.1000 390.0000 1.0000
40.1100 385.0000 1.0000
40.1200 374.0000 1.0000
40.1300 393.0000 1.0000
40.1400 410.0000 1.0000
40.1500 406.0000 1.0000
40.1600 428.0000 1.0000
40.1700 394.0000 1.0000
40.1800 357.0000 1.0000
40.1900 380.0000 1.0000
40.2000 374.0000 1.0000
40.2100 383.0000 1.0000
40.2200 386.0000 1.0000
40.2300 393.0000 1.0000
40.2400 403.0000 1.0000
40.2500 364.0000 1.0000
40.2600 371.0000 1.0000
40.2700 386.0000 1.0000
40.2800 382.0000 1.0000
40.2900 393.0000 1.0000
40.3000 368.0000 1.0000
40.3100 395.0000 1.0000
40.3200 393.0000 1.0000
40.3300 404.0000 1.0000
40.3400 386.0000 1.0000
40.3500 364.0000 1.0000
40.3600 411.0000 1.0000
40.3700 388.0000 1.0000
40.3800 409.0000 1.0000
40.3900 386.0000 1.0000
40.4000 401.0000 1.0000
40.4100 396.0000 1.0000
40.4200 364.0000 1.0000
40.4300 385.0000 1.0000
40.4400 424.0000 1.0000
40.4500 380.0000 1.0000
40.4600 396.0000 1.0000
40.4700 371.0000 1.0000
40.4800 397.0000 1.0000
40.4900 393.0000 1.0000
40.5000 402.0000 1.0000
40.5100 393.0000 1.0000
40.5200 425.0000 1.0000
40.5300 432.0000 1.0000
40.5400 418.0000 1.0000
40.5500 399.0000 1.0000
40.5600 414.0000 1.0000
40.5700 386.0000 1.0000
40.5800 384.0000 1.0000
40.5900 397.0000 1.0000
40.6000 355.0000 1.0000
40.6100 390.0000 1.0000
40.6200 385.0000 1.0000
40.6300 392.0000 1.0000
40.6400 371.0000 1.0000
40.6500 397.0000 1.0000
40.6600 399.0000 1.0000
40.6700 403.0000 1.0000
40.6800 397.0000 1.0000
40.6900 404.0000 1.0000
40.7000 415.0000 1.0000
40.7100 377.0000 1.0000
40.7200 384.0000 1.0000
40.7300 406.0000 1.0000
40.7400 389.0000 1.0000
40.7500 428.0000 1.0000
40.7600 399.0000 1.0000
40.7700 398.0000 1.0000
40.7800 402.0000 1.0000
40.7900 412.0000 1.0000
40.8000 430.0000 1.0000
40.8100 439.0000 1.0000
40.8200 414.0000 1.0000
40.8300 399.0000 1.0000
40.8400 432.0000 1.0000
40.8500 400.0000 1.0000
40.8600 431.0000 1.0000
40.8700 386.0000 1.0000
40.8800 413.0000 1.0000
40.8900 420.0000 1.0000
40.9000 416.0000 1.0000
40.9100 427.0000 1.0000
40.9200 425.0000 1.0000
40.9300 425.0000 1.0000
40.9400 427.0000 1.0000
40.9500 423.0000 1.0000
40.9600 419.0000 1.0000
40.9700 415.0000 1.0000
40.9800 392.0000 1.0000
40.9900 384.0000 1.0000
41.0000 404.0000 1.0000
41.0100 403.0000 1.0000
41.0200 405.0000 1.0000
41.0300 388.0000 1.0000
41.0400 394.0000 1.0000
41.0500 366.0000 1.0000
41.0600 378.0000 1.0000
41.0700 384.0000 1.0000
41.0800 381.0000 1.0000
41.0900 402.0000 1.0000
41.1000 387.0000 1.0000
41.1100 408.0000 1.0000
41.1200 402.0000 1.0000
41.1300 426.0000 1.0000
41.1400 375.0000 1.0000
41.1500 383.0000 1.0000
41.1600 367.0000 1.0000
41.1700 397.0000 1.0000
41.1800 410.0000 1.0000
41.1900 411.0000 1.0000
41.2000 387.0000 1.0000
41.2100 383.0000 1.0000
41.2200 391.0000 1.0000
41.2300 397.0000 1.0000
41.2400 372.0000 1.0000
41.2500 380.0000 1.0000
41.2600 365.0000 1.0000
41.2700 412.0000 1.0000
41.2800 389.0000 1.0000
41.2900 383.0000 1.0000
41.3000 373.0000 1.0000
41.3100 383.0000 1.0000
41.3200 389.0000 1.0000
41.3300 380.0000 1.0000
41.3400 398.0000 1.0000
41.3500 352.0000 1.0000
41.3600 395.0000 1.0000
41.3700 358.0000 1.0000
41.3800 359.0000 1.0000
41.3900 391.0000 1.0000
41.4000 356.0000 1.0000
41.4100 361.0000 1.0000
41.4200 378.0000 1.0000
41.4300 385.0000 1.0000
41.4400 378.0000 1.0000
41.4500 377.0000 1.0000
41.4600 357.0000 1.0000
41.4700 380.0000 1.0000
41.4800 368.0000 1.0000
41.4900 370.0000 1.0000
41.5000 365.0000 1.0000
41.5100 353.0000 1.0000
41.5200 396.0000 1.0000
41.5300 387.0000 1.0000
41.5400 362.0000 1.0000
41.5500 390.0000 1.0000
41.5600 374.0000 1.0000
41.5700 377.0000 1.0000
41.5800 366.0000 1.0000
41.5900 382.0000 1.0000
41.6000 414.0000 1.0000
41.6100 368.0000 1.0000
41.6200 396.0000 1.0000
41.6300 359.0000 1.0000
41.6400 369.0000 1.0000
41.6500 403.0000 1.0000
41.6600 329.0000 1.0000
41.6700 367.0000 1.0000
41.6800 391.0000 1.0000
41.6900 390.0000 1.0000
41.7000 381.0000 1.0000
41.7100 396.0000 1.0000
41.7200 394.0000 1.0000
41.7300 378.0000 1.0000
41.7400 406.0000 1.0000
41.7500 350.0000 1.0000
41.7600 340.0000 1.0000
41.7700 341.0000 1.0000
41.7800 386.0000 1.0000
41.7900 382.0000 1.0000
41.8000 357.0000 1.0000
41.8100 403.0000 1.0000
41.8200 364.0000 1.0000
41.8300 368.0000 1.0000
41.8400 370.0000 1.0000
41.8500 373.0000 1.0000
41.8600 393.0000 1.0000
41.8700 364.0000 1.0000
41.8800 382.0000 1.0000
41.8900 377.0000 1.0000
41.9000 396.0000 1.0000
41.9100 353.0000 1.0000
41.9200 395.0000 1.0000
41.9300 391.0000 1.0000
41.9400 371.0000 1.0000
41.9500 395.0000 1.0000
41.9600 405.0000 1.0000
41.9700 378.0000 1.0000
41.9800 368.0000 1.0000
41.9900 367.0000 1.0000
42.0000 364.0000 1.0000
42.0100 381.0000 1.0000
42.0200 385.0000 1.0000
42.0300 359.0000 1.0000
42.0400 356.0000 1.0000
42.0500 400.0000 1.0000
42.0600 370.0000 1.0000
42.0700 364.0000 1.0000
42.0800 348.0000 1.0000
42.0900 369.0000 1.0000
42.1000 374.0000 1.0000
42.1100 359.0000 1.0000
42.1200 372.0000 1.0000
42.1300 377.0000 1.0000
42.1400 372.0000 1.0000
42.1500 347.0000 1.0000
42.1600 387.0000 1.0000
42.1700 370.0000 1.0000
42.1800 367.0000 1.0000
42.1900 386.0000 1.0000
42.2000 385.0000 1.0000
42.2100 406.0000 1.0000
42.2200 416.0000 1.0000
42.2300 405.0000 1.0000
42.2400 407.0000 1.0000
42.2500 359.0000 1.0000
42.2600 374.0000 1.0000
42.2700 414.0000 1.0000
42.2800 399.0000 1.0000
42.2900 395.0000 1.0000
42.3000 401.0000 1.0000
42.3100 385.0000 1.0000
42.3200 406.0000 1.0000
42.3300 387.0000 1.0000
42.3400 418.0000 1.0000
42.3500 410.0000 1.0000
42.3600 398.0000 1.0000
42.3700 404.0000 1.0000
42.3800 388.0000 1.0000
42.3900 418.0000 1.0000
42.4000 408.0000 1.0000
42.4100 409.0000 1.0000
42.4200 394.0000 1.0000
42.4300 400.0000 1.0000
42.4400 402.0000 1.0000
42.4500 408.0000 1.0000
42.4600 392.0000 1.0000
42.4700 413.0000 1.0000
42.4800 399.0000 1.0000
42.4900 374.0000 1.0000
42.5000 397.0000 1.0000
42.5100 382.0000 1.0000
42.5200 410.0000 1.0000
42.5300 383.0000 1.0000
42.5400 384.0000 1.0000
42.5500 371.0000 1.0000
42.5600 357.0000 1.0000
42.5700 379.0000 1.0000
42.5800 387.0000 1.0000
42.5900 402.0000 1.0000
42.6000 375.0000 1.0000
42.6100 398.0000 1.0000
42.6200 367.0000 1.0000
42.6300 379.0000 1.0000
42.6400 391.0000 1.0000
42.6500 368.0000 1.0000
42.6600 368.0000 1.0000
42.6700 417.0000 1.0000
42.6800 370.0000 1.0000
42.6900 361.0000 1.0000
42.7000 366.0000 1.0000
42.7100 368.0000 1.0000
42.7200 378.0000 1.0000
42.7300 378.0000 1.0000
42.7400 407.0000 1.0000
42.7500 374.0000 1.0000
42.7600 354.0000 1.0000
42.7700 395.0000 1.0000
42.7800 364.0000 1.0000
42.7900 388.0000 1.0000
42.8000 356.0000 1.0000
42.8100 367.0000 1.0000
42.8200 367.0000 1.0000
42.8300 364.0000 1.0000
42.8400 346.0000 1.0000
42.8500 369.0000 1.0000
42.8600 378.0000 1.0000
42.8700 374.0000 1.0000
42.8800 350.0000 1.0000
42.8900 381.0000 1.0000
42.9000 360.0000 1.0000
42.9100 351.0000 1.0000
42.9200 367.0000 1.0000
42.9300 342.0000 1.0000
42.9400 355.0000 1.0000
42.9500 369.0000 1.0000
42.9600 364.0000 1.0000
42.9700 362.0000 1.0000
42.9800 391.0000 1.0000
42.9900 367.0000 1.0000
43.0000 351.0000 1.0000
43.0100 378.0000 1.0000
43.0200 358.0000 1.0000
43.0300 346.0000 1.0000
43.0400 376.0000 1.0000
43.0500 375.0000 1.0000
43.0600 369.0000 1.0000
43.0700 391.0000 1.0000
43.0800 381.0000 1.0000
43.0900 371.0000 1.0000
43.1000 379.0000 1.0000
43.1100 409.0000 1.0000
43.1200 343.0000 1.0000
43.1300 346.0000 1.0000
43.1400 365.0000 1.0000
43.1500 356.0000 1.0000
43.1600 391.0000 1.0000
43.1700 373.0000 1.0000
43.1800 366.0000 1.0000
43.1900 385.0000 1.0000
43.2000 409.0000 1.0000
43.2100 374.0000 1.0000
43.2200 352.0000 1.0000
43.2300 360.0000 1.0000
43.2400 355.0000 1.0000
43.2500 356.0000 1.0000
43.2600 358.0000 1.0000
43.2700 379.0000 1.0000
43.2800 392.0000 1.0000
43.2900 364.0000 1.0000
43.3000 357.0000 1.0000
43.3100 354.0000 1.0000
43.3200 349.0000 1.0000
43.3300 363.0000 1.0000
43.3400 383.0000 1.0000
43.3500 357.0000 1.0000
43.3600 391.0000 1.0000
43.3700 364.0000 1.0000
43.3800 363.0000 1.0000
43.3900 390.0000 1.0000
43.4000 374.0000 1.0000
43.4100 348.0000 1.0000
43.4200 374.0000 1.0000
43.4300 359.0000 1.0000
43.4400 375.0000 1.0000
43.4500 362.0000 1.0000
43.4600 357.0000 1.0000
43.4700 370.0000 1.0000
43.4800 369.0000 1.0000
43.4900 382.0000 1.0000
43.5000 344.0000 1.0000
43.5100 370.0000 1.0000
43.5200 371.0000 1.0000
43.5300 366.0000 1.0000
43.5400 378.0000 1.0000
43.5500 372.0000 1.0000
43.5600 341.0000 1.0000
43.5700 354.0000 1.0000
43.5800 349.0000 1.0000
43.5900 333.0000 1.0000
43.6000 340.0000 1.0000
43.6100 374.0000 1.0000
43.6200 366.0000 1.0000
43.6300 358.0000 1.0000
43.6400 369.0000 1.0000
43.6500 367.0000 1.0000
43.6600 369.0000 1.0000
43.6700 367.0000 1.0000
43.6800 366.0000 1.0000
43.6900 376.0000 1.0000
43.7000 396.0000 1.0000
43.7100 366.0000 1.0000
43.7200 329.0000 1.0000
43.7300 350.0000 1.0000
43.7400 344.0000 1.0000
43.7500 363.0000 1.0000
43.7600 375.0000 1.0000
43.7700 370.0000 1.0000
43.7800 389.0000 1.0000
43.7900 357.0000 1.0000
43.8000 371.0000 1.0000
43.8100 352.0000 1.0000
43.8200 340.0000 1.0000
43.8300 345.0000 1.0000
43.8400 347.0000 1.0000
43.8500 347.0000 1.0000
43.8600 350.0000 1.0000
43.8700 399.0000 1.0000
43.8800 379.0000 1.0000
43.8900 349.0000 1.0000
43.9000 324.0000 1.0000
43.9100 382.0000 1.0000
43.9200 370.0000 1.0000
43.9300 346.0000 1.0000
43.9400 374.0000 1.0000
43.9500 372.0000 1.0000
43.9600 357.0000 1.0000
43.9700 324.0000 1.0000
43.9800 330.0000 1.0000
43.9900 350.0000 1.0000
44.0000 358.0000 1.0000
44.0100 328.0000 1.0000
44.0200 372.0000 1.0000
44.0300 369.0000 1.0000
44.0400 373.0000 1.0000
44.0500 335.0000 1.0000
44.0600 387.0000 1.0000
44.0700 387.0000 1.0000
44.0800 332.0000 1.0000
44.0900 344.0000 1.0000
44.1000 357.0000 1.0000
44.1100 353.0000 1.0000
44.1200 352.0000 1.0000
44.1300 349.0000 1.0000
44.1400 339.0000 1.0000
44.1500 354.0000 1.0000
44.1600 391.0000 1.0000
44.1700 382.0000 1.0000
44.1800 378.0000 1.0000
44.1900 354.0000 1.0000
44.2000 356.0000 1.0000
44.2100 379.0000 1.0000
44.2200 376.0000 1.0000
44.2300 361.0000 1.0000
44.2400 341.0000 1.0000
44.2500 370.0000 1.0000
44.2600 367.0000 1.0000
44.2700 329.0000 1.0000
44.2800 337.0000 1.0000
44.2900 385.0000 1.0000
44.3000 372.0000 1.0000
44.3100 346.0000 1.0000
44.3200 357.0000 1.0000
44.3300 379.0000 1.0000
44.3400 359.0000 1.0000
44.3500 366.0000 1.0000
44.3600 358.0000 1.0000
44.3700 355.0000 1.0000
44.3800 355.0000 1.0000
44.3900 353.0000 1.0000
44.4000 390.0000 1.0000
44.4100 367.0000 1.0000
44.4200 375.0000 1.0000
44.4300 375.0000 1.0000
44.4400 350.0000 1.0000
44.4500 343.0000 1.0000
44.4600 350.0000 1.0000
44.4700 353.0000 1.0000
44.4800 337.0000 1.0000
44.4900 373.0000 1.0000
44.5000 354.0000 1.0000
44.5100 368.0000 1.0000
44.5200 358.0000 1.0000
44.5300 382.0000 1.0000
44.5400 336.0000 1.0000
44.5500 388.0000 1.0000
44.5600 319.0000 1.0000
44.5700 359.0000 1.0000
44.5800 357.0000 1.0000
44.5900 342.0000 1.0000
44.6000 360.0000 1.0000
44.6100 345.0000 1.0000
44.6200 338.0000 1.0000
44.6300 338.0000 1.0000
44.6400 370.0000 1.0000
44.6500 367.0000 1.0000
44.6600 362.0000 1.0000
44.6700 364.0000 1.0000
44.6800 351.0000 1.0000
44.6900 365.0000 1.0000
44.7000 360.0000 1.0000
44.7100 324.0000 1.0000
44.7200 341.0000 1.0000
44.7300 340.0000 1.0000
44.7400 351.0000 1.0000
44.7500 353.0000 1.0000
44.7600 306.0000 1.0000
44.7700 336.0000 1.0000
44.7800 331.0000 1.0000
44.7900 346.0000 1.0000
44.8000 343.0000 1.0000
44.8100 354.0000 1.0000
44.8200 310.0000 1.0000
44.8300 361.0000 1.0000
44.8400 367.0000 1.0000
44.8500 353.0000 1.0000
44.8600 346.0000 1.0000
44.8700 344.0000 1.0000
44.8800 358.0000 1.0000
44.8900 386.0000 1.0000
44.9000 345.0000 1.0000
44.9100 343.0000 1.0000
44.9200 363.0000 1.0000
44.9300 352.0000 1.0000
44.9400 360.0000 1.0000
44.9500 336.0000 1.0000
44.9600 335.0000 1.0000
44.9700 357.0000 1.0000
44.9800 348.0000 1.0000
44.9900 376.0000 1.0000
45.0000 348.0000 1.0000
45.0100 331.0000 1.0000
45.0200 334.0000 1.0000
45.0300 341.0000 1.0000
45.0400 346.0000 1.0000
45.0500 335.0000 1.0000
45.0600 395.0000 1.0000
45.0700 337.0000 1.0000
45.0800 342.0000 1.0000
45.0900 349.0000 1.0000
45.1000 334.0000 1.0000
45.1100 368.0000 1.0000
45.1200 344.0000 1.0000
45.1300 331.0000 1.0000
45.1400 349.0000 1.0000
45.1500 359.0000 1.0000
45.1600 326.0000 1.0000
45.1700 347.0000 1.0000
45.1800 350.0000 1.0000
45.1900 343.0000 1.0000
45.2000 338.0000 1.0000
45.2100 333.0000 1.0000
45.2200 325.0000 1.0000
45.2300 360.0000 1.0000
45.2400 353.0000 1.0000
45.2500 359.0000 1.0000
45.2600 341.0000 1.0000
45.2700 354.0000 1.0000
45.2800 314.0000 1.0000
45.2900 367.0000 1.0000
45.3000 352.0000 1.0000
45.3100 327.0000 1.0000
45.3200 345.0000 1.0000
45.3300 341.0000 1.0000
45.3400 324.0000 1.0000
45.3500 349.0000 1.0000
45.3600 358.0000 1.0000
45.3700 370.0000 1.0000
45.3800 381.0000 1.0000
45.3900 343.0000 1.0000
45.4000 345.0000 1.0000
45.4100 324.0000 1.0000
45.4200 334.0000 1.0000
45.4300 330.0000 1.0000
45.4400 314.0000 1.0000
45.4500 331.0000 1.0000
45.4600 334.0000 1.0000
45.4700 322.0000 1.0000
45.4800 359.0000 1.0000
45.4900 366.0000 1.0000
45.5000 369.0000 1.0000
45.5100 326.0000 1.0000
45.5200 357.0000 1.0000
45.5300 355.0000 1.0000
45.5400 320.0000 1.0000
45.5500 320.0000 1.0000
45.5600 353.0000 1.0000
45.5700 325.0000 1.0000
45.5800 330.0000 1.0000
45.5900 317.0000 1.0000
45.6000 325.0000 1.0000
45.6100 363.0000 1.0000
45.6200 355.0000 1.0000
45.6300 301.0000 1.0000
45.6400 323.0000 1.0000
45.6500 320.0000 1.0000
45.6600 344.0000 1.0000
45.6700 331.0000 1.0000
45.6800 359.0000 1.0000
45.6900 329.0000 1.0000
45.7000 338.0000 1.0000
45.7100 317.0000 1.0000
45.7200 344.0000 1.0000
45.7300 335.0000 1.0000
45.7400 306.0000 1.0000
45.7500 336.0000 1.0000
45.7600 336.0000 1.0000
45.7700 334.0000 1.0000
45.7800 335.0000 1.0000
45.7900 331.0000 1.0000
45.8000 381.0000 1.0000
45.8100 352.0000 1.0000
45.8200 344.0000 1.0000
45.8300 345.0000 1.0000
45.8400 330.0000 1.0000
45.8500 348.0000 1.0000
45.8600 354.0000 1.0000
45.8700 327.0000 1.0000
45.8800 334.0000 1.0000
45.8900 320.0000 1.0000
45.9000 362.0000 1.0000
45.9100 313.0000 1.0000
45.9200 344.0000 1.0000
45.9300 331.0000 1.0000
45.9400 319.0000 1.0000
45.9500 333.0000 1.0000
45.9600 321.0000 1.0000
45.9700 332.0000 1.0000
45.9800 355.0000 1.0000
45.9900 359.0000 1.0000
46.0000 331.0000 1.0000
46.0100 318.0000 1.0000
46.0200 332.0000 1.0000
46.0300 327.0000 1.0000
46.0400 334.0000 1.0000
46.0500 312.0000 1.0000
46.0600 333.0000 1.0000
46.0700 346.0000 1.0000
46.0800 361.0000 1.0000
46.0900 355.0000 1.0000
46.1000 352.0000 1.0000
46.1100 369.0000 1.0000
46.1200 321.0000 1.0000
46.1300 331.0000 1.0000
46.1400 329.0000 1.0000
46.1500 351.0000 1.0000
46.1600 358.0000 1.0000
46.1700 361.0000 1.0000
46.1800 337.0000 1.0000
46.1900 363.0000 1.0000
46.2000 351.0000 1.0000
46.2100 352.0000 1.0000
46.2200 360.0000 1.0000
46.2300 331.0000 1.0000
46.2400 357.0000 1.0000
46.2500 331.0000 1.0000
46.2600 302.0000 1.0000
46.2700 360.0000 1.0000
46.2800 335.0000 1.0000
46.2900 333.0000 1.0000
46.3000 370.0000 1.0000
46.3100 359.0000 1.0000
46.3200 371.0000 1.0000
46.3300 336.0000 1.0000
46.3400 321.0000 1.0000
46.3500 366.0000 1.0000
46.3600 346.0000 1.0000
46.3700 359.0000 1.0000
46.3800 311.0000 1.0000
46.3900 334.0000 1.0000
46.4000 360.0000 1.0000
46.4100 356.0000 1.0000
46.4200 337.0000 1.0000
46.4300 352.0000 1.0000
46.4400 354.0000 1.0000
46.4500 316.0000 1.0000
46.4600 330.0000 1.0000
46.4700 364.0000 1.0000
46.4800 303.0000 1.0000
46.4900 321.0000 1.0000
46.5000 320.0000 1.0000
46.5100 321.0000 1.0000
46.5200 318.0000 1.0000
46.5300 327.0000 1.0000
46.5400 328.0000 1.0000
46.5500 320.0000 1.0000
46.5600 328.0000 1.0000
46.5700 331.0000 1.0000
46.5800 337.0000 1.0000
46.5900 353.0000 1.0000
46.6000 325.0000 1.0000
46.6100 356.0000 1.0000
46.6200 332.0000 1.0000
46.6300 295.0000 1.0000
46.6400 325.0000 1.0000
46.6500 311.0000 1.0000
46.6600 347.0000 1.0000
46.6700 319.0000 1.0000
46.6800 304.0000 1.0000
46.6900 356.0000 1.0000
46.7000 365.0000 1.0000
46.7100 309.0000 1.0000
46.7200 313.0000 1.0000
46.7300 335.0000 1.0000
46.7400 357.0000 1.0000
46.7500 326.0000 1.0000
46.7600 317.0000 1.0000
46.7700 322.0000 1.0000
46.7800 295.0000 1.0000
46.7900 310.0000 1.0000
46.8000 321.0000 1.0000
46.8100 321.0000 1.0000
46.8200 331.0000 1.0000
46.8300 359.0000 1.0000
46.8400 303.0000 1.0000
46.8500 316.0000 1.0000
46.8600 336.0000 1.0000
46.8700 318.0000 1.0000
46.8800 333.0000 1.0000
46.8900 359.0000 1.0000
46.9000 360.0000 1.0000
46.9100 329.0000 1.0000
46.9200 334.0000 1.0000
46.9300 324.0000 1.0000
46.9400 352.0000 1.0000
46.9500 319.0000 1.0000
46.9600 343.0000 1.0000
46.9700 320.0000 1.0000
46.9800 315.0000 1.0000
46.9900 348.0000 1.0000
47.0000 342.0000 1.0000
47.0100 330.0000 1.0000
47.0200 350.0000 1.0000
47.0300 322.0000 1.0000
47.0400 360.0000 1.0000
47.0500 311.0000 1.0000
47.0600 334.0000 1.0000
47.0700 341.0000 1.0000
47.0800 337.0000 1.0000
47.0900 319.0000 1.0000
47.1000 325.0000 1.0000
47.1100 346.0000 1.0000
47.1200 343.0000 1.0000
47.1300 336.0000 1.0000
47.1400 324.0000 1.0000
47.1500 317.0000 1.0000
47.1600 321.0000 1.0000
47.1700 336.0000 1.0000
47.1800 337.0000 1.0000
47.1900 337.0000 1.0000
47.2000 318.0000 1.0000
47.2100 343.0000 1.0000
47.2200 327.0000 1.0000
47.2300 331.0000 1.0000
47.2400 330.0000 1.0000
47.2500 331.0000 1.0000
47.2600 349.0000 1.0000
47.2700 331.0000 1.0000
47.2800 337.0000 1.0000
47.2900 335.0000 1.0000
47.3000 349.0000 1.0000
47.3100 339.0000 1.0000
47.3200 322.0000 1.0000
47.3300 359.0000 1.0000
47.3400 343.0000 1.0000
47.3500 323.0000 1.0000
47.3600 299.0000 1.0000
47.3700 323.0000 1.0000
47.3800 323.0000 1.0000
47.3900 312.0000 1.0000
47.4000 314.0000 1.0000
47.4100 325.0000 1.0000
47.4200 333.0000 1.0000
47.4300 330.0000 1.0000
47.4400 328.0000 1.0000
47.4500 319.0000 1.0000
47.4600 358.0000 1.0000
47.4700 333.0000 1.0000
47.4800 323.0000 1.0000
47.4900 323.0000 1.0000
47.5000 300.0000 1.0000
47.5100 328.0000 1.0000
47.5200 309.0000 1.0000
47.5300 319.0000 1.0000
47.5400 343.0000 1.0000
47.5500 330.0000 1.0000
47.5600 329.0000 1.0000
47.5700 312.0000 1.0000
47.5800 319.0000 1.0000
47.5900 329.0000 1.0000
47.6000 338.0000 1.0000
47.6100 330.0000 1.0000
47.6200 330.0000 1.0000
47.6300 316.0000 1.0000
47.6400 318.0000 1.0000
47.6500 320.0000 1.0000
47.6600 292.0000 1.0000
47.6700 328.0000 1.0000
47.6800 330.0000 1.0000
47.6900 334.0000 1.0000
47.7000 321.0000 1.0000
47.7100 332.0000 1.0000
47.7200 313.0000 1.0000
47.7300 345.0000 1.0000
47.7400 316.0000 1.0000
47.7500 319.0000 1.0000
47.7600 320.0000 1.0000
47.7700 317.0000 1.0000
47.7800 357.0000 1.0000
47.7900 347.0000 1.0000
47.8000 348.0000 1.0000
47.8100 352.0000 1.0000
47.8200 307.0000 1.0000
47.8300 324.0000 1.0000
47.8400 332.0000 1.0000
47.8500 306.0000 1.0000
47.8600 314.0000 1.0000
47.8700 321.0000 1.0000
47.8800 331.0000 1.0000
47.8900 315.0000 1.0000
47.9000 317.0000 1.0000
47.9100 346.0000 1.0000
47.9200 315.0000 1.0000
47.9300 350.0000 1.0000
47.9400 330.0000 1.0000
47.9500 308.0000 1.0000
47.9600 317.0000 1.0000
47.9700 319.0000 1.0000
47.9800 309.0000 1.0000
47.9900 300.0000 1.0000
48.0000 308.0000 1.0000
48.0100 328.0000 1.0000
48.0200 327.0000 1.0000
48.0300 318.0000 1.0000
48.0400 315.0000 1.0000
48.0500 334.0000 1.0000
48.0600 324.0000 1.0000
48.0700 312.0000 1.0000
48.0800 321.0000 1.0000
48.0900 342.0000 1.0000
48.1000 311.0000 1.0000
48.1100 343.0000 1.0000
48.1200 323.0000 1.0000
48.1300 356.0000 1.0000
48.1400 346.0000 1.0000
48.1500 321.0000 1.0000
48.1600 307.0000 1.0000
48.1700 318.0000 1.0000
48.1800 310.0000 1.0000
48.1900 322.0000 1.0000
48.2000 333.0000 1.0000
48.2100 340.0000 1.0000
48.2200 300.0000 1.0000
48.2300 335.0000 1.0000
48.2400 317.0000 1.0000
48.2500 341.0000 1.0000
48.2600 311.0000 1.0000
48.2700 308.0000 1.0000
48.2800 341.0000 1.0000
48.2900 341.0000 1.0000
48.3000 324.0000 1.0000
48.3100 316.0000 1.0000
48.3200 313.0000 1.0000
48.3300 320.0000 1.0000
48.3400 311.0000 1.0000
48.3500 325.0000 1.0000
48.3600 322.0000 1.0000
48.3700 334.0000 1.0000
48.3800 338.0000 1.0000
48.3900 296.0000 1.0000
48.4000 320.0000 1.0000
48.4100 313.0000 1.0000
48.4200 306.0000 1.0000
48.4300 329.0000 1.0000
48.4400 303.0000 1.0000
48.4500 320.0000 1.0000
48.4600 314.0000 1.0000
48.4700 306.0000 1.0000
48.4800 341.0000 1.0000
48.4900 325.0000 1.0000
48.5000 308.0000 1.0000
48.5100 338.0000 1.0000
48.5200 328.0000 1.0000
48.5300 308.0000 1.0000
48.5400 314.0000 1.0000
48.5500 308.0000 1.0000
48.5600 314.0000 1.0000
48.5700 330.0000 1.0000
48.5800 331.0000 1.0000
48.5900 307.0000 1.0000
48.6000 330.0000 1.0000
48.6100 318.0000 1.0000
48.6200 316.0000 1.0000
48.6300 323.0000 1.0000
48.6400 357.0000 1.0000
48.6500 304.0000 1.0000
48.6600 323.0000 1.0000
48.6700 314.0000 1.0000
48.6800 331.0000 1.0000
48.6900 306.0000 1.0000
48.7000 318.0000 1.0000
48.7100 321.0000 1.0000
48.7200 325.0000 1.0000
48.7300 330.0000 1.0000
48.7400 324.0000 1.0000
48.7500 312.0000 1.0000
48.7600 322.0000 1.0000
48.7700 308.0000 1.0000
48.7800 316.0000 1.0000
48.7900 313.0000 1.0000
48.8000 306.0000 1.0000
48.8100 299.0000 1.0000
48.8200 288.0000 1.0000
48.8300 316.0000 1.0000
48.8400 309.0000 1.0000
48.8500 303.0000 1.0000
48.8600 312.0000 1.0000
48.8700 329.0000 1.0000
48.8800 311.0000 1.0000
48.8900 297.0000 1.0000
48.9000 321.0000 1.0000
48.9100 336.0000 1.0000
48.9200 317.0000 1.0000
48.9300 328.0000 1.0000
48.9400 323.0000 1.0000
48.9500 290.0000 1.0000
48.9600 306.0000 1.0000
48.9700 307.0000 1.0000
48.9800 325.0000 1.0000
48.9900 323.0000 1.0000
49.0000 333.0000 1.0000
49.0100 303.0000 1.0000
49.0200 347.0000 1.0000
49.0300 333.0000 1.0000
49.0400 327.0000 1.0000
49.0500 312.0000 1.0000
49.0600 333.0000 1.0000
49.0700 319.0000 1.0000
49.0800 318.0000 1.0000
49.0900 309.0000 1.0000
49.1000 334.0000 1.0000
49.1100 302.0000 1.0000
49.1200 331.0000 1.0000
49.1300 259.0000 1.0000
49.1400 300.0000 1.0000
49.1500 327.0000 1.0000
49.1600 335.0000 1.0000
49.1700 318.0000 1.0000
49.1800 316.0000 1.0000
49.1900 339.0000 1.0000
49.2000 334.0000 1.0000
49.2100 350.0000 1.0000
49.2200 339.0000 1.0000
49.2300 335.0000 1.0000
49.2400 352.0000 1.0000
49.2500 359.0000 1.0000
49.2600 339.0000 1.0000
49.2700 362.0000 1.0000
49.2800 353.0000 1.0000
49.2900 336.0000 1.0000
49.3000 364.0000 1.0000
49.3100 338.0000 1.0000
49.3200 335.0000 1.0000
49.3300 340.0000 1.0000
49.3400 308.0000 1.0000
49.3500 373.0000 1.0000
49.3600 339.0000 1.0000
49.3700 348.0000 1.0000
49.3800 343.0000 1.0000
49.3900 338.0000 1.0000
49.4000 367.0000 1.0000
49.4100 359.0000 1.0000
49.4200 359.0000 1.0000
49.4300 380.0000 1.0000
49.4400 379.0000 1.0000
49.4500 373.0000 1.0000
49.4600 382.0000 1.0000
49.4700 351.0000 1.0000
49.4800 349.0000 1.0000
49.4900 356.0000 1.0000
49.5000 356.0000 1.0000
49.5100 373.0000 1.0000
49.5200 369.0000 1.0000
49.5300 345.0000 1.0000
49.5400 345.0000 1.0000
49.5500 359.0000 1.0000
49.5600 336.0000 1.0000
49.5700 328.0000 1.0000
49.5800 382.0000 1.0000
49.5900 325.0000 1.0000
49.6000 303.0000 1.0000
49.6100 345.0000 1.0000
49.6200 352.0000 1.0000
49.6300 351.0000 1.0000
49.6400 329.0000 1.0000
49.6500 354.0000 1.0000
49.6600 355.0000 1.0000
49.6700 338.0000 1.0000
49.6800 315.0000 1.0000
49.6900 317.0000 1.0000
49.7000 322.0000 1.0000
49.7100 319.0000 1.0000
49.7200 343.0000 1.0000
49.7300 343.0000 1.0000
49.7400 348.0000 1.0000
49.7500 340.0000 1.0000
49.7600 314.0000 1.0000
49.7700 329.0000 1.0000
49.7800 343.0000 1.0000
49.7900 354.0000 1.0000
49.8000 313.0000 1.0000
49.8100 333.0000 1.0000
49.8200 355.0000 1.0000
49.8300 347.0000 1.0000
49.8400 327.0000 1.0000
49.8500 321.0000 1.0000
49.8600 337.0000 1.0000
49.8700 311.0000 1.0000
49.8800 330.0000 1.0000
49.8900 320.0000 1.0000
49.9000 328.0000 1.0000
49.9100 343.0000 1.0000
49.9200 311.0000 1.0000
49.9300 319.0000 1.0000
49.9400 335.0000 1.0000
49.9500 327.0000 1.0000
49.9600 332.0000 1.0000
49.9700 320.0000 1.0000
49.9800 331.0000 1.0000
49.9900 336.0000 1.0000
50.0000 321.0000 1.0000
50.0100 303.0000 1.0000
50.0200 325.0000 1.0000
50.0300 328.0000 1.0000
50.0400 307.0000 1.0000
50.0500 324.0000 1.0000
50.0600 334.0000 1.0000
50.0700 294.0000 1.0000
50.0800 328.0000 1.0000
50.0900 321.0000 1.0000
50.1000 316.0000 1.0000
50.1100 315.0000 1.0000
50.1200 338.0000 1.0000
50.1300 341.0000 1.0000
50.1400 322.0000 1.0000
50.1500 317.0000 1.0000
50.1600 315.0000 1.0000
50.1700 307.0000 1.0000
50.1800 298.0000 1.0000
50.1900 304.0000 1.0000
50.2000 303.0000 1.0000
50.2100 304.0000 1.0000
50.2200 300.0000 1.0000
50.2300 322.0000 1.0000
50.2400 313.0000 1.0000
50.2500 338.0000 1.0000
50.2600 297.0000 1.0000
50.2700 316.0000 1.0000
50.2800 321.0000 1.0000
50.2900 318.0000 1.0000
50.3000 329.0000 1.0000
50.3100 342.0000 1.0000
50.3200 328.0000 1.0000
50.3300 325.0000 1.0000
50.3400 329.0000 1.0000
50.3500 308.0000 1.0000
50.3600 332.0000 1.0000
50.3700 341.0000 1.0000
50.3800 330.0000 1.0000
50.3900 316.0000 1.0000
50.4000 330.0000 1.0000
50.4100 341.0000 1.0000
50.4200 334.0000 1.0000
50.4300 346.0000 1.0000
50.4400 346.0000 1.0000
50.4500 340.0000 1.0000
50.4600 319.0000 1.0000
50.4700 316.0000 1.0000
50.4800 320.0000 1.0000
50.4900 343.0000 1.0000
50.5000 328.0000 1.0000
50.5100 351.0000 1.0000
50.5200 326.0000 1.0000
50.5300 318.0000 1.0000
50.5400 312.0000 1.0000
50.5500 290.0000 1.0000
50.5600 314.0000 1.0000
50.5700 319.0000 1.0000
50.5800 349.0000 1.0000
50.5900 331.0000 1.0000
50.6000 317.0000 1.0000
50.6100 314.0000 1.0000
50.6200 344.0000 1.0000
50.6300 299.0000 1.0000
50.6400 310.0000 1.0000
50.6500 347.0000 1.0000
50.6600 342.0000 1.0000
50.6700 339.0000 1.0000
50.6800 359.0000 1.0000
50.6900 342.0000 1.0000
50.7000 312.0000 1.0000
50.7100 337.0000 1.0000
50.7200 295.0000 1.0000
50.7300 301.0000 1.0000
50.7400 343.0000 1.0000
50.7500 332.0000 1.0000
50.7600 330.0000 1.0000
50.7700 298.0000 1.0000
50.7800 314.0000 1.0000
50.7900 326.0000 1.0000
50.8000 320.0000 1.0000
50.8100 323.0000 1.0000
50.8200 321.0000 1.0000
50.8300 334.0000 1.0000
50.8400 315.0000 1.0000
50.8500 301.0000 1.0000
50.8600 296.0000 1.0000
50.8700 333.0000 1.0000
50.8800 342.0000 1.0000
50.8900 343.0000 1.0000
50.9000 341.0000 1.0000
50.9100 331.0000 1.0000
50.9200 324.0000 1.0000
50.9300 320.0000 1.0000
50.9400 353.0000 1.0000
50.9500 326.0000 1.0000
50.9600 348.0000 1.0000
50.9700 358.0000 1.0000
50.9800 352.0000 1.0000
50.9900 340.0000 1.0000
51.0000 352.0000 1.0000
51.0100 325.0000 1.0000
51.0200 340.0000 1.0000
51.0300 350.0000 1.0000
51.0400 355.0000 1.0000
51.0500 376.0000 1.0000
51.0600 358.0000 1.0000
51.0700 394.0000 1.0000
51.0800 400.0000 1.0000
51.0900 361.0000 1.0000
51.1000 354.0000 1.0000
51.1100 359.0000 1.0000
51.1200 386.0000 1.0000
51.1300 395.0000 1.0000
51.1400 383.0000 1.0000
51.1500 379.0000 1.0000
51.1600 405.0000 1.0000
51.1700 428.0000 1.0000
51.1800 398.0000 1.0000
51.1900 413.0000 1.0000
51.2000 469.0000 1.0000
51.2100 485.0000 1.0000
51.2200 475.0000 1.0000
51.2300 497.0000 1.0000
51.2400 559.0000 1.0000
51.2500 522.0000 1.0000
51.2600 509.0000 1.0000
51.2700 561.0000 1.0000
51.2800 578.0000 1.0000
51.2900 631.0000 1.0000
51.3000 653.0000 1.0000
51.3100 685.0000 1.0000
51.3200 710.0000 1.0000
51.3300 790.0000 1.0000
51.3400 803.0000 1.0000
51.3500 790.0000 1.0000
51.3600 890.0000 1.0000
51.3700 924.0000 1.0000
51.3800 1041.0000 1.0000
51.3900 1138.0000 1.0000
51.4000 1204.0000 1.0000
51.4100 1299.0000 1.0000
51.4200 1380.0000 1.0000
51.4300 1477.0000 1.0000
51.4400 1591.0000 1.0000
51.4500 1660.0000 1.0000
51.4600 1725.0000 1.0000
51.4700 1769.0000 1.0000
51.4800 1858.0000 1.0000
51.4900 1938.0000 1.0000
51.5000 1928.0000 1.0000
51.5100 2011.0000 1.0000
51.5200 1994.0000 1.0000
51.5300 1906.0000 1.0000
51.5400 1802.0000 1.0000
51.5500 1805.0000 1.0000
51.5600 1743.0000 1.0000
51.5700 1614.0000 1.0000
51.5800 1602.0000 1.0000
51.5900 1597.0000 1.0000
51.6000 1523.0000 1.0000
51.6100 1480.0000 1.0000
51.6200 1401.0000 1.0000
51.6300 1444.0000 1.0000
51.6400 1328.0000 1.0000
51.6500 1297.0000 1.0000
51.6600 1234.0000 1.0000
51.6700 1137.0000 1.0000
51.6800 1101.0000 1.0000
51.6900 1010.0000 1.0000
51.7000 924.0000 1.0000
51.7100 901.0000 1.0000
51.7200 857.0000 1.0000
51.7300 772.0000 1.0000
51.7400 740.0000 1.0000
51.7500 726.0000 1.0000
51.7600 689.0000 1.0000
51.7700 627.0000 1.0000
51.7800 602.0000 1.0000
51.7900 561.0000 1.0000
51.8000 533.0000 1.0000
51.8100 534.0000 1.0000
51.8200 554.0000 1.0000
51.8300 497.0000 1.0000
51.8400 505.0000 1.0000
51.8500 487.0000 1.0000
51.8600 462.0000 1.0000
51.8700 436.0000 1.0000
51.8800 415.0000 1.0000
51.8900 417.0000 1.0000
51.9000 405.0000 1.0000
51.9100 409.0000 1.0000
51.9200 403.0000 1.0000
51.9300 349.0000 1.0000
51.9400 398.0000 1.0000
51.9500 424.0000 1.0000
51.9600 382.0000 1.0000
51.9700 394.0000 1.0000
51.9800 372.0000 1.0000
51.9900 383.0000 1.0000
52.0000 372.0000 1.0000
52.0100 326.0000 1.0000
52.0200 353.0000 1.0000
52.0300 370.0000 1.0000
52.0400 369.0000 1.0000
52.0500 348.0000 1.0000
52.0600 324.0000 1.0000
52.0700 316.0000 1.0000
52.0800 354.0000 1.0000
52.0900 327.0000 1.0000
52.1000 355.0000 1.0000
52.1100 348.0000 1.0000
52.1200 352.0000 1.0000
52.1300 370.0000 1.0000
52.1400 331.0000 1.0000
52.1500 318.0000 1.0000
52.1600 350.0000 1.0000
52.1700 371.0000 1.0000
52.1800 334.0000 1.0000
52.1900 321.0000 1.0000
52.2000 339.0000 1.0000
52.2100 324.0000 1.0000
52.2200 333.0000 1.0000
52.2300 319.0000 1.0000
52.2400 348.0000 1.0000
52.2500 334.0000 1.0000
52.2600 327.0000 1.0000
52.2700 345.0000 1.0000
52.2800 334.0000 1.0000
52.2900 354.0000 1.0000
52.3000 319.0000 1.0000
52.3100 313.0000 1.0000
52.3200 323.0000 1.0000
52.3300 316.0000 1.0000
52.3400 360.0000 1.0000
52.3500 342.0000 1.0000
52.3600 301.0000 1.0000
52.3700 333.0000 1.0000
52.3800 327.0000 1.0000
52.3900 337.0000 1.0000
52.4000 307.0000 1.0000
52.4100 301.0000 1.0000
52.4200 331.0000 1.0000
52.4300 308.0000 1.0000
52.4400 332.0000 1.0000
52.4500 303.0000 1.0000
52.4600 291.0000 1.0000
52.4700 342.0000 1.0000
52.4800 321.0000 1.0000
52.4900 326.0000 1.0000
52.5000 323.0000 1.0000
52.5100 322.0000 1.0000
52.5200 306.0000 1.0000
52.5300 320.0000 1.0000
52.5400 313.0000 1.0000
52.5500 308.0000 1.0000
52.5600 328.0000 1.0000
52.5700 301.0000 1.0000
52.5800 307.0000 1.0000
52.5900 315.0000 1.0000
52.6000 321.0000 1.0000
52.6100 331.0000 1.0000
52.6200 322.0000 1.0000
52.6300 306.0000 1.0000
52.6400 329.0000 1.0000
52.6500 326.0000 1.0000
52.6600 327.0000 1.0000
52.6700 346.0000 1.0000
52.6800 328.0000 1.0000
52.6900 342.0000 1.0000
52.7000 310.0000 1.0000
52.7100 321.0000 1.0000
52.7200 283.0000 1.0000
52.7300 301.0000 1.0000
52.7400 301.0000 1.0000
52.7500 318.0000 1.0000
52.7600 302.0000 1.0000
52.7700 292.0000 1.0000
52.7800 293.0000 1.0000
52.7900 297.0000 1.0000
52.8000 325.0000 1.0000
52.8100 279.0000 1.0000
52.8200 298.0000 1.0000
52.8300 293.0000 1.0000
52.8400 303.0000 1.0000
52.8500 313.0000 1.0000
52.8600 325.0000 1.0000
52.8700 320.0000 1.0000
52.8800 310.0000 1.0000
52.8900 304.0000 1.0000
52.9000 308.0000 1.0000
52.9100 328.0000 1.0000
52.9200 339.0000 1.0000
52.9300 343.0000 1.0000
52.9400 315.0000 1.0000
52.9500 313.0000 1.0000
52.9600 317.0000 1.0000
52.9700 341.0000 1.0000
52.9800 332.0000 1.0000
52.9900 310.0000 1.0000
53.0000 296.0000 1.0000
53.0100 300.0000 1.0000
53.0200 315.0000 1.0000
53.0300 310.0000 1.0000
53.0400 304.0000 1.0000
53.0500 309.0000 1.0000
53.0600 299.0000 1.0000
53.0700 302.0000 1.0000
53.0800 276.0000 1.0000
53.0900 287.0000 1.0000
53.1000 304.0000 1.0000
53.1100 289.0000 1.0000
53.1200 308.0000 1.0000
53.1300 312.0000 1.0000
53.1400 330.0000 1.0000
53.1500 294.0000 1.0000
53.1600 281.0000 1.0000
53.1700 308.0000 1.0000
53.1800 312.0000 1.0000
53.1900 306.0000 1.0000
53.2000 299.0000 1.0000
53.2100 319.0000 1.0000
53.2200 303.0000 1.0000
53.2300 297.0000 1.0000
53.2400 305.0000 1.0000
53.2500 319.0000 1.0000
53.2600 316.0000 1.0000
53.2700 296.0000 1.0000
53.2800 304.0000 1.0000
53.2900 290.0000 1.0000
53.3000 308.0000 1.0000
53.3100 298.0000 1.0000
53.3200 315.0000 1.0000
53.3300 323.0000 1.0000
53.3400 340.0000 1.0000
53.3500 311.0000 1.0000
53.3600 312.0000 1.0000
53.3700 296.0000 1.0000
53.3800 339.0000 1.0000
53.3900 319.0000 1.0000
53.4000 293.0000 1.0000
53.4100 322.0000 1.0000
53.4200 314.0000 1.0000
53.4300 309.0000 1.0000
53.4400 329.0000 1.0000
53.4500 313.0000 1.0000
53.4600 265.0000 1.0000
53.4700 292.0000 1.0000
53.4800 322.0000 1.0000
53.4900 285.0000 1.0000
53.5000 315.0000 1.0000
53.5100 310.0000 1.0000
53.5200 301.0000 1.0000
53.5300 311.0000 1.0000
53.5400 313.0000 1.0000
53.5500 312.0000 1.0000
53.5600 317.0000 1.0000
53.5700 318.0000 1.0000
53.5800 330.0000 1.0000
53.5900 309.0000 1.0000
53.6000 321.0000 1.0000
53.6100 299.0000 1.0000
53.6200 309.0000 1.0000
53.6300 311.0000 1.0000
53.6400 322.0000 1.0000
53.6500 342.0000 1.0000
53.6600 330.0000 1.0000
53.6700 300.0000 1.0000
53.6800 312.0000 1.0000
53.6900 311.0000 1.0000
53.7000 314.0000 1.0000
53.7100 296.0000 1.0000
53.7200 366.0000 1.0000
53.7300 322.0000 1.0000
53.7400 312.0000 1.0000
53.7500 307.0000 1.0000
53.7600 323.0000 1.0000
53.7700 322.0000 1.0000
53.7800 314.0000 1.0000
53.7900 275.0000 1.0000
53.8000 307.0000 1.0000
53.8100 300.0000 1.0000
53.8200 300.0000 1.0000
53.8300 316.0000 1.0000
53.8400 320.0000 1.0000
53.8500 326.0000 1.0000
53.8600 321.0000 1.0000
53.8700 314.0000 1.0000
53.8800 289.0000 1.0000
53.8900 306.0000 1.0000
53.9000 335.0000 1.0000
53.9100 300.0000 1.0000
53.9200 326.0000 1.0000
53.9300 347.0000 1.0000
53.9400 355.0000 1.0000
53.9500 334.0000 1.0000
53.9600 329.0000 1.0000
53.9700 323.0000 1.0000
53.9800 363.0000 1.0000
53.9900 353.0000 1.0000
54.0000 361.0000 1.0000
54.0100 358.0000 1.0000
54.0200 327.0000 1.0000
54.0300 359.0000 1.0000
54.0400 335.0000 1.0000
54.0500 334.0000 1.0000
54.0600 337.0000 1.0000
54.0700 342.0000 1.0000
54.0800 358.0000 1.0000
54.0900 356.0000 1.0000
54.1000 357.0000 1.0000
54.1100 357.0000 1.0000
54.1200 329.0000 1.0000
54.1300 380.0000 1.0000
54.1400 367.0000 1.0000
54.1500 370.0000 1.0000
54.1600 369.0000 1.0000
54.1700 383.0000 1.0000
54.1800 366.0000 1.0000
54.1900 344.0000 1.0000
54.2000 339.0000 1.0000
54.2100 342.0000 1.0000
54.2200 351.0000 1.0000
54.2300 311.0000 1.0000
54.2400 326.0000 1.0000
54.2500 333.0000 1.0000
54.2600 350.0000 1.0000
54.2700 367.0000 1.0000
54.2800 359.0000 1.0000
54.2900 368.0000 1.0000
54.3000 348.0000 1.0000
54.3100 346.0000 1.0000
54.3200 365.0000 1.0000
54.3300 348.0000 1.0000
54.3400 384.0000 1.0000
54.3500 390.0000 1.0000
54.3600 368.0000 1.0000
54.3700 371.0000 1.0000
54.3800 375.0000 1.0000
54.3900 389.0000 1.0000
54.4000 355.0000 1.0000
54.4100 351.0000 1.0000
54.4200 385.0000 1.0000
54.4300 390.0000 1.0000
54.4400 393.0000 1.0000
54.4500 425.0000 1.0000
54.4600 483.0000 1.0000
54.4700 479.0000 1.0000
54.4800 413.0000 1.0000
54.4900 436.0000 1.0000
54.5000 453.0000 1.0000
54.5100 443.0000 1.0000
54.5200 462.0000 1.0000
54.5300 469.0000 1.0000
54.5400 420.0000 1.0000
54.5500 433.0000 1.0000
54.5600 432.0000 1.0000
54.5700 420.0000 1.0000
54.5800 426.0000 1.0000
54.5900 441.0000 1.0000
54.6000 423.0000 1.0000
54.6100 444.0000 1.0000
54.6200 389.0000 1.0000
54.6300 409.0000 1.0000
54.6400 436.0000 1.0000
54.6500 388.0000 1.0000
54.6600 420.0000 1.0000
54.6700 424.0000 1.0000
54.6800 384.0000 1.0000
54.6900 374.0000 1.0000
54.7000 374.0000 1.0000
54.7100 390.0000 1.0000
54.7200 379.0000 1.0000
54.7300 371.0000 1.0000
54.7400 370.0000 1.0000
54.7500 372.0000 1.0000
54.7600 347.0000 1.0000
54.7700 351.0000 1.0000
54.7800 339.0000 1.0000
54.7900 353.0000 1.0000
54.8000 345.0000 1.0000
54.8100 327.0000 1.0000
54.8200 360.0000 1.0000
54.8300 336.0000 1.0000
54.8400 328.0000 1.0000
54.8500 321.0000 1.0000
54.8600 309.0000 1.0000
54.8700 319.0000 1.0000
54.8800 338.0000 1.0000
54.8900 345.0000 1.0000
54.9000 319.0000 1.0000
54.9100 332.0000 1.0000
54.9200 323.0000 1.0000
54.9300 318.0000 1.0000
54.9400 316.0000 1.0000
54.9500 305.0000 1.0000
54.9600 321.0000 1.0000
54.9700 336.0000 1.0000
54.9800 310.0000 1.0000
54.9900 308.0000 1.0000
55.0000 317.0000 1.0000
55.0100 310.0000 1.0000
55.0200 328.0000 1.0000
55.0300 330.0000 1.0000
55.0400 315.0000 1.0000
55.0500 334.0000 1.0000
55.0600 340.0000 1.0000
55.0700 331.0000 1.0000
55.0800 299.0000 1.0000
55.0900 318.0000 1.0000
55.1000 293.0000 1.0000
55.1100 312.0000 1.0000
55.1200 282.0000 1.0000
55.1300 320.0000 1.0000
55.1400 333.0000 1.0000
55.1500 300.0000 1.0000
55.1600 299.0000 1.0000
55.1700 355.0000 1.0000
55.1800 280.0000 1.0000
55.1900 289.0000 1.0000
55.2000 271.0000 1.0000
55.2100 281.0000 1.0000
55.2200 303.0000 1.0000
55.2300 294.0000 1.0000
55.2400 297.0000 1.0000
55.2500 295.0000 1.0000
55.2600 292.0000 1.0000
55.2700 314.0000 1.0000
55.2800 307.0000 1.0000
55.2900 302.0000 1.0000
55.3000 309.0000 1.0000
55.3100 265.0000 1.0000
55.3200 290.0000 1.0000
55.3300 263.0000 1.0000
55.3400 306.0000 1.0000
55.3500 296.0000 1.0000
55.3600 310.0000 1.0000
55.3700 307.0000 1.0000
55.3800 273.0000 1.0000
55.3900 302.0000 1.0000
55.4000 282.0000 1.0000
55.4100 287.0000 1.0000
55.4200 287.0000 1.0000
55.4300 313.0000 1.0000
55.4400 327.0000 1.0000
55.4500 301.0000 1.0000
55.4600 289.0000 1.0000
55.4700 263.0000 1.0000
55.4800 289.0000 1.0000
55.4900 286.0000 1.0000
55.5000 290.0000 1.0000
55.5100 293.0000 1.0000
55.5200 278.0000 1.0000
55.5300 286.0000 1.0000
55.5400 276.0000 1.0000
55.5500 275.0000 1.0000
55.5600 289.0000 1.0000
55.5700 282.0000 1.0000
55.5800 275.0000 1.0000
55.5900 314.0000 1.0000
55.6000 296.0000 1.0000
55.6100 290.0000 1.0000
55.6200 288.0000 1.0000
55.6300 302.0000 1.0000
55.6400 294.0000 1.0000
55.6500 297.0000 1.0000
55.6600 287.0000 1.0000
55.6700 283.0000 1.0000
55.6800 308.0000 1.0000
55.6900 288.0000 1.0000
55.7000 262.0000 1.0000
55.7100 287.0000 1.0000
55.7200 308.0000 1.0000
55.7300 286.0000 1.0000
55.7400 260.0000 1.0000
55.7500 303.0000 1.0000
55.7600 290.0000 1.0000
55.7700 326.0000 1.0000
55.7800 264.0000 1.0000
55.7900 275.0000 1.0000
55.8000 292.0000 1.0000
55.8100 295.0000 1.0000
55.8200 312.0000 1.0000
55.8300 295.0000 1.0000
55.8400 273.0000 1.0000
55.8500 285.0000 1.0000
55.8600 300.0000 1.0000
55.8700 287.0000 1.0000
55.8800 293.0000 1.0000
55.8900 288.0000 1.0000
55.9000 276.0000 1.0000
55.9100 290.0000 1.0000
55.9200 285.0000 1.0000
55.9300 292.0000 1.0000
55.9400 311.0000 1.0000
55.9500 280.0000 1.0000
55.9600 315.0000 1.0000
55.9700 302.0000 1.0000
55.9800 293.0000 1.0000
55.9900 282.0000 1.0000
56.0000 319.0000 1.0000
56.0100 291.0000 1.0000
56.0200 308.0000 1.0000
56.0300 296.0000 1.0000
56.0400 278.0000 1.0000
56.0500 298.0000 1.0000
56.0600 291.0000 1.0000
56.0700 290.0000 1.0000
56.0800 285.0000 1.0000
56.0900 283.0000 1.0000
56.1000 296.0000 1.0000
56.1100 271.0000 1.0000
56.1200 290.0000 1.0000
56.1300 302.0000 1.0000
56.1400 287.0000 1.0000
56.1500 289.0000 1.0000
56.1600 288.0000 1.0000
56.1700 326.0000 1.0000
56.1800 282.0000 1.0000
56.1900 301.0000 1.0000
56.2000 296.0000 1.0000
56.2100 320.0000 1.0000
56.2200 301.0000 1.0000
56.2300 297.0000 1.0000
56.2400 283.0000 1.0000
56.2500 318.0000 1.0000
56.2600 294.0000 1.0000
56.2700 279.0000 1.0000
56.2800 275.0000 1.0000
56.2900 278.0000 1.0000
56.3000 290.0000 1.0000
56.3100 304.0000 1.0000
56.3200 294.0000 1.0000
56.3300 284.0000 1.0000
56.3400 309.0000 1.0000
56.3500 316.0000 1.0000
56.3600 317.0000 1.0000
56.3700 283.0000 1.0000
56.3800 282.0000 1.0000
56.3900 297.0000 1.0000
56.4000 263.0000 1.0000
56.4100 289.0000 1.0000
56.4200 298.0000 1.0000
56.4300 310.0000 1.0000
56.4400 307.0000 1.0000
56.4500 313.0000 1.0000
56.4600 306.0000 1.0000
56.4700 293.0000 1.0000
56.4800 277.0000 1.0000
56.4900 296.0000 1.0000
56.5000 288.0000 1.0000
56.5100 270.0000 1.0000
56.5200 274.0000 1.0000
56.5300 292.0000 1.0000
56.5400 265.0000 1.0000
56.5500 287.0000 1.0000
56.5600 309.0000 1.0000
56.5700 296.0000 1.0000
56.5800 312.0000 1.0000
56.5900 302.0000 1.0000
56.6000 271.0000 1.0000
56.6100 301.0000 1.0000
56.6200 306.0000 1.0000
56.6300 292.0000 1.0000
56.6400 275.0000 1.0000
56.6500 302.0000 1.0000
56.6600 294.0000 1.0000
56.6700 285.0000 1.0000
56.6800 299.0000 1.0000
56.6900 295.0000 1.0000
56.7000 283.0000 1.0000
56.7100 284.0000 1.0000
56.7200 269.0000 1.0000
56.7300 277.0000 1.0000
56.7400 292.0000 1.0000
56.7500 273.0000 1.0000
56.7600 288.0000 1.0000
56.7700 291.0000 1.0000
56.7800 283.0000 1.0000
56.7900 295.0000 1.0000
56.8000 295.0000 1.0000
56.8100 303.0000 1.0000
56.8200 308.0000 1.0000
56.8300 301.0000 1.0000
56.8400 311.0000 1.0000
56.8500 293.0000 1.0000
56.8600 259.0000 1.0000
56.8700 274.0000 1.0000
56.8800 315.0000 1.0000
56.8900 296.0000 1.0000
56.9000 307.0000 1.0000
56.9100 277.0000 1.0000
56.9200 312.0000 1.0000
56.9300 301.0000 1.0000
56.9400 275.0000 1.0000
56.9500 289.0000 1.0000
56.9600 292.0000 1.0000
56.9700 297.0000 1.0000
56.9800 275.0000 1.0000
56.9900 279.0000 1.0000
57.0000 276.0000 1.0000
57.0100 291.0000 1.0000
57.0200 289.0000 1.0000
57.0300 313.0000 1.0000
57.0400 300.0000 1.0000
57.0500 296.0000 1.0000
57.0600 269.0000 1.0000
57.0700 301.0000 1.0000
57.0800 290.0000 1.0000
57.0900 308.0000 1.0000
57.1000 266.0000 1.0000
57.1100 302.0000 1.0000
57.1200 318.0000 1.0000
57.1300 286.0000 1.0000
57.1400 298.0000 1.0000
57.1500 276.0000 1.0000
57.1600 291.0000 1.0000
57.1700 300.0000 1.0000
57.1800 304.0000 1.0000
57.1900 293.0000 1.0000
57.2000 305.0000 1.0000
57.2100 290.0000 1.0000
57.2200 289.0000 1.0000
57.2300 285.0000 1.0000
57.2400 300.0000 1.0000
57.2500 281.0000 1.0000
57.2600 289.0000 1.0000
57.2700 284.0000 1.0000
57.2800 330.0000 1.0000
57.2900 304.0000 1.0000
57.3000 319.0000 1.0000
57.3100 331.0000 1.0000
57.3200 285.0000 1.0000
57.3300 321.0000 1.0000
57.3400 281.0000 1.0000
57.3500 279.0000 1.0000
57.3600 297.0000 1.0000
57.3700 329.0000 1.0000
57.3800 314.0000 1.0000
57.3900 292.0000 1.0000
57.4000 295.0000 1.0000
57.4100 293.0000 1.0000
57.4200 316.0000 1.0000
57.4300 304.0000 1.0000
57.4400 299.0000 1.0000
57.4500 272.0000 1.0000
57.4600 287.0000 1.0000
57.4700 296.0000 1.0000
57.4800 301.0000 1.0000
57.4900 286.0000 1.0000
57.5000 300.0000 1.0000
57.5100 298.0000 1.0000
57.5200 292.0000 1.0000
57.5300 298.0000 1.0000
57.5400 277.0000 1.0000
57.5500 286.0000 1.0000
57.5600 285.0000 1.0000
57.5700 302.0000 1.0000
57.5800 266.0000 1.0000
57.5900 300.0000 1.0000
57.6000 283.0000 1.0000
57.6100 305.0000 1.0000
57.6200 279.0000 1.0000
57.6300 299.0000 1.0000
57.6400 297.0000 1.0000
57.6500 297.0000 1.0000
57.6600 299.0000 1.0000
57.6700 300.0000 1.0000
57.6800 296.0000 1.0000
57.6900 308.0000 1.0000
57.7000 297.0000 1.0000
57.7100 288.0000 1.0000
57.7200 295.0000 1.0000
57.7300 308.0000 1.0000
57.7400 296.0000 1.0000
57.7500 302.0000 1.0000
57.7600 321.0000 1.0000
57.7700 286.0000 1.0000
57.7800 302.0000 1.0000
57.7900 301.0000 1.0000
57.8000 262.0000 1.0000
57.8100 269.0000 1.0000
57.8200 317.0000 1.0000
57.8300 299.0000 1.0000
57.8400 267.0000 1.0000
57.8500 307.0000 1.0000
57.8600 291.0000 1.0000
57.8700 298.0000 1.0000
57.8800 275.0000 1.0000
57.8900 268.0000 1.0000
57.9000 274.0000 1.0000
57.9100 323.0000 1.0000
57.9200 309.0000 1.0000
57.9300 285.0000 1.0000
57.9400 299.0000 1.0000
57.9500 299.0000 1.0000
57.9600 296.0000 1.0000
57.9700 281.0000 1.0000
57.9800 292.0000 1.0000
57.9900 317.0000 1.0000
58.0000 287.0000 1.0000
58.0100 287.0000 1.0000
58.0200 285.0000 1.0000
58.0300 312.0000 1.0000
58.0400 292.0000 1.0000
58.0500 307.0000 1.0000
58.0600 292.0000 1.0000
58.0700 288.0000 1.0000
58.0800 321.0000 1.0000
58.0900 280.0000 1.0000
58.1000 271.0000 1.0000
58.1100 279.0000 1.0000
58.1200 277.0000 1.0000
58.1300 269.0000 1.0000
58.1400 284.0000 1.0000
58.1500 292.0000 1.0000
58.1600 299.0000 1.0000
58.1700 314.0000 1.0000
58.1800 289.0000 1.0000
58.1900 316.0000 1.0000
58.2000 289.0000 1.0000
58.2100 287.0000 1.0000
58.2200 275.0000 1.0000
58.2300 292.0000 1.0000
58.2400 286.0000 1.0000
58.2500 277.0000 1.0000
58.2600 276.0000 1.0000
58.2700 280.0000 1.0000
58.2800 267.0000 1.0000
58.2900 279.0000 1.0000
58.3000 314.0000 1.0000
58.3100 279.0000 1.0000
58.3200 282.0000 1.0000
58.3300 260.0000 1.0000
58.3400 284.0000 1.0000
58.3500 287.0000 1.0000
58.3600 306.0000 1.0000
58.3700 309.0000 1.0000
58.3800 285.0000 1.0000
58.3900 284.0000 1.0000
58.4000 288.0000 1.0000
58.4100 274.0000 1.0000
58.4200 288.0000 1.0000
58.4300 308.0000 1.0000
58.4400 319.0000 1.0000
58.4500 297.0000 1.0000
58.4600 276.0000 1.0000
58.4700 283.0000 1.0000
58.4800 268.0000 1.0000
58.4900 314.0000 1.0000
58.5000 287.0000 1.0000
58.5100 302.0000 1.0000
58.5200 293.0000 1.0000
58.5300 294.0000 1.0000
58.5400 269.0000 1.0000
58.5500 298.0000 1.0000
58.5600 274.0000 1.0000
58.5700 301.0000 1.0000
58.5800 312.0000 1.0000
58.5900 314.0000 1.0000
58.6000 308.0000 1.0000
58.6100 287.0000 1.0000
58.6200 284.0000 1.0000
58.6300 301.0000 1.0000
58.6400 285.0000 1.0000
58.6500 271.0000 1.0000
58.6600 289.0000 1.0000
58.6700 279.0000 1.0000
58.6800 301.0000 1.0000
58.6900 298.0000 1.0000
58.7000 273.0000 1.0000
58.7100 283.0000 1.0000
58.7200 301.0000 1.0000
58.7300 300.0000 1.0000
58.7400 297.0000 1.0000
58.7500 292.0000 1.0000
58.7600 264.0000 1.0000
58.7700 297.0000 1.0000
58.7800 269.0000 1.0000
58.7900 287.0000 1.0000
58.8000 291.0000 1.0000
58.8100 295.0000 1.0000
58.8200 280.0000 1.0000
58.8300 296.0000 1.0000
58.8400 271.0000 1.0000
58.8500 285.0000 1.0000
58.8600 248.0000 1.0000
58.8700 283.0000 1.0000
58.8800 282.0000 1.0000
58.8900 259.0000 1.0000
58.9000 292.0000 1.0000
58.9100 269.0000 1.0000
58.9200 298.0000 1.0000
58.9300 311.0000 1.0000
58.9400 311.0000 1.0000
58.9500 274.0000 1.0000
58.9600 285.0000 1.0000
58.9700 301.0000 1.0000
58.9800 295.0000 1.0000
58.9900 287.0000 1.0000
59.0000 276.0000 1.0000
59.0100 281.0000 1.0000
59.0200 303.0000 1.0000
59.0300 281.0000 1.0000
59.0400 284.0000 1.0000
59.0500 261.0000 1.0000
59.0600 266.0000 1.0000
59.0700 268.0000 1.0000
59.0800 280.0000 1.0000
59.0900 287.0000 1.0000
59.1000 288.0000 1.0000
59.1100 277.0000 1.0000
59.1200 289.0000 1.0000
59.1300 291.0000 1.0000
59.1400 279.0000 1.0000
59.1500 301.0000 1.0000
59.1600 267.0000 1.0000
59.1700 293.0000 1.0000
59.1800 281.0000 1.0000
59.1900 279.0000 1.0000
59.2000 281.0000 1.0000
59.2100 290.0000 1.0000
59.2200 293.0000 1.0000
59.2300 293.0000 1.0000
59.2400 303.0000 1.0000
59.2500 293.0000 1.0000
59.2600 289.0000 1.0000
59.2700 291.0000 1.0000
59.2800 291.0000 1.0000
59.2900 298.0000 1.0000
59.3000 287.0000 1.0000
59.3100 277.0000 1.0000
59.3200 277.0000 1.0000
59.3300 278.0000 1.0000
59.3400 286.0000 1.0000
59.3500 296.0000 1.0000
59.3600 267.0000 1.0000
59.3700 271.0000 1.0000
59.3800 250.0000 1.0000
59.3900 267.0000 1.0000
59.4000 290.0000 1.0000
59.4100 263.0000 1.0000
59.4200 258.0000 1.0000
59.4300 274.0000 1.0000
59.4400 268.0000 1.0000
59.4500 277.0000 1.0000
59.4600 285.0000 1.0000
59.4700 316.0000 1.0000
59.4800 266.0000 1.0000
59.4900 282.0000 1.0000
59.5000 285.0000 1.0000
59.5100 266.0000 1.0000
59.5200 294.0000 1.0000
59.5300 293.0000 1.0000
59.5400 264.0000 1.0000
59.5500 313.0000 1.0000
59.5600 306.0000 1.0000
59.5700 286.0000 1.0000
59.5800 277.0000 1.0000
59.5900 261.0000 1.0000
59.6000 281.0000 1.0000
59.6100 309.0000 1.0000
59.6200 273.0000 1.0000
59.6300 301.0000 1.0000
59.6400 283.0000 1.0000
59.6500 303.0000 1.0000
59.6600 295.0000 1.0000
59.6700 300.0000 1.0000
59.6800 292.0000 1.0000
59.6900 283.0000 1.0000
59.7000 292.0000 1.0000
59.7100 289.0000 1.0000
59.7200 288.0000 1.0000
59.7300 270.0000 1.0000
59.7400 277.0000 1.0000
59.7500 274.0000 1.0000
59.7600 288.0000 1.0000
59.7700 280.0000 1.0000
59.7800 288.0000 1.0000
59.7900 290.0000 1.0000
59.8000 300.0000 1.0000
59.8100 295.0000 1.0000
59.8200 285.0000 1.0000
59.8300 283.0000 1.0000
59.8400 299.0000 1.0000
59.8500 264.0000 1.0000
59.8600 281.0000 1.0000
59.8700 304.0000 1.0000
59.8800 287.0000 1.0000
59.8900 285.0000 1.0000
59.9000 313.0000 1.0000
59.9100 268.0000 1.0000
59.9200 270.0000 1.0000
59.9300 292.0000 1.0000
59.9400 298.0000 1.0000
59.9500 286.0000 1.0000
59.9600 276.0000 1.0000
59.9700 309.0000 1.0000
59.9800 316.0000 1.0000
59.9900 299.0000 1.0000
60.0000 286.0000 1.0000
60.0100 308.0000 1.0000
60.0200 288.0000 1.0000
60.0300 292.0000 1.0000
60.0400 275.0000 1.0000
60.0500 269.0000 1.0000
60.0600 269.0000 1.0000
60.0700 280.0000 1.0000
60.0800 297.0000 1.0000
60.0900 287.0000 1.0000
60.1000 315.0000 1.0000
60.1100 268.0000 1.0000
60.1200 287.0000 1.0000
60.1300 287.0000 1.0000
60.1400 284.0000 1.0000
60.1500 279.0000 1.0000
60.1600 280.0000 1.0000
60.1700 304.0000 1.0000
60.1800 281.0000 1.0000
60.1900 280.0000 1.0000
60.2000 308.0000 1.0000
60.2100 294.0000 1.0000
60.2200 289.0000 1.0000
60.2300 260.0000 1.0000
60.2400 278.0000 1.0000
60.2500 274.0000 1.0000
60.2600 316.0000 1.0000
60.2700 303.0000 1.0000
60.2800 285.0000 1.0000
60.2900 241.0000 1.0000
60.3000 283.0000 1.0000
60.3100 296.0000 1.0000
60.3200 310.0000 1.0000
60.3300 282.0000 1.0000
60.3400 303.0000 1.0000
60.3500 293.0000 1.0000
60.3600 293.0000 1.0000
60.3700 295.0000 1.0000
60.3800 283.0000 1.0000
60.3900 307.0000 1.0000
60.4000 300.0000 1.0000
60.4100 287.0000 1.0000
60.4200 291.0000 1.0000
60.4300 292.0000 1.0000
60.4400 272.0000 1.0000
60.4500 289.0000 1.0000
60.4600 284.0000 1.0000
60.4700 305.0000 1.0000
60.4800 318.0000 1.0000
60.4900 309.0000 1.0000
60.5000 299.0000 1.0000
60.5100 307.0000 1.0000
60.5200 275.0000 1.0000
60.5300 295.0000 1.0000
60.5400 287.0000 1.0000
60.5500 281.0000 1.0000
60.5600 303.0000 1.0000
60.5700 300.0000 1.0000
60.5800 279.0000 1.0000
60.5900 294.0000 1.0000
60.6000 298.0000 1.0000
60.6100 318.0000 1.0000
60.6200 280.0000 1.0000
60.6300 277.0000 1.0000
60.6400 298.0000 1.0000
60.6500 298.0000 1.0000
60.6600 291.0000 1.0000
60.6700 297.0000 1.0000
60.6800 288.0000 1.0000
60.6900 275.0000 1.0000
60.7000 271.0000 1.0000
60.7100 296.0000 1.0000
60.7200 280.0000 1.0000
60.7300 291.0000 1.0000
60.7400 295.0000 1.0000
60.7500 281.0000 1.0000
60.7600 302.0000 1.0000
60.7700 289.0000 1.0000
60.7800 302.0000 1.0000
60.7900 293.0000 1.0000
60.8000 300.0000 1.0000
60.8100 294.0000 1.0000
60.8200 294.0000 1.0000
60.8300 290.0000 1.0000
60.8400 297.0000 1.0000
60.8500 296.0000 1.0000
60.8600 298.0000 1.0000
60.8700 269.0000 1.0000
60.8800 295.0000 1.0000
60.8900 295.0000 1.0000
60.9000 289.0000 1.0000
60.9100 300.0000 1.0000
60.9200 296.0000 1.0000
60.9300 287.0000 1.0000
60.9400 294.0000 1.0000
60.9500 280.0000 1.0000
60.9600 288.0000 1.0000
60.9700 317.0000 1.0000
60.9800 283.0000 1.0000
60.9900 312.0000 1.0000
61.0000 306.0000 1.0000
61.0100 273.0000 1.0000
61.0200 302.0000 1.0000
61.0300 303.0000 1.0000
61.0400 326.0000 1.0000
61.0500 312.0000 1.0000
61.0600 294.0000 1.0000
61.0700 285.0000 1.0000
61.0800 279.0000 1.0000
61.0900 291.0000 1.0000
61.1000 326.0000 1.0000
61.1100 306.0000 1.0000
61.1200 310.0000 1.0000
61.1300 318.0000 1.0000
61.1400 298.0000 1.0000
61.1500 322.0000 1.0000
61.1600 332.0000 1.0000
61.1700 328.0000 1.0000
61.1800 321.0000 1.0000
61.1900 295.0000 1.0000
61.2000 329.0000 1.0000
61.2100 346.0000 1.0000
61.2200 344.0000 1.0000
61.2300 354.0000 1.0000
61.2400 341.0000 1.0000
61.2500 334.0000 1.0000
61.2600 387.0000 1.0000
61.2700 356.0000 1.0000
61.2800 346.0000 1.0000
61.2900 339.0000 1.0000
61.3000 349.0000 1.0000
61.3100 392.0000 1.0000
61.3200 388.0000 1.0000
61.3300 386.0000 1.0000
61.3400 369.0000 1.0000
61.3500 378.0000 1.0000
61.3600 405.0000 1.0000
61.3700 417.0000 1.0000
61.3800 473.0000 1.0000
61.3900 435.0000 1.0000
61.4000 467.0000 1.0000
61.4100 491.0000 1.0000
61.4200 494.0000 1.0000
61.4300 470.0000 1.0000
61.4400 484.0000 1.0000
61.4500 507.0000 1.0000
61.4600 569.0000 1.0000
61.4700 517.0000 1.0000
61.4800 522.0000 1.0000
61.4900 562.0000 1.0000
61.5000 533.0000 1.0000
61.5100 588.0000 1.0000
61.5200 580.0000 1.0000
61.5300 608.0000 1.0000
61.5400 590.0000 1.0000
61.5500 560.0000 1.0000
61.5600 606.0000 1.0000
61.5700 594.0000 1.0000
61.5800 615.0000 1.0000
61.5900 599.0000 1.0000
61.6000 569.0000 1.0000
61.6100 600.0000 1.0000
61.6200 550.0000 1.0000
61.6300 565.0000 1.0000
61.6400 578.0000 1.0000
61.6500 550.0000 1.0000
61.6600 599.0000 1.0000
61.6700 532.0000 1.0000
61.6800 508.0000 1.0000
61.6900 521.0000 1.0000
61.7000 506.0000 1.0000
61.7100 499.0000 1.0000
61.7200 480.0000 1.0000
61.7300 486.0000 1.0000
61.7400 511.0000 1.0000
61.7500 484.0000 1.0000
61.7600 455.0000 1.0000
61.7700 454.0000 1.0000
61.7800 461.0000 1.0000
61.7900 463.0000 1.0000
61.8000 447.0000 1.0000
61.8100 440.0000 1.0000
61.8200 412.0000 1.0000
61.8300 399.0000 1.0000
61.8400 435.0000 1.0000
61.8500 422.0000 1.0000
61.8600 401.0000 1.0000
61.8700 407.0000 1.0000
61.8800 390.0000 1.0000
61.8900 366.0000 1.0000
61.9000 335.0000 1.0000
61.9100 389.0000 1.0000
61.9200 398.0000 1.0000
61.9300 355.0000 1.0000
61.9400 348.0000 1.0000
61.9500 363.0000 1.0000
61.9600 339.0000 1.0000
61.9700 367.0000 1.0000
61.9800 350.0000 1.0000
61.9900 324.0000 1.0000
62.0000 373.0000 1.0000
62.0100 321.0000 1.0000
62.0200 306.0000 1.0000
62.0300 344.0000 1.0000
62.0400 322.0000 1.0000
62.0500 360.0000 1.0000
62.0600 331.0000 1.0000
62.0700 333.0000 1.0000
62.0800 343.0000 1.0000
62.0900 347.0000 1.0000
62.1000 326.0000 1.0000
62.1100 319.0000 1.0000
62.1200 321.0000 1.0000
62.1300 330.0000 1.0000
62.1400 342.0000 1.0000
62.1500 325.0000 1.0000
62.1600 322.0000 1.0000
62.1700 322.0000 1.0000
62.1800 323.0000 1.0000
62.1900 307.0000 1.0000
62.2000 319.0000 1.0000
62.2100 340.0000 1.0000
62.2200 342.0000 1.0000
62.2300 332.0000 1.0000
62.2400 317.0000 1.0000
62.2500 310.0000 1.0000
62.2600 308.0000 1.0000
62.2700 320.0000 1.0000
62.2800 341.0000 1.0000
62.2900 327.0000 1.0000
62.3000 339.0000 1.0000
62.3100 303.0000 1.0000
62.3200 314.0000 1.0000
62.3300 366.0000 1.0000
62.3400 338.0000 1.0000
62.3500 336.0000 1.0000
62.3600 319.0000 1.0000
62.3700 323.0000 1.0000
62.3800 348.0000 1.0000
62.3900 364.0000 1.0000
62.4000 338.0000 1.0000
62.4100 310.0000 1.0000
62.4200 318.0000 1.0000
62.4300 368.0000 1.0000
62.4400 343.0000 1.0000
62.4500 354.0000 1.0000
62.4600 317.0000 1.0000
62.4700 336.0000 1.0000
62.4800 321.0000 1.0000
62.4900 336.0000 1.0000
62.5000 320.0000 1.0000
62.5100 319.0000 1.0000
62.5200 294.0000 1.0000
62.5300 307.0000 1.0000
62.5400 298.0000 1.0000
62.5500 316.0000 1.0000
62.5600 314.0000 1.0000
62.5700 332.0000 1.0000
62.5800 318.0000 1.0000
62.5900 312.0000 1.0000
62.6000 312.0000 1.0000
62.6100 314.0000 1.0000
62.6200 293.0000 1.0000
62.6300 297.0000 1.0000
62.6400 305.0000 1.0000
62.6500 299.0000 1.0000
62.6600 302.0000 1.0000
62.6700 302.0000 1.0000
62.6800 292.0000 1.0000
62.6900 298.0000 1.0000
62.7000 320.0000 1.0000
62.7100 333.0000 1.0000
62.7200 312.0000 1.0000
62.7300 306.0000 1.0000
62.7400 279.0000 1.0000
62.7500 313.0000 1.0000
62.7600 272.0000 1.0000
62.7700 268.0000 1.0000
62.7800 285.0000 1.0000
62.7900 268.0000 1.0000
62.8000 287.0000 1.0000
62.8100 288.0000 1.0000
62.8200 300.0000 1.0000
62.8300 294.0000 1.0000
62.8400 288.0000 1.0000
62.8500 306.0000 1.0000
62.8600 276.0000 1.0000
62.8700 277.0000 1.0000
62.8800 286.0000 1.0000
62.8900 313.0000 1.0000
62.9000 298.0000 1.0000
62.9100 301.0000 1.0000
62.9200 283.0000 1.0000
62.9300 275.0000 1.0000
62.9400 298.0000 1.0000
62.9500 289.0000 1.0000
62.9600 275.0000 1.0000
62.9700 277.0000 1.0000
62.9800 266.0000 1.0000
62.9900 264.0000 1.0000
63.0000 286.0000 1.0000
63.0100 278.0000 1.0000
63.0200 279.0000 1.0000
63.0300 304.0000 1.0000
63.0400 271.0000 1.0000
63.0500 256.0000 1.0000
63.0600 300.0000 1.0000
63.0700 279.0000 1.0000
63.0800 274.0000 1.0000
63.0900 280.0000 1.0000
63.1000 283.0000 1.0000
63.1100 299.0000 1.0000
63.1200 311.0000 1.0000
63.1300 281.0000 1.0000
63.1400 287.0000 1.0000
63.1500 282.0000 1.0000
63.1600 285.0000 1.0000
63.1700 289.0000 1.0000
63.1800 293.0000 1.0000
63.1900 302.0000 1.0000
63.2000 279.0000 1.0000
63.2100 294.0000 1.0000
63.2200 307.0000 1.0000
63.2300 254.0000 1.0000
63.2400 285.0000 1.0000
63.2500 312.0000 1.0000
63.2600 276.0000 1.0000
63.2700 309.0000 1.0000
63.2800 255.0000 1.0000
63.2900 286.0000 1.0000
63.3000 294.0000 1.0000
63.3100 280.0000 1.0000
63.3200 264.0000 1.0000
63.3300 322.0000 1.0000
63.3400 306.0000 1.0000
63.3500 290.0000 1.0000
63.3600 263.0000 1.0000
63.3700 254.0000 1.0000
63.3800 303.0000 1.0000
63.3900 287.0000 1.0000
63.4000 309.0000 1.0000
63.4100 295.0000 1.0000
63.4200 281.0000 1.0000
63.4300 301.0000 1.0000
63.4400 285.0000 1.0000
63.4500 309.0000 1.0000
63.4600 271.0000 1.0000
63.4700 294.0000 1.0000
63.4800 307.0000 1.0000
63.4900 278.0000 1.0000
63.5000 301.0000 1.0000
63.5100 276.0000 1.0000
63.5200 271.0000 1.0000
63.5300 314.0000 1.0000
63.5400 274.0000 1.0000
63.5500 279.0000 1.0000
63.5600 326.0000 1.0000
63.5700 321.0000 1.0000
63.5800 304.0000 1.0000
63.5900 318.0000 1.0000
63.6000 300.0000 1.0000
63.6100 295.0000 1.0000
63.6200 301.0000 1.0000
63.6300 287.0000 1.0000
63.6400 305.0000 1.0000
63.6500 302.0000 1.0000
63.6600 301.0000 1.0000
63.6700 313.0000 1.0000
63.6800 310.0000 1.0000
63.6900 305.0000 1.0000
63.7000 303.0000 1.0000
63.7100 328.0000 1.0000
63.7200 326.0000 1.0000
63.7300 313.0000 1.0000
63.7400 298.0000 1.0000
63.7500 327.0000 1.0000
63.7600 298.0000 1.0000
63.7700 360.0000 1.0000
63.7800 339.0000 1.0000
63.7900 365.0000 1.0000
63.8000 359.0000 1.0000
63.8100 348.0000 1.0000
63.8200 341.0000 1.0000
63.8300 330.0000 1.0000
63.8400 336.0000 1.0000
63.8500 336.0000 1.0000
63.8600 356.0000 1.0000
63.8700 343.0000 1.0000
63.8800 361.0000 1.0000
63.8900 412.0000 1.0000
63.9000 400.0000 1.0000
63.9100 399.0000 1.0000
63.9200 405.0000 1.0000
63.9300 389.0000 1.0000
63.9400 386.0000 1.0000
63.9500 397.0000 1.0000
63.9600 379.0000 1.0000
63.9700 385.0000 1.0000
63.9800 394.0000 1.0000
63.9900 399.0000 1.0000
64.0000 421.0000 1.0000
64.0100 402.0000 1.0000
64.0200 365.0000 1.0000
64.0300 375.0000 1.0000
64.0400 369.0000 1.0000
64.0500 363.0000 1.0000
64.0600 377.0000 1.0000
64.0700 396.0000 1.0000
64.0800 377.0000 1.0000
64.0900 390.0000 1.0000
64.1000 409.0000 1.0000
64.1100 361.0000 1.0000
64.1200 371.0000 1.0000
64.1300 346.0000 1.0000
64.1400 370.0000 1.0000
64.1500 365.0000 1.0000
64.1600 356.0000 1.0000
64.1700 357.0000 1.0000
64.1800 382.0000 1.0000
64.1900 348.0000 1.0000
64.2000 364.0000 1.0000
64.2100 338.0000 1.0000
64.2200 307.0000 1.0000
64.2300 334.0000 1.0000
64.2400 338.0000 1.0000
64.2500 316.0000 1.0000
64.2600 323.0000 1.0000
64.2700 336.0000 1.0000
64.2800 318.0000 1.0000
64.2900 321.0000 1.0000
64.3000 312.0000 1.0000
64.3100 338.0000 1.0000
64.3200 290.0000 1.0000
64.3300 260.0000 1.0000
64.3400 301.0000 1.0000
64.3500 318.0000 1.0000
64.3600 327.0000 1.0000
64.3700 329.0000 1.0000
64.3800 324.0000 1.0000
64.3900 283.0000 1.0000
64.4000 313.0000 1.0000
64.4100 310.0000 1.0000
64.4200 316.0000 1.0000
64.4300 300.0000 1.0000
64.4400 312.0000 1.0000
64.4500 304.0000 1.0000
64.4600 270.0000 1.0000
64.4700 313.0000 1.0000
64.4800 288.0000 1.0000
64.4900 303.0000 1.0000
64.5000 282.0000 1.0000
64.5100 295.0000 1.0000
64.5200 290.0000 1.0000
64.5300 318.0000 1.0000
64.5400 283.0000 1.0000
64.5500 296.0000 1.0000
64.5600 317.0000 1.0000
64.5700 315.0000 1.0000
64.5800 311.0000 1.0000
64.5900 273.0000 1.0000
64.6000 290.0000 1.0000
64.6100 291.0000 1.0000
64.6200 273.0000 1.0000
64.6300 269.0000 1.0000
64.6400 274.0000 1.0000
64.6500 284.0000 1.0000
64.6600 321.0000 1.0000
64.6700 287.0000 1.0000
64.6800 268.0000 1.0000
64.6900 297.0000 1.0000
64.7000 298.0000 1.0000
64.7100 288.0000 1.0000
64.7200 300.0000 1.0000
64.7300 297.0000 1.0000
64.7400 275.0000 1.0000
64.7500 314.0000 1.0000
64.7600 283.0000 1.0000
64.7700 307.0000 1.0000
64.7800 319.0000 1.0000
64.7900 303.0000 1.0000
64.8000 290.0000 1.0000
64.8100 296.0000 1.0000
64.8200 313.0000 1.0000
64.8300 321.0000 1.0000
64.8400 277.0000 1.0000
64.8500 276.0000 1.0000
64.8600 297.0000 1.0000
64.8700 292.0000 1.0000
64.8800 307.0000 1.0000
64.8900 282.0000 1.0000
64.9000 276.0000 1.0000
64.9100 295.0000 1.0000
64.9200 323.0000 1.0000
64.9300 301.0000 1.0000
64.9400 322.0000 1.0000
64.9500 313.0000 1.0000
64.9600 334.0000 1.0000
64.9700 317.0000 1.0000
64.9800 320.0000 1.0000
64.9900 307.0000 1.0000
65.0000 295.0000 1.0000
65.0100 312.0000 1.0000
65.0200 315.0000 1.0000
65.0300 336.0000 1.0000
65.0400 321.0000 1.0000
65.0500 326.0000 1.0000
65.0600 314.0000 1.0000
65.0700 299.0000 1.0000
65.0800 287.0000 1.0000
65.0900 311.0000 1.0000
65.1000 323.0000 1.0000
65.1100 319.0000 1.0000
65.1200 365.0000 1.0000
65.1300 333.0000 1.0000
65.1400 312.0000 1.0000
65.1500 306.0000 1.0000
65.1600 328.0000 1.0000
65.1700 343.0000 1.0000
65.1800 351.0000 1.0000
65.1900 346.0000 1.0000
65.2000 338.0000 1.0000
65.2100 332.0000 1.0000
65.2200 373.0000 1.0000
65.2300 370.0000 1.0000
65.2400 392.0000 1.0000
65.2500 390.0000 1.0000
65.2600 443.0000 1.0000
65.2700 412.0000 1.0000
65.2800 410.0000 1.0000
65.2900 427.0000 1.0000
65.3000 445.0000 1.0000
65.3100 424.0000 1.0000
65.3200 433.0000 1.0000
65.3300 492.0000 1.0000
65.3400 494.0000 1.0000
65.3500 520.0000 1.0000
65.3600 499.0000 1.0000
65.3700 499.0000 1.0000
65.3800 519.0000 1.0000
65.3900 587.0000 1.0000
65.4000 605.0000 1.0000
65.4100 622.0000 1.0000
65.4200 644.0000 1.0000
65.4300 658.0000 1.0000
65.4400 726.0000 1.0000
65.4500 740.0000 1.0000
65.4600 765.0000 1.0000
65.4700 827.0000 1.0000
65.4800 832.0000 1.0000
65.4900 879.0000 1.0000
65.5000 848.0000 1.0000
65.5100 869.0000 1.0000
65.5200 970.0000 1.0000
65.5300 977.0000 1.0000
65.5400 984.0000 1.0000
65.5500 969.0000 1.0000
65.5600 965.0000 1.0000
65.5700 999.0000 1.0000
65.5800 975.0000 1.0000
65.5900 962.0000 1.0000
65.6000 940.0000 1.0000
65.6100 911.0000 1.0000
65.6200 892.0000 1.0000
65.6300 866.0000 1.0000
65.6400 854.0000 1.0000
65.6500 891.0000 1.0000
65.6600 809.0000 1.0000
65.6700 819.0000 1.0000
65.6800 808.0000 1.0000
65.6900 790.0000 1.0000
65.7000 813.0000 1.0000
65.7100 804.0000 1.0000
65.7200 739.0000 1.0000
65.7300 738.0000 1.0000
65.7400 749.0000 1.0000
65.7500 717.0000 1.0000
65.7600 682.0000 1.0000
65.7700 696.0000 1.0000
65.7800 724.0000 1.0000
65.7900 610.0000 1.0000
65.8000 610.0000 1.0000
65.8100 584.0000 1.0000
65.8200 557.0000 1.0000
65.8300 550.0000 1.0000
65.8400 522.0000 1.0000
65.8500 477.0000 1.0000
65.8600 460.0000 1.0000
65.8700 471.0000 1.0000
65.8800 470.0000 1.0000
65.8900 439.0000 1.0000
65.9000 461.0000 1.0000
65.9100 446.0000 1.0000
65.9200 391.0000 1.0000
65.9300 424.0000 1.0000
65.9400 388.0000 1.0000
65.9500 368.0000 1.0000
65.9600 362.0000 1.0000
65.9700 378.0000 1.0000
65.9800 369.0000 1.0000
65.9900 332.0000 1.0000
66.0000 366.0000 1.0000
66.0100 371.0000 1.0000
66.0200 325.0000 1.0000
66.0300 330.0000 1.0000
66.0400 322.0000 1.0000
66.0500 342.0000 1.0000
66.0600 327.0000 1.0000
66.0700 345.0000 1.0000
66.0800 326.0000 1.0000
66.0900 326.0000 1.0000
66.1000 319.0000 1.0000
66.1100 307.0000 1.0000
66.1200 330.0000 1.0000
66.1300 302.0000 1.0000
66.1400 304.0000 1.0000
66.1500 320.0000 1.0000
66.1600 307.0000 1.0000
66.1700 276.0000 1.0000
66.1800 298.0000 1.0000
66.1900 304.0000 1.0000
66.2000 288.0000 1.0000
66.2100 308.0000 1.0000
66.2200 302.0000 1.0000
66.2300 292.0000 1.0000
66.2400 303.0000 1.0000
66.2500 319.0000 1.0000
66.2600 344.0000 1.0000
66.2700 318.0000 1.0000
66.2800 284.0000 1.0000
66.2900 308.0000 1.0000
66.3000 256.0000 1.0000
66.3100 277.0000 1.0000
66.3200 256.0000 1.0000
66.3300 263.0000 1.0000
66.3400 277.0000 1.0000
66.3500 303.0000 1.0000
66.3600 283.0000 1.0000
66.3700 258.0000 1.0000
66.3800 275.0000 1.0000
66.3900 288.0000 1.0000
66.4000 284.0000 1.0000
66.4100 281.0000 1.0000
66.4200 295.0000 1.0000
66.4300 294.0000 1.0000
66.4400 262.0000 1.0000
66.4500 274.0000 1.0000
66.4600 268.0000 1.0000
66.4700 257.0000 1.0000
66.4800 284.0000 1.0000
66.4900 271.0000 1.0000
66.5000 259.0000 1.0000
66.5100 277.0000 1.0000
66.5200 280.0000 1.0000
66.5300 241.0000 1.0000
66.5400 247.0000 1.0000
66.5500 293.0000 1.0000
66.5600 260.0000 1.0000
66.5700 272.0000 1.0000
66.5800 301.0000 1.0000
66.5900 254.0000 1.0000
66.6000 252.0000 1.0000
66.6100 282.0000 1.0000
66.6200 281.0000 1.0000
66.6300 256.0000 1.0000
66.6400 276.0000 1.0000
66.6500 316.0000 1.0000
66.6600 275.0000 1.0000
66.6700 270.0000 1.0000
66.6800 248.0000 1.0000
66.6900 265.0000 1.0000
66.7000 258.0000 1.0000
66.7100 300.0000 1.0000
66.7200 274.0000 1.0000
66.7300 294.0000 1.0000
66.7400 276.0000 1.0000
66.7500 279.0000 1.0000
66.7600 282.0000 1.0000
66.7700 277.0000 1.0000
66.7800 265.0000 1.0000
66.7900 237.0000 1.0000
66.8000 248.0000 1.0000
66.8100 285.0000 1.0000
66.8200 285.0000 1.0000
66.8300 265.0000 1.0000
66.8400 268.0000 1.0000
66.8500 280.0000 1.0000
66.8600 260.0000 1.0000
66.8700 274.0000 1.0000
66.8800 267.0000 1.0000
66.8900 247.0000 1.0000
66.9000 256.0000 1.0000
66.9100 254.0000 1.0000
66.9200 244.0000 1.0000
66.9300 264.0000 1.0000
66.9400 260.0000 1.0000
66.9500 254.0000 1.0000
66.9600 264.0000 1.0000
66.9700 277.0000 1.0000
66.9800 257.0000 1.0000
66.9900 267.0000 1.0000
67.0000 289.0000 1.0000
67.0100 283.0000 1.0000
67.0200 272.0000 1.0000
67.0300 274.0000 1.0000
67.0400 276.0000 1.0000
67.0500 264.0000 1.0000
67.0600 274.0000 1.0000
67.0700 268.0000 1.0000
67.0800 275.0000 1.0000
67.0900 266.0000 1.0000
67.1000 271.0000 1.0000
67.1100 257.0000 1.0000
67.1200 280.0000 1.0000
67.1300 263.0000 1.0000
67.1400 270.0000 1.0000
67.1500 259.0000 1.0000
67.1600 260.0000 1.0000
67.1700 265.0000 1.0000
67.1800 262.0000 1.0000
67.1900 266.0000 1.0000
67.2000 282.0000 1.0000
67.2100 270.0000 1.0000
67.2200 236.0000 1.0000
67.2300 242.0000 1.0000
67.2400 241.0000 1.0000
67.2500 264.0000 1.0000
67.2600 296.0000 1.0000
67.2700 272.0000 1.0000
67.2800 243.0000 1.0000
67.2900 264.0000 1.0000
67.3000 261.0000 1.0000
67.3100 259.0000 1.0000
67.3200 267.0000 1.0000
67.3300 266.0000 1.0000
67.3400 254.0000 1.0000
67.3500 270.0000 1.0000
67.3600 268.0000 1.0000
67.3700 298.0000 1.0000
67.3800 261.0000 1.0000
67.3900 280.0000 1.0000
67.4000 262.0000 1.0000
67.4100 242.0000 1.0000
67.4200 268.0000 1.0000
67.4300 272.0000 1.0000
67.4400 282.0000 1.0000
67.4500 273.0000 1.0000
67.4600 294.0000 1.0000
67.4700 272.0000 1.0000
67.4800 278.0000 1.0000
67.4900 239.0000 1.0000
67.5000 256.0000 1.0000
67.5100 265.0000 1.0000
67.5200 254.0000 1.0000
67.5300 264.0000 1.0000
67.5400 264.0000 1.0000
67.5500 264.0000 1.0000
67.5600 248.0000 1.0000
67.5700 267.0000 1.0000
67.5800 301.0000 1.0000
67.5900 269.0000 1.0000
67.6000 279.0000 1.0000
67.6100 269.0000 1.0000
67.6200 253.0000 1.0000
67.6300 266.0000 1.0000
67.6400 245.0000 1.0000
67.6500 254.0000 1.0000
67.6600 262.0000 1.0000
67.6700 259.0000 1.0000
67.6800 264.0000 1.0000
67.6900 277.0000 1.0000
67.7000 264.0000 1.0000
67.7100 248.0000 1.0000
67.7200 249.0000 1.0000
67.7300 260.0000 1.0000
67.7400 234.0000 1.0000
67.7500 247.0000 1.0000
67.7600 256.0000 1.0000
67.7700 239.0000 1.0000
67.7800 252.0000 1.0000
67.7900 258.0000 1.0000
67.8000 273.0000 1.0000
67.8100 275.0000 1.0000
67.8200 292.0000 1.0000
67.8300 266.0000 1.0000
67.8400 243.0000 1.0000
67.8500 260.0000 1.0000
67.8600 269.0000 1.0000
67.8700 248.0000 1.0000
67.8800 250.0000 1.0000
67.8900 245.0000 1.0000
67.9000 248.0000 1.0000
67.9100 261.0000 1.0000
67.9200 268.0000 1.0000
67.9300 279.0000 1.0000
67.9400 265.0000 1.0000
67.9500 258.0000 1.0000
67.9600 259.0000 1.0000
67.9700 285.0000 1.0000
67.9800 250.0000 1.0000
67.9900 244.0000 1.0000
68.0000 237.0000 1.0000
68.0100 265.0000 1.0000
68.0200 250.0000 1.0000
68.0300 267.0000 1.0000
68.0400 260.0000 1.0000
68.0500 249.0000 1.0000
68.0600 245.0000 1.0000
68.0700 269.0000 1.0000
68.0800 265.0000 1.0000
68.0900 273.0000 1.0000
68.1000 276.0000 1.0000
68.1100 254.0000 1.0000
68.1200 249.0000 1.0000
68.1300 272.0000 1.0000
68.1400 278.0000 1.0000
68.1500 255.0000 1.0000
68.1600 241.0000 1.0000
68.1700 270.0000 1.0000
68.1800 249.0000 1.0000
68.1900 252.0000 1.0000
68.2000 259.0000 1.0000
68.2100 257.0000 1.0000
68.2200 247.0000 1.0000
68.2300 259.0000 1.0000
68.2400 262.0000 1.0000
68.2500 273.0000 1.0000
68.2600 265.0000 1.0000
68.2700 257.0000 1.0000
68.2800 254.0000 1.0000
68.2900 223.0000 1.0000
68.3000 238.0000 1.0000
68.3100 255.0000 1.0000
68.3200 254.0000 1.0000
68.3300 234.0000 1.0000
68.3400 240.0000 1.0000
68.3500 271.0000 1.0000
68.3600 246.0000 1.0000
68.3700 234.0000 1.0000
68.3800 276.0000 1.0000
68.3900 243.0000 1.0000
68.4000 234.0000 1.0000
68.4100 254.0000 1.0000
68.4200 247.0000 1.0000
68.4300 243.0000 1.0000
68.4400 263.0000 1.0000
68.4500 236.0000 1.0000
68.4600 225.0000 1.0000
68.4700 243.0000 1.0000
68.4800 254.0000 1.0000
68.4900 275.0000 1.0000
68.5000 253.0000 1.0000
68.5100 256.0000 1.0000
68.5200 244.0000 1.0000
68.5300 229.0000 1.0000
68.5400 230.0000 1.0000
68.5500 250.0000 1.0000
68.5600 274.0000 1.0000
68.5700 254.0000 1.0000
68.5800 272.0000 1.0000
68.5900 272.0000 1.0000
68.6000 246.0000 1.0000
68.6100 275.0000 1.0000
68.6200 282.0000 1.0000
68.6300 237.0000 1.0000
68.6400 236.0000 1.0000
68.6500 279.0000 1.0000
68.6600 238.0000 1.0000
68.6700 242.0000 1.0000
68.6800 219.0000 1.0000
68.6900 243.0000 1.0000
68.7000 241.0000 1.0000
68.7100 285.0000 1.0000
68.7200 250.0000 1.0000
68.7300 254.0000 1.0000
68.7400 253.0000 1.0000
68.7500 251.0000 1.0000
68.7600 270.0000 1.0000
68.7700 258.0000 1.0000
68.7800 262.0000 1.0000
68.7900 238.0000 1.0000
68.8000 275.0000 1.0000
68.8100 244.0000 1.0000
68.8200 264.0000 1.0000
68.8300 250.0000 1.0000
68.8400 252.0000 1.0000
68.8500 255.0000 1.0000
68.8600 241.0000 1.0000
68.8700 261.0000 1.0000
68.8800 266.0000 1.0000
68.8900 259.0000 1.0000
68.9000 257.0000 1.0000
68.9100 241.0000 1.0000
68.9200 233.0000 1.0000
68.9300 254.0000 1.0000
68.9400 253.0000 1.0000
68.9500 269.0000 1.0000
68.9600 244.0000 1.0000
68.9700 251.0000 1.0000
68.9800 275.0000 1.0000
68.9900 275.0000 1.0000
69.0000 256.0000 1.0000
69.0100 251.0000 1.0000
69.0200 271.0000 1.0000
69.0300 257.0000 1.0000
69.0400 239.0000 1.0000
69.0500 256.0000 1.0000
69.0600 237.0000 1.0000
69.0700 246.0000 1.0000
69.0800 240.0000 1.0000
69.0900 251.0000 1.0000
69.1000 253.0000 1.0000
69.1100 255.0000 1.0000
69.1200 242.0000 1.0000
69.1300 259.0000 1.0000
69.1400 260.0000 1.0000
69.1500 255.0000 1.0000
69.1600 250.0000 1.0000
69.1700 251.0000 1.0000
69.1800 247.0000 1.0000
69.1900 253.0000 1.0000
69.2000 266.0000 1.0000
69.2100 259.0000 1.0000
69.2200 254.0000 1.0000
69.2300 258.0000 1.0000
69.2400 252.0000 1.0000
69.2500 278.0000 1.0000
69.2600 239.0000 1.0000
69.2700 226.0000 1.0000
69.2800 266.0000 1.0000
69.2900 265.0000 1.0000
69.3000 248.0000 1.0000
69.3100 270.0000 1.0000
69.3200 264.0000 1.0000
69.3300 247.0000 1.0000
69.3400 249.0000 1.0000
69.3500 254.0000 1.0000
69.3600 240.0000 1.0000
69.3700 237.0000 1.0000
69.3800 238.0000 1.0000
69.3900 261.0000 1.0000
69.4000 260.0000 1.0000
69.4100 253.0000 1.0000
69.4200 246.0000 1.0000
69.4300 254.0000 1.0000
69.4400 246.0000 1.0000
69.4500 266.0000 1.0000
69.4600 237.0000 1.0000
69.4700 281.0000 1.0000
69.4800 238.0000 1.0000
69.4900 231.0000 1.0000
69.5000 253.0000 1.0000
69.5100 252.0000 1.0000
69.5200 253.0000 1.0000
69.5300 264.0000 1.0000
69.5400 249.0000 1.0000
69.5500 238.0000 1.0000
69.5600 247.0000 1.0000
69.5700 237.0000 1.0000
69.5800 258.0000 1.0000
69.5900 253.0000 1.0000
69.6000 243.0000 1.0000
69.6100 257.0000 1.0000
69.6200 241.0000 1.0000
69.6300 250.0000 1.0000
69.6400 236.0000 1.0000
69.6500 277.0000 1.0000
69.6600 249.0000 1.0000
69.6700 259.0000 1.0000
69.6800 226.0000 1.0000
69.6900 243.0000 1.0000
69.7000 235.0000 1.0000
69.7100 229.0000 1.0000
69.7200 244.0000 1.0000
69.7300 253.0000 1.0000
69.7400 245.0000 1.0000
69.7500 241.0000 1.0000
69.7600 263.0000 1.0000
69.7700 237.0000 1.0000
69.7800 230.0000 1.0000
69.7900 225.0000 1.0000
69.8000 229.0000 1.0000
69.8100 227.0000 1.0000
69.8200 257.0000 1.0000
69.8300 279.0000 1.0000
69.8400 226.0000 1.0000
69.8500 235.0000 1.0000
69.8600 252.0000 1.0000
69.8700 248.0000 1.0000
69.8800 248.0000 1.0000
69.8900 254.0000 1.0000
69.9000 239.0000 1.0000
69.9100 225.0000 1.0000
69.9200 241.0000 1.0000
69.9300 232.0000 1.0000
69.9400 249.0000 1.0000
69.9500 264.0000 1.0000
69.9600 258.0000 1.0000
69.9700 262.0000 1.0000
69.9800 258.0000 1.0000
69.9900 252.0000 1.0000
70.0000 224.0000 1.0000
*RAS_INT_END
*RAS_TEMPERATURE_START
*RAS_TEMPERATURE_END
*RAS_DATA_END
