*RAS_DATA_START
*RAS_HEADER_START
*DISP_FMT_X "%.2f"
*DISP_FMT_Y "%.0f"
*DISP_FULLSCALE "13420.0000000000"
*DISP_LINE_COLOR "255.0000000000"
*DISP_LINE_STYLE "0.0000000000"
*DISP_LINE_WIDTH "0.2500000000"
*DISP_NOTE "測定データ-6"
*DISP_OFFSET_Y "0.0000000000"
*DISP_PEAKSEARCH_UNIT_Y "cps"
*DISP_RANGE_BOTTOM "0.0000000000"
*DISP_RANGE_LEFT "20.0000000000"
*DISP_RANGE_LOGCUTOFF "0.0100000000"
*DISP_RANGE_RIGHT "70.0000000000"
*DISP_RANGE_TOP "13420.0000000000"
*DISP_SCALE_MODE_Y "0.0000000000"
*DISP_TAB_NAME "2θ/θ"
*DISP_TITLE_Y "強度"
*DISP_UNIT_Y "cps"
*DISP_WINDOW_NAME "MSG_MACROENGINE"
*FILE_COMMENT " "
*FILE_MD5 ""
*FILE_MEMO " "
*FILE_OPERATOR "Administrator"
*FILE_SAMPLE " "
*FILE_TYPE "RAS_RAW"
*FILE_USERGROUP "システムマネージャ"
*FILE_VERSION "1.0000000000"
*HW_ATTACHMENT_ID "ATT0025"
*HW_ATTACHMENT_NAME "標準|Standard"
*HW_COUNTER_ID-0 "CUT0025"
*HW_COUNTER_ID-1 "CUT0020"
*HW_COUNTER_ID-2 "CUT0020"
*HW_COUNTER_ID-3 "CSL0021"
*HW_COUNTER_ID-4 "CMC0021"
*HW_COUNTER_NAME-0 "D/teX Ultra|D/teX Ultra"
*HW_COUNTER_NAME-1 "None|None"
*HW_COUNTER_NAME-2 "None|None"
*HW_COUNTER_NAME-3 "BBM|BBM"
*HW_COUNTER_NAME-4 "検出器モノクロメータ|Detector monochromator"
*HW_COUNTER_SELECT_NAME "D/teX Ultra|D/teX Ultra"
*HW_GONIOMETER_ID "GON0023"
*HW_GONIOMETER_NAME "SmartLab|SmartLab"
*HW_GONIOMETER_RADIUS-0 "90.0"
*HW_GONIOMETER_RADIUS-1 "114.0"
*HW_GONIOMETER_RADIUS-2 "190.0"
*HW_GONIOMETER_RADIUS-3 "300.0"
*HW_GONIOMETER_RADIUS-4 "187.0"
*HW_GONIOMETER_RADIUS-5 "300.0"
*HW_GONIOMETER_RADIUS-6 "113.0"
*HW_GONIOMETER_RADIUS-7 "331.0"
*HW_I_OPT_ID-0 "CBO0021"
*HW_I_OPT_ID-1 "ICR0023"
*HW_I_OPT_ID-2 "ISL0021"
*HW_I_OPT_ID-3 "ISO0021"
*HW_I_OPT_ID-4 "IAD0021"
*HW_I_OPT_ID-5 "IPR0001"
*HW_I_OPT_NAME-0 "CBOユニット|CBO unit"
*HW_I_OPT_NAME-1 "標準入射光学ユニット|Standard incident optical unit"
*HW_I_OPT_NAME-2 "標準入射スリットボックス|Standard incident slit box"
*HW_I_OPT_NAME-3 "入射平行スリット|Incident parallel slit"
*HW_I_OPT_NAME-4 "長手制限スリット|Length limiting slit"
*HW_I_OPT_NAME-5 "None|None"
*HW_R_ATTENUATER_AUTOMODE "0"
*HW_R_OPT_ID-0 "RSS0021"
*HW_R_OPT_ID-1 "RCR0023"
*HW_R_OPT_ID-2 "RSO0021"
*HW_R_OPT_ID-3 "RRS0021"
*HW_R_OPT_ID-4 "ATN0021"
*HW_R_OPT_ID-5 "RFL0021"
*HW_R_OPT_ID-6 "RAD0021"
*HW_R_OPT_NAME-0 "標準受光スリットボックス1|Standard receiving slit box # 1"
*HW_R_OPT_NAME-1 "標準受光光学ユニット1|Standard receiving unit # 1"
*HW_R_OPT_NAME-2 "標準受光光学ユニット2|Standard receiving optical unit # 2"
*HW_R_OPT_NAME-3 "標準受光スリットボックス2|Standard receiving slit box # 2"
*HW_R_OPT_NAME-4 "標準アッテネータ|Standard Attenuator"
*HW_R_OPT_NAME-5 "Cu Kβ|Cu K-beta"
*HW_R_OPT_NAME-6 "調整用受光スリット|Alignment receiving slit"
*HW_SAMPLE_HOLDER_ID "SMP0023"
*HW_SAMPLE_HOLDER_NAME "標準Zステージ|Standard Z stage"
*HW_XG_CURRENT_MAX "50"
*HW_XG_CURRENT_MIN "2"
*HW_XG_CURRENT_RESOLUTION "1"
*HW_XG_CURRENT_UNIT "mA"
*HW_XG_FOCUS "1mm x 10mm"
*HW_XG_FOCUS_TYPE "Normal"
*HW_XG_ID ""
*HW_XG_NAME "3kW 封入管(ID:1200)|3kW Sealed tube(ID:1200)"
*HW_XG_TARGET_ATOMIC_NUMBER "29.0000000000"
*HW_XG_TARGET_NAME "Cu"
*HW_XG_TYPE "Hermetic"
*HW_XG_VOLTAGE_MAX "60"
*HW_XG_VOLTAGE_MIN "20"
*HW_XG_VOLTAGE_RESOLUTION "1"
*HW_XG_VOLTAGE_UNIT "kV"
*HW_XG_WATT_MAX "1.500"
*HW_XG_WATT_UNIT "kW"
*HW_XG_WAVE_LENGTH_ALPHA1 "1.540593"
*HW_XG_WAVE_LENGTH_ALPHA2 "1.544414"
*HW_XG_WAVE_LENGTH_BETA "1.392250"
*MEAS_COND_AXIS_NAME-0 "2θ/θ"
*MEAS_COND_AXIS_NAME-1 "2θ"
*MEAS_COND_AXIS_NAME-2 "ω"
*MEAS_COND_AXIS_NAME-3 "Z"
*MEAS_COND_AXIS_NAME-4 "2θ/ω"
*MEAS_COND_AXIS_NAME-5 "θs"
*MEAS_COND_AXIS_NAME-6 "θd"
*MEAS_COND_AXIS_NAME-7 "Ts"
*MEAS_COND_AXIS_NAME-8 "CBO選択スリット"
*MEAS_COND_AXIS_NAME-9 "M"
*MEAS_COND_AXIS_NAME-10 "入射平行スリット"
*MEAS_COND_AXIS_NAME-11 "入射スリット"
*MEAS_COND_AXIS_NAME-12 ""
*MEAS_COND_AXIS_NAME-13 "Zs"
*MEAS_COND_AXIS_NAME-14 "入射光学素子"
*MEAS_COND_AXIS_NAME-15 "長手制限スリット"
*MEAS_COND_AXIS_NAME-16 "センタースリット"
*MEAS_COND_AXIS_NAME-17 "フィルター"
*MEAS_COND_AXIS_NAME-18 "受光スリット1"
*MEAS_COND_AXIS_NAME-19 "受光スリット2"
*MEAS_COND_AXIS_NAME-20 "受光光学素子"
*MEAS_COND_AXIS_NAME-21 "受光平行スリット"
*MEAS_COND_AXIS_NAME-22 "調整用受光スリット"
*MEAS_COND_AXIS_NAME-23 ""
*MEAS_COND_AXIS_NAME-24 ""
*MEAS_COND_AXIS_NAME-25 "Zd"
*MEAS_COND_AXIS_NAME-26 "アッテネータ"
*MEAS_COND_AXIS_NAME-27 "検出器モノクロメータ"
*MEAS_COND_AXIS_NAME-28 "モノクロメータスリット"
*MEAS_COND_AXIS_NAME-29 "プライマリビーム"
*MEAS_COND_AXIS_NAME-30 "PHA"
*MEAS_COND_AXIS_NAME_INTERNAL-0 "TwoThetaTheta"
*MEAS_COND_AXIS_NAME_INTERNAL-1 "TwoTheta"
*MEAS_COND_AXIS_NAME_INTERNAL-2 "Omega"
*MEAS_COND_AXIS_NAME_INTERNAL-3 "Z"
*MEAS_COND_AXIS_NAME_INTERNAL-4 "TwoThetaOmega"
*MEAS_COND_AXIS_NAME_INTERNAL-5 "ThetaS"
*MEAS_COND_AXIS_NAME_INTERNAL-6 "ThetaD"
*MEAS_COND_AXIS_NAME_INTERNAL-7 "Ts"
*MEAS_COND_AXIS_NAME_INTERNAL-8 "CBO"
*MEAS_COND_AXIS_NAME_INTERNAL-9 "CBO-M"
*MEAS_COND_AXIS_NAME_INTERNAL-10 "IncidentSollerSlit"
*MEAS_COND_AXIS_NAME_INTERNAL-11 "IncidentSlitBox"
*MEAS_COND_AXIS_NAME_INTERNAL-12 "IncidentSlitBox-_Axis"
*MEAS_COND_AXIS_NAME_INTERNAL-13 "Zs"
*MEAS_COND_AXIS_NAME_INTERNAL-14 "IncidentMonochromator"
*MEAS_COND_AXIS_NAME_INTERNAL-15 "IncidentAxdSlit"
*MEAS_COND_AXIS_NAME_INTERNAL-16 "CenterSlit"
*MEAS_COND_AXIS_NAME_INTERNAL-17 "Filter"
*MEAS_COND_AXIS_NAME_INTERNAL-18 "ReceivingSlitBox1"
*MEAS_COND_AXIS_NAME_INTERNAL-19 "ReceivingSlitBox2"
*MEAS_COND_AXIS_NAME_INTERNAL-20 "ReceivingOptics"
*MEAS_COND_AXIS_NAME_INTERNAL-21 "ReceivingSollerSlit"
*MEAS_COND_AXIS_NAME_INTERNAL-22 "ReceivingAxdSlit"
*MEAS_COND_AXIS_NAME_INTERNAL-23 "ReceivingSlitBox1-_Axis"
*MEAS_COND_AXIS_NAME_INTERNAL-24 "ReceivingSlitBox2-_Axis"
*MEAS_COND_AXIS_NAME_INTERNAL-25 "ReceivingSlitBox2-Zd"
*MEAS_COND_AXIS_NAME_INTERNAL-26 "Attenuator"
*MEAS_COND_AXIS_NAME_INTERNAL-27 "CounterMonochromator"
*MEAS_COND_AXIS_NAME_INTERNAL-28 "CounterSlit"
*MEAS_COND_AXIS_NAME_INTERNAL-29 "IncidentPrimary"
*MEAS_COND_AXIS_NAME_INTERNAL-30 "PHA"
*MEAS_COND_AXIS_NAME_MAGICNO-0 "83951616.0000000000"
*MEAS_COND_AXIS_NAME_MAGICNO-1 "268632064.0000000000"
*MEAS_COND_AXIS_NAME_MAGICNO-2 "268500992.0000000000"
*MEAS_COND_AXIS_NAME_MAGICNO-3 "285278208.0000000000"
*MEAS_COND_AXIS_NAME_MAGICNO-4 "83951616.0000000000"
*MEAS_COND_AXIS_NAME_MAGICNO-5 "131072.0000000000"
*MEAS_COND_AXIS_NAME_MAGICNO-6 "131072.0000000000"
*MEAS_COND_AXIS_NAME_MAGICNO-7 "318898176.0000000000"
*MEAS_COND_AXIS_NAME_MAGICNO-8 "20971521.0000000000"
*MEAS_COND_AXIS_NAME_MAGICNO-9 "285343744.0000000000"
*MEAS_COND_AXIS_NAME_MAGICNO-10 "20971521.0000000000"
*MEAS_COND_AXIS_NAME_MAGICNO-11 "22020097.0000000000"
*MEAS_COND_AXIS_NAME_MAGICNO-12 "25165824.0000000000"
*MEAS_COND_AXIS_NAME_MAGICNO-13 "318898176.0000000000"
*MEAS_COND_AXIS_NAME_MAGICNO-14 "1.0000000000"
*MEAS_COND_AXIS_NAME_MAGICNO-15 "20971521.0000000000"
*MEAS_COND_AXIS_NAME_MAGICNO-16 "20971521.0000000000"
*MEAS_COND_AXIS_NAME_MAGICNO-17 "20971521.0000000000"
*MEAS_COND_AXIS_NAME_MAGICNO-18 "23068673.0000000000"
*MEAS_COND_AXIS_NAME_MAGICNO-19 "23068673.0000000000"
*MEAS_COND_AXIS_NAME_MAGICNO-20 "20971521.0000000000"
*MEAS_COND_AXIS_NAME_MAGICNO-21 "20971521.0000000000"
*MEAS_COND_AXIS_NAME_MAGICNO-22 "20971521.0000000000"
*MEAS_COND_AXIS_NAME_MAGICNO-23 "25165824.0000000000"
*MEAS_COND_AXIS_NAME_MAGICNO-24 "25165824.0000000000"
*MEAS_COND_AXIS_NAME_MAGICNO-25 "285343744.0000000000"
*MEAS_COND_AXIS_NAME_MAGICNO-26 "17301505.0000000000"
*MEAS_COND_AXIS_NAME_MAGICNO-27 "20971521.0000000000"
*MEAS_COND_AXIS_NAME_MAGICNO-28 "20971521.0000000000"
*MEAS_COND_AXIS_NAME_MAGICNO-29 "20971521.0000000000"
*MEAS_COND_AXIS_NAME_MAGICNO-30 "0.0000000000"
*MEAS_COND_AXIS_OFFSET-0 "-"
*MEAS_COND_AXIS_OFFSET-1 "-0.1081000000"
*MEAS_COND_AXIS_OFFSET-2 "0.3758000000"
*MEAS_COND_AXIS_OFFSET-3 "-"
*MEAS_COND_AXIS_OFFSET-4 "-"
*MEAS_COND_AXIS_OFFSET-5 "0.3758000000"
*MEAS_COND_AXIS_OFFSET-6 "-0.4839000000"
*MEAS_COND_AXIS_OFFSET-7 "-"
*MEAS_COND_AXIS_OFFSET-8 "-"
*MEAS_COND_AXIS_OFFSET-9 "-"
*MEAS_COND_AXIS_OFFSET-10 "-"
*MEAS_COND_AXIS_OFFSET-11 "-"
*MEAS_COND_AXIS_OFFSET-12 "-"
*MEAS_COND_AXIS_OFFSET-13 "-"
*MEAS_COND_AXIS_OFFSET-14 "-"
*MEAS_COND_AXIS_OFFSET-15 "-"
*MEAS_COND_AXIS_OFFSET-16 "-"
*MEAS_COND_AXIS_OFFSET-17 "-"
*MEAS_COND_AXIS_OFFSET-18 "-"
*MEAS_COND_AXIS_OFFSET-19 "-"
*MEAS_COND_AXIS_OFFSET-20 "-"
*MEAS_COND_AXIS_OFFSET-21 "-"
*MEAS_COND_AXIS_OFFSET-22 "-"
*MEAS_COND_AXIS_OFFSET-23 "-"
*MEAS_COND_AXIS_OFFSET-24 "-"
*MEAS_COND_AXIS_OFFSET-25 "-"
*MEAS_COND_AXIS_OFFSET-26 "-"
*MEAS_COND_AXIS_OFFSET-27 "-"
*MEAS_COND_AXIS_OFFSET-28 "-"
*MEAS_COND_AXIS_OFFSET-29 "-"
*MEAS_COND_AXIS_OFFSET-30 "-"
*MEAS_COND_AXIS_POSITION-0 "0.0000000000"
*MEAS_COND_AXIS_POSITION-1 "0.0000000000"
*MEAS_COND_AXIS_POSITION-2 "0.0000000000"
*MEAS_COND_AXIS_POSITION-3 "-0.5500000000"
*MEAS_COND_AXIS_POSITION-4 "0.0000000000"
*MEAS_COND_AXIS_POSITION-5 "0.0000000000"
*MEAS_COND_AXIS_POSITION-6 "0.0000000000"
*MEAS_COND_AXIS_POSITION-7 "-0.4278800000"
*MEAS_COND_AXIS_POSITION-8 "BB"
*MEAS_COND_AXIS_POSITION-9 "0.0000000000"
*MEAS_COND_AXIS_POSITION-10 "Soller_slit_5.0deg"
*MEAS_COND_AXIS_POSITION-11 "2/3deg"
*MEAS_COND_AXIS_POSITION-12 "2.2088000000"
*MEAS_COND_AXIS_POSITION-13 "-0.4140600000"
*MEAS_COND_AXIS_POSITION-14 "0.0000000000"
*MEAS_COND_AXIS_POSITION-15 "10.0mm"
*MEAS_COND_AXIS_POSITION-16 "None"
*MEAS_COND_AXIS_POSITION-17 "Cu_K-beta"
*MEAS_COND_AXIS_POSITION-18 "13.000mm"
*MEAS_COND_AXIS_POSITION-19 "13.000mm"
*MEAS_COND_AXIS_POSITION-20 "No_unit"
*MEAS_COND_AXIS_POSITION-21 "Soller_slit_5.0deg"
*MEAS_COND_AXIS_POSITION-22 "None"
*MEAS_COND_AXIS_POSITION-23 "13.0000000000"
*MEAS_COND_AXIS_POSITION-24 "13.0000000000"
*MEAS_COND_AXIS_POSITION-25 "0.0109400000"
*MEAS_COND_AXIS_POSITION-26 "Open"
*MEAS_COND_AXIS_POSITION-27 "None"
*MEAS_COND_AXIS_POSITION-28 "None"
*MEAS_COND_AXIS_POSITION-29 "None"
*MEAS_COND_AXIS_POSITION-30 "38.0000000000"
*MEAS_COND_AXIS_UNIT-0 "deg"
*MEAS_COND_AXIS_UNIT-1 "deg"
*MEAS_COND_AXIS_UNIT-2 "deg"
*MEAS_COND_AXIS_UNIT-3 "mm"
*MEAS_COND_AXIS_UNIT-4 "deg"
*MEAS_COND_AXIS_UNIT-5 "deg"
*MEAS_COND_AXIS_UNIT-6 "deg"
*MEAS_COND_AXIS_UNIT-7 "mm"
*MEAS_COND_AXIS_UNIT-8 ""
*MEAS_COND_AXIS_UNIT-9 "pulse"
*MEAS_COND_AXIS_UNIT-10 ""
*MEAS_COND_AXIS_UNIT-11 ""
*MEAS_COND_AXIS_UNIT-12 "mm"
*MEAS_COND_AXIS_UNIT-13 "mm"
*MEAS_COND_AXIS_UNIT-14 ""
*MEAS_COND_AXIS_UNIT-15 ""
*MEAS_COND_AXIS_UNIT-16 ""
*MEAS_COND_AXIS_UNIT-17 ""
*MEAS_COND_AXIS_UNIT-18 ""
*MEAS_COND_AXIS_UNIT-19 ""
*MEAS_COND_AXIS_UNIT-20 ""
*MEAS_COND_AXIS_UNIT-21 ""
*MEAS_COND_AXIS_UNIT-22 ""
*MEAS_COND_AXIS_UNIT-23 "mm"
*MEAS_COND_AXIS_UNIT-24 "mm"
*MEAS_COND_AXIS_UNIT-25 "mm"
*MEAS_COND_AXIS_UNIT-26 ""
*MEAS_COND_AXIS_UNIT-27 ""
*MEAS_COND_AXIS_UNIT-28 ""
*MEAS_COND_AXIS_UNIT-29 ""
*MEAS_COND_AXIS_UNIT-30 "div"
*MEAS_COND_COUNTER_CNTLOSS_CORR "0.0000000000"
*MEAS_COND_COUNTER_PHABASE "38.0000000000"
*MEAS_COND_COUNTER_PHAWINDOW "16.0000000000"
*MEAS_COND_COUNTER_PHA_UNIT "div"
*MEAS_COND_COUNTER_TAUDIFF "30.0000000000"
*MEAS_COND_COUNTER_TAUINT "0.0000000000"
*MEAS_COND_IRRADIATION_MODE "OFF"
*MEAS_COND_IRRADIATION_WIDTH ""
*MEAS_COND_OPT_ATTR "集中法"
*MEAS_COND_OPT_NAME "@集中法"
*MEAS_COND_UNSYMMETRIC_MODE "OFF"
*MEAS_COND_XG_CURRENT "30.0000000000"
*MEAS_COND_XG_VOLTAGE "40.0000000000"
*MEAS_COND_XG_WAVE_TYPE "Ka"
*MEAS_DATA_COUNT "5001.0000000000"
*MEAS_SCAN_AXIS_X "2θ/θ"
*MEAS_SCAN_AXIS_X_INTERNAL "TwoThetaTheta"
*MEAS_SCAN_END_TIME "07/28/21 13:15:44"
*MEAS_SCAN_MODE "CONTINUOUS"
*MEAS_SCAN_MONITOR "0"
*MEAS_SCAN_RESOLUTION_X "0.0002"
*MEAS_SCAN_SPEED "2.5"
*MEAS_SCAN_SPEED_UNIT "deg/min"
*MEAS_SCAN_START "20.0000000000"
*MEAS_SCAN_START_TIME "07/28/21 12:54:20"
*MEAS_SCAN_STEP "0.0100000000"
*MEAS_SCAN_STOP "70.0000000000"
*MEAS_SCAN_UNIT_X "deg"
*MEAS_SCAN_UNIT_Y "counts"
*RAS_HEADER_END
*RAS_INT_START
20.0000 632.0000 1.0000
20.0100 598.0000 1.0000
20.0200 627.0000 1.0000
20.0300 634.0000 1.0000
20.0400 616.0000 1.0000
20.0500 609.0000 1.0000
20.0600 632.0000 1.0000
20.0700 633.0000 1.0000
20.0800 596.0000 1.0000
20.0900 660.0000 1.0000
20.1000 613.0000 1.0000
20.1100 648.0000 1.0000
20.1200 629.0000 1.0000
20.1300 642.0000 1.0000
20.1400 673.0000 1.0000
20.1500 652.0000 1.0000
20.1600 651.0000 1.0000
20.1700 660.0000 1.0000
20.1800 611.0000 1.0000
20.1900 669.0000 1.0000
20.2000 665.0000 1.0000
20.2100 619.0000 1.0000
20.2200 677.0000 1.0000
20.2300 649.0000 1.0000
20.2400 635.0000 1.0000
20.2500 627.0000 1.0000
20.2600 605.0000 1.0000
20.2700 658.0000 1.0000
20.2800 585.0000 1.0000
20.2900 584.0000 1.0000
20.3000 630.0000 1.0000
20.3100 645.0000 1.0000
20.3200 653.0000 1.0000
20.3300 630.0000 1.0000
20.3400 605.0000 1.0000
20.3500 604.0000 1.0000
20.3600 626.0000 1.0000
20.3700 590.0000 1.0000
20.3800 601.0000 1.0000
20.3900 597.0000 1.0000
20.4000 668.0000 1.0000
20.4100 610.0000 1.0000
20.4200 607.0000 1.0000
20.4300 638.0000 1.0000
20.4400 658.0000 1.0000
20.4500 657.0000 1.0000
20.4600 642.0000 1.0000
20.4700 668.0000 1.0000
20.4800 677.0000 1.0000
20.4900 659.0000 1.0000
20.5000 654.0000 1.0000
20.5100 671.0000 1.0000
20.5200 586.0000 1.0000
20.5300 619.0000 1.0000
20.5400 643.0000 1.0000
20.5500 600.0000 1.0000
20.5600 578.0000 1.0000
20.5700 611.0000 1.0000
20.5800 641.0000 1.0000
20.5900 621.0000 1.0000
20.6000 634.0000 1.0000
20.6100 616.0000 1.0000
20.6200 646.0000 1.0000
20.6300 610.0000 1.0000
20.6400 627.0000 1.0000
20.6500 641.0000 1.0000
20.6600 649.0000 1.0000
20.6700 660.0000 1.0000
20.6800 638.0000 1.0000
20.6900 646.0000 1.0000
20.7000 608.0000 1.0000
20.7100 633.0000 1.0000
20.7200 636.0000 1.0000
20.7300 589.0000 1.0000
20.7400 647.0000 1.0000
20.7500 655.0000 1.0000
20.7600 615.0000 1.0000
20.7700 595.0000 1.0000
20.7800 661.0000 1.0000
20.7900 605.0000 1.0000
20.8000 621.0000 1.0000
20.8100 631.0000 1.0000
20.8200 655.0000 1.0000
20.8300 645.0000 1.0000
20.8400 640.0000 1.0000
20.8500 617.0000 1.0000
20.8600 613.0000 1.0000
20.8700 617.0000 1.0000
20.8800 637.0000 1.0000
20.8900 585.0000 1.0000
20.9000 643.0000 1.0000
20.9100 627.0000 1.0000
20.9200 629.0000 1.0000
20.9300 639.0000 1.0000
20.9400 630.0000 1.0000
20.9500 608.0000 1.0000
20.9600 627.0000 1.0000
20.9700 630.0000 1.0000
20.9800 557.0000 1.0000
20.9900 651.0000 1.0000
21.0000 648.0000 1.0000
21.0100 661.0000 1.0000
21.0200 632.0000 1.0000
21.0300 630.0000 1.0000
21.0400 655.0000 1.0000
21.0500 654.0000 1.0000
21.0600 664.0000 1.0000
21.0700 676.0000 1.0000
21.0800 652.0000 1.0000
21.0900 615.0000 1.0000
21.1000 642.0000 1.0000
21.1100 683.0000 1.0000
21.1200 587.0000 1.0000
21.1300 608.0000 1.0000
21.1400 618.0000 1.0000
21.1500 640.0000 1.0000
21.1600 607.0000 1.0000
21.1700 599.0000 1.0000
21.1800 624.0000 1.0000
21.1900 651.0000 1.0000
21.2000 646.0000 1.0000
21.2100 621.0000 1.0000
21.2200 622.0000 1.0000
21.2300 608.0000 1.0000
21.2400 638.0000 1.0000
21.2500 598.0000 1.0000
21.2600 579.0000 1.0000
21.2700 628.0000 1.0000
21.2800 613.0000 1.0000
21.2900 616.0000 1.0000
21.3000 647.0000 1.0000
21.3100 650.0000 1.0000
21.3200 614.0000 1.0000
21.3300 610.0000 1.0000
21.3400 608.0000 1.0000
21.3500 621.0000 1.0000
21.3600 590.0000 1.0000
21.3700 649.0000 1.0000
21.3800 633.0000 1.0000
21.3900 629.0000 1.0000
21.4000 627.0000 1.0000
21.4100 617.0000 1.0000
21.4200 643.0000 1.0000
21.4300 636.0000 1.0000
21.4400 615.0000 1.0000
21.4500 611.0000 1.0000
21.4600 641.0000 1.0000
21.4700 651.0000 1.0000
21.4800 647.0000 1.0000
21.4900 650.0000 1.0000
21.5000 641.0000 1.0000
21.5100 640.0000 1.0000
21.5200 632.0000 1.0000
21.5300 628.0000 1.0000
21.5400 617.0000 1.0000
21.5500 638.0000 1.0000
21.5600 644.0000 1.0000
21.5700 662.0000 1.0000
21.5800 663.0000 1.0000
21.5900 624.0000 1.0000
21.6000 638.0000 1.0000
21.6100 620.0000 1.0000
21.6200 688.0000 1.0000
21.6300 632.0000 1.0000
21.6400 639.0000 1.0000
21.6500 632.0000 1.0000
21.6600 688.0000 1.0000
21.6700 658.0000 1.0000
21.6800 666.0000 1.0000
21.6900 677.0000 1.0000
21.7000 651.0000 1.0000
21.7100 610.0000 1.0000
21.7200 615.0000 1.0000
21.7300 598.0000 1.0000
21.7400 628.0000 1.0000
21.7500 602.0000 1.0000
21.7600 634.0000 1.0000
21.7700 693.0000 1.0000
21.7800 645.0000 1.0000
21.7900 646.0000 1.0000
21.8000 647.0000 1.0000
21.8100 631.0000 1.0000
21.8200 662.0000 1.0000
21.8300 677.0000 1.0000
21.8400 616.0000 1.0000
21.8500 637.0000 1.0000
21.8600 633.0000 1.0000
21.8700 635.0000 1.0000
21.8800 634.0000 1.0000
21.8900 605.0000 1.0000
21.9000 620.0000 1.0000
21.9100 661.0000 1.0000
21.9200 671.0000 1.0000
21.9300 638.0000 1.0000
21.9400 681.0000 1.0000
21.9500 698.0000 1.0000
21.9600 594.0000 1.0000
21.9700 641.0000 1.0000
21.9800 651.0000 1.0000
21.9900 627.0000 1.0000
22.0000 621.0000 1.0000
22.0100 652.0000 1.0000
22.0200 610.0000 1.0000
22.0300 625.0000 1.0000
22.0400 623.0000 1.0000
22.0500 621.0000 1.0000
22.0600 629.0000 1.0000
22.0700 666.0000 1.0000
22.0800 645.0000 1.0000
22.0900 645.0000 1.0000
22.1000 628.0000 1.0000
22.1100 645.0000 1.0000
22.1200 640.0000 1.0000
22.1300 653.0000 1.0000
22.1400 651.0000 1.0000
22.1500 641.0000 1.0000
22.1600 627.0000 1.0000
22.1700 628.0000 1.0000
22.1800 593.0000 1.0000
22.1900 629.0000 1.0000
22.2000 674.0000 1.0000
22.2100 656.0000 1.0000
22.2200 643.0000 1.0000
22.2300 671.0000 1.0000
22.2400 647.0000 1.0000
22.2500 651.0000 1.0000
22.2600 646.0000 1.0000
22.2700 635.0000 1.0000
22.2800 645.0000 1.0000
22.2900 654.0000 1.0000
22.3000 657.0000 1.0000
22.3100 629.0000 1.0000
22.3200 605.0000 1.0000
22.3300 638.0000 1.0000
22.3400 621.0000 1.0000
22.3500 649.0000 1.0000
22.3600 652.0000 1.0000
22.3700 655.0000 1.0000
22.3800 666.0000 1.0000
22.3900 638.0000 1.0000
22.4000 612.0000 1.0000
22.4100 630.0000 1.0000
22.4200 643.0000 1.0000
22.4300 622.0000 1.0000
22.4400 683.0000 1.0000
22.4500 648.0000 1.0000
22.4600 636.0000 1.0000
22.4700 652.0000 1.0000
22.4800 606.0000 1.0000
22.4900 579.0000 1.0000
22.5000 642.0000 1.0000
22.5100 624.0000 1.0000
22.5200 604.0000 1.0000
22.5300 657.0000 1.0000
22.5400 643.0000 1.0000
22.5500 644.0000 1.0000
22.5600 627.0000 1.0000
22.5700 609.0000 1.0000
22.5800 620.0000 1.0000
22.5900 650.0000 1.0000
22.6000 632.0000 1.0000
22.6100 652.0000 1.0000
22.6200 678.0000 1.0000
22.6300 676.0000 1.0000
22.6400 593.0000 1.0000
22.6500 667.0000 1.0000
22.6600 643.0000 1.0000
22.6700 655.0000 1.0000
22.6800 643.0000 1.0000
22.6900 664.0000 1.0000
22.7000 687.0000 1.0000
22.7100 674.0000 1.0000
22.7200 649.0000 1.0000
22.7300 679.0000 1.0000
22.7400 674.0000 1.0000
22.7500 674.0000 1.0000
22.7600 648.0000 1.0000
22.7700 677.0000 1.0000
22.7800 628.0000 1.0000
22.7900 694.0000 1.0000
22.8000 655.0000 1.0000
22.8100 677.0000 1.0000
22.8200 654.0000 1.0000
22.8300 660.0000 1.0000
22.8400 653.0000 1.0000
22.8500 617.0000 1.0000
22.8600 615.0000 1.0000
22.8700 626.0000 1.0000
22.8800 669.0000 1.0000
22.8900 640.0000 1.0000
22.9000 676.0000 1.0000
22.9100 645.0000 1.0000
22.9200 689.0000 1.0000
22.9300 665.0000 1.0000
22.9400 625.0000 1.0000
22.9500 660.0000 1.0000
22.9600 650.0000 1.0000
22.9700 605.0000 1.0000
22.9800 662.0000 1.0000
22.9900 696.0000 1.0000
23.0000 682.0000 1.0000
23.0100 628.0000 1.0000
23.0200 660.0000 1.0000
23.0300 649.0000 1.0000
23.0400 669.0000 1.0000
23.0500 643.0000 1.0000
23.0600 657.0000 1.0000
23.0700 650.0000 1.0000
23.0800 623.0000 1.0000
23.0900 635.0000 1.0000
23.1000 647.0000 1.0000
23.1100 642.0000 1.0000
23.1200 673.0000 1.0000
23.1300 640.0000 1.0000
23.1400 623.0000 1.0000
23.1500 660.0000 1.0000
23.1600 643.0000 1.0000
23.1700 612.0000 1.0000
23.1800 678.0000 1.0000
23.1900 634.0000 1.0000
23.2000 627.0000 1.0000
23.2100 703.0000 1.0000
23.2200 658.0000 1.0000
23.2300 657.0000 1.0000
23.2400 678.0000 1.0000
23.2500 642.0000 1.0000
23.2600 651.0000 1.0000
23.2700 678.0000 1.0000
23.2800 632.0000 1.0000
23.2900 661.0000 1.0000
23.3000 633.0000 1.0000
23.3100 678.0000 1.0000
23.3200 656.0000 1.0000
23.3300 658.0000 1.0000
23.3400 660.0000 1.0000
23.3500 635.0000 1.0000
23.3600 683.0000 1.0000
23.3700 709.0000 1.0000
23.3800 680.0000 1.0000
23.3900 653.0000 1.0000
23.4000 620.0000 1.0000
23.4100 625.0000 1.0000
23.4200 659.0000 1.0000
23.4300 685.0000 1.0000
23.4400 699.0000 1.0000
23.4500 677.0000 1.0000
23.4600 686.0000 1.0000
23.4700 655.0000 1.0000
23.4800 624.0000 1.0000
23.4900 649.0000 1.0000
23.5000 665.0000 1.0000
23.5100 654.0000 1.0000
23.5200 668.0000 1.0000
23.5300 668.0000 1.0000
23.5400 666.0000 1.0000
23.5500 650.0000 1.0000
23.5600 660.0000 1.0000
23.5700 651.0000 1.0000
23.5800 668.0000 1.0000
23.5900 657.0000 1.0000
23.6000 661.0000 1.0000
23.6100 665.0000 1.0000
23.6200 626.0000 1.0000
23.6300 644.0000 1.0000
23.6400 663.0000 1.0000
23.6500 642.0000 1.0000
23.6600 635.0000 1.0000
23.6700 644.0000 1.0000
23.6800 685.0000 1.0000
23.6900 612.0000 1.0000
23.7000 663.0000 1.0000
23.7100 679.0000 1.0000
23.7200 706.0000 1.0000
23.7300 684.0000 1.0000
23.7400 662.0000 1.0000
23.7500 660.0000 1.0000
23.7600 658.0000 1.0000
23.7700 623.0000 1.0000
23.7800 642.0000 1.0000
23.7900 672.0000 1.0000
23.8000 667.0000 1.0000
23.8100 626.0000 1.0000
23.8200 674.0000 1.0000
23.8300 635.0000 1.0000
23.8400 660.0000 1.0000
23.8500 637.0000 1.0000
23.8600 661.0000 1.0000
23.8700 620.0000 1.0000
23.8800 679.0000 1.0000
23.8900 640.0000 1.0000
23.9000 654.0000 1.0000
23.9100 648.0000 1.0000
23.9200 645.0000 1.0000
23.9300 679.0000 1.0000
23.9400 674.0000 1.0000
23.9500 659.0000 1.0000
23.9600 633.0000 1.0000
23.9700 677.0000 1.0000
23.9800 696.0000 1.0000
23.9900 663.0000 1.0000
24.0000 631.0000 1.0000
24.0100 660.0000 1.0000
24.0200 648.0000 1.0000
24.0300 663.0000 1.0000
24.0400 643.0000 1.0000
24.0500 663.0000 1.0000
24.0600 654.0000 1.0000
24.0700 614.0000 1.0000
24.0800 572.0000 1.0000
24.0900 642.0000 1.0000
24.1000 625.0000 1.0000
24.1100 602.0000 1.0000
24.1200 664.0000 1.0000
24.1300 675.0000 1.0000
24.1400 701.0000 1.0000
24.1500 649.0000 1.0000
24.1600 668.0000 1.0000
24.1700 695.0000 1.0000
24.1800 658.0000 1.0000
24.1900 677.0000 1.0000
24.2000 696.0000 1.0000
24.2100 683.0000 1.0000
24.2200 671.0000 1.0000
24.2300 624.0000 1.0000
24.2400 656.0000 1.0000
24.2500 674.0000 1.0000
24.2600 685.0000 1.0000
24.2700 677.0000 1.0000
24.2800 667.0000 1.0000
24.2900 667.0000 1.0000
24.3000 628.0000 1.0000
24.3100 654.0000 1.0000
24.3200 676.0000 1.0000
24.3300 648.0000 1.0000
24.3400 651.0000 1.0000
24.3500 658.0000 1.0000
24.3600 692.0000 1.0000
24.3700 594.0000 1.0000
24.3800 630.0000 1.0000
24.3900 668.0000 1.0000
24.4000 640.0000 1.0000
24.4100 712.0000 1.0000
24.4200 664.0000 1.0000
24.4300 715.0000 1.0000
24.4400 701.0000 1.0000
24.4500 693.0000 1.0000
24.4600 665.0000 1.0000
24.4700 659.0000 1.0000
24.4800 656.0000 1.0000
24.4900 664.0000 1.0000
24.5000 666.0000 1.0000
24.5100 648.0000 1.0000
24.5200 626.0000 1.0000
24.5300 636.0000 1.0000
24.5400 685.0000 1.0000
24.5500 637.0000 1.0000
24.5600 644.0000 1.0000
24.5700 669.0000 1.0000
24.5800 642.0000 1.0000
24.5900 616.0000 1.0000
24.6000 643.0000 1.0000
24.6100 670.0000 1.0000
24.6200 681.0000 1.0000
24.6300 637.0000 1.0000
24.6400 691.0000 1.0000
24.6500 683.0000 1.0000
24.6600 701.0000 1.0000
24.6700 718.0000 1.0000
24.6800 690.0000 1.0000
24.6900 650.0000 1.0000
24.7000 631.0000 1.0000
24.7100 695.0000 1.0000
24.7200 708.0000 1.0000
24.7300 699.0000 1.0000
24.7400 680.0000 1.0000
24.7500 673.0000 1.0000
24.7600 676.0000 1.0000
24.7700 649.0000 1.0000
24.7800 639.0000 1.0000
24.7900 646.0000 1.0000
24.8000 716.0000 1.0000
24.8100 681.0000 1.0000
24.8200 662.0000 1.0000
24.8300 702.0000 1.0000
24.8400 681.0000 1.0000
24.8500 719.0000 1.0000
24.8600 699.0000 1.0000
24.8700 671.0000 1.0000
24.8800 654.0000 1.0000
24.8900 704.0000 1.0000
24.9000 699.0000 1.0000
24.9100 687.0000 1.0000
24.9200 722.0000 1.0000
24.9300 692.0000 1.0000
24.9400 717.0000 1.0000
24.9500 649.0000 1.0000
24.9600 701.0000 1.0000
24.9700 670.0000 1.0000
24.9800 724.0000 1.0000
24.9900 724.0000 1.0000
25.0000 709.0000 1.0000
25.0100 687.0000 1.0000
25.0200 708.0000 1.0000
25.0300 733.0000 1.0000
25.0400 676.0000 1.0000
25.0500 682.0000 1.0000
25.0600 731.0000 1.0000
25.0700 717.0000 1.0000
25.0800 730.0000 1.0000
25.0900 741.0000 1.0000
25.1000 690.0000 1.0000
25.1100 685.0000 1.0000
25.1200 721.0000 1.0000
25.1300 729.0000 1.0000
25.1400 701.0000 1.0000
25.1500 668.0000 1.0000
25.1600 718.0000 1.0000
25.1700 686.0000 1.0000
25.1800 681.0000 1.0000
25.1900 672.0000 1.0000
25.2000 711.0000 1.0000
25.2100 667.0000 1.0000
25.2200 679.0000 1.0000
25.2300 711.0000 1.0000
25.2400 662.0000 1.0000
25.2500 712.0000 1.0000
25.2600 689.0000 1.0000
25.2700 713.0000 1.0000
25.2800 693.0000 1.0000
25.2900 667.0000 1.0000
25.3000 669.0000 1.0000
25.3100 648.0000 1.0000
25.3200 697.0000 1.0000
25.3300 672.0000 1.0000
25.3400 723.0000 1.0000
25.3500 701.0000 1.0000
25.3600 651.0000 1.0000
25.3700 723.0000 1.0000
25.3800 693.0000 1.0000
25.3900 709.0000 1.0000
25.4000 705.0000 1.0000
25.4100 659.0000 1.0000
25.4200 658.0000 1.0000
25.4300 650.0000 1.0000
25.4400 678.0000 1.0000
25.4500 724.0000 1.0000
25.4600 732.0000 1.0000
25.4700 685.0000 1.0000
25.4800 668.0000 1.0000
25.4900 624.0000 1.0000
25.5000 655.0000 1.0000
25.5100 682.0000 1.0000
25.5200 690.0000 1.0000
25.5300 669.0000 1.0000
25.5400 657.0000 1.0000
25.5500 633.0000 1.0000
25.5600 662.0000 1.0000
25.5700 675.0000 1.0000
25.5800 677.0000 1.0000
25.5900 704.0000 1.0000
25.6000 701.0000 1.0000
25.6100 688.0000 1.0000
25.6200 668.0000 1.0000
25.6300 659.0000 1.0000
25.6400 673.0000 1.0000
25.6500 689.0000 1.0000
25.6600 708.0000 1.0000
25.6700 675.0000 1.0000
25.6800 655.0000 1.0000
25.6900 656.0000 1.0000
25.7000 659.0000 1.0000
25.7100 695.0000 1.0000
25.7200 679.0000 1.0000
25.7300 692.0000 1.0000
25.7400 666.0000 1.0000
25.7500 662.0000 1.0000
25.7600 653.0000 1.0000
25.7700 680.0000 1.0000
25.7800 703.0000 1.0000
25.7900 717.0000 1.0000
25.8000 718.0000 1.0000
25.8100 698.0000 1.0000
25.8200 656.0000 1.0000
25.8300 638.0000 1.0000
25.8400 702.0000 1.0000
25.8500 667.0000 1.0000
25.8600 671.0000 1.0000
25.8700 691.0000 1.0000
25.8800 664.0000 1.0000
25.8900 666.0000 1.0000
25.9000 695.0000 1.0000
25.9100 668.0000 1.0000
25.9200 648.0000 1.0000
25.9300 686.0000 1.0000
25.9400 720.0000 1.0000
25.9500 692.0000 1.0000
25.9600 681.0000 1.0000
25.9700 680.0000 1.0000
25.9800 711.0000 1.0000
25.9900 687.0000 1.0000
26.0000 668.0000 1.0000
26.0100 683.0000 1.0000
26.0200 659.0000 1.0000
26.0300 691.0000 1.0000
26.0400 667.0000 1.0000
26.0500 653.0000 1.0000
26.0600 672.0000 1.0000
26.0700 689.0000 1.0000
26.0800 690.0000 1.0000
26.0900 687.0000 1.0000
26.1000 681.0000 1.0000
26.1100 710.0000 1.0000
26.1200 642.0000 1.0000
26.1300 649.0000 1.0000
26.1400 703.0000 1.0000
26.1500 682.0000 1.0000
26.1600 691.0000 1.0000
26.1700 685.0000 1.0000
26.1800 706.0000 1.0000
26.1900 690.0000 1.0000
26.2000 709.0000 1.0000
26.2100 689.0000 1.0000
26.2200 631.0000 1.0000
26.2300 690.0000 1.0000
26.2400 723.0000 1.0000
26.2500 671.0000 1.0000
26.2600 672.0000 1.0000
26.2700 725.0000 1.0000
26.2800 719.0000 1.0000
26.2900 687.0000 1.0000
26.3000 664.0000 1.0000
26.3100 664.0000 1.0000
26.3200 665.0000 1.0000
26.3300 678.0000 1.0000
26.3400 645.0000 1.0000
26.3500 688.0000 1.0000
26.3600 691.0000 1.0000
26.3700 752.0000 1.0000
26.3800 734.0000 1.0000
26.3900 673.0000 1.0000
26.4000 724.0000 1.0000
26.4100 679.0000 1.0000
26.4200 699.0000 1.0000
26.4300 740.0000 1.0000
26.4400 722.0000 1.0000
26.4500 689.0000 1.0000
26.4600 709.0000 1.0000
26.4700 695.0000 1.0000
26.4800 699.0000 1.0000
26.4900 726.0000 1.0000
26.5000 712.0000 1.0000
26.5100 716.0000 1.0000
26.5200 709.0000 1.0000
26.5300 723.0000 1.0000
26.5400 699.0000 1.0000
26.5500 774.0000 1.0000
26.5600 717.0000 1.0000
26.5700 703.0000 1.0000
26.5800 732.0000 1.0000
26.5900 672.0000 1.0000
26.6000 671.0000 1.0000
26.6100 691.0000 1.0000
26.6200 755.0000 1.0000
26.6300 731.0000 1.0000
26.6400 759.0000 1.0000
26.6500 759.0000 1.0000
26.6600 704.0000 1.0000
26.6700 715.0000 1.0000
26.6800 699.0000 1.0000
26.6900 722.0000 1.0000
26.7000 776.0000 1.0000
26.7100 695.0000 1.0000
26.7200 738.0000 1.0000
26.7300 716.0000 1.0000
26.7400 719.0000 1.0000
26.7500 727.0000 1.0000
26.7600 742.0000 1.0000
26.7700 736.0000 1.0000
26.7800 754.0000 1.0000
26.7900 727.0000 1.0000
26.8000 726.0000 1.0000
26.8100 778.0000 1.0000
26.8200 761.0000 1.0000
26.8300 793.0000 1.0000
26.8400 742.0000 1.0000
26.8500 777.0000 1.0000
26.8600 780.0000 1.0000
26.8700 788.0000 1.0000
26.8800 797.0000 1.0000
26.8900 819.0000 1.0000
26.9000 801.0000 1.0000
26.9100 761.0000 1.0000
26.9200 774.0000 1.0000
26.9300 774.0000 1.0000
26.9400 764.0000 1.0000
26.9500 813.0000 1.0000
26.9600 863.0000 1.0000
26.9700 834.0000 1.0000
26.9800 842.0000 1.0000
26.9900 832.0000 1.0000
27.0000 883.0000 1.0000
27.0100 917.0000 1.0000
27.0200 896.0000 1.0000
27.0300 907.0000 1.0000
27.0400 956.0000 1.0000
27.0500 929.0000 1.0000
27.0600 954.0000 1.0000
27.0700 985.0000 1.0000
27.0800 1012.0000 1.0000
27.0900 1047.0000 1.0000
27.1000 1066.0000 1.0000
27.1100 1089.0000 1.0000
27.1200 1137.0000 1.0000
27.1300 1073.0000 1.0000
27.1400 1168.0000 1.0000
27.1500 1247.0000 1.0000
27.1600 1299.0000 1.0000
27.1700 1328.0000 1.0000
27.1800 1329.0000 1.0000
27.1900 1444.0000 1.0000
27.2000 1536.0000 1.0000
27.2100 1642.0000 1.0000
27.2200 1724.0000 1.0000
27.2300 1840.0000 1.0000
27.2400 1899.0000 1.0000
27.2500 1915.0000 1.0000
27.2600 2020.0000 1.0000
27.2700 2158.0000 1.0000
27.2800 2218.0000 1.0000
27.2900 2341.0000 1.0000
27.3000 2418.0000 1.0000
27.3100 2517.0000 1.0000
27.3200 2524.0000 1.0000
27.3300 2583.0000 1.0000
27.3400 2595.0000 1.0000
27.3500 2684.0000 1.0000
27.3600 2611.0000 1.0000
27.3700 2568.0000 1.0000
27.3800 2514.0000 1.0000
27.3900 2342.0000 1.0000
27.4000 2233.0000 1.0000
27.4100 2169.0000 1.0000
27.4200 2082.0000 1.0000
27.4300 2063.0000 1.0000
27.4400 1960.0000 1.0000
27.4500 1787.0000 1.0000
27.4600 1687.0000 1.0000
27.4700 1679.0000 1.0000
27.4800 1565.0000 1.0000
27.4900 1512.0000 1.0000
27.5000 1410.0000 1.0000
27.5100 1402.0000 1.0000
27.5200 1295.0000 1.0000
27.5300 1300.0000 1.0000
27.5400 1264.0000 1.0000
27.5500 1160.0000 1.0000
27.5600 1131.0000 1.0000
27.5700 1117.0000 1.0000
27.5800 1018.0000 1.0000
27.5900 1064.0000 1.0000
27.6000 1010.0000 1.0000
27.6100 947.0000 1.0000
27.6200 976.0000 1.0000
27.6300 965.0000 1.0000
27.6400 934.0000 1.0000
27.6500 899.0000 1.0000
27.6600 927.0000 1.0000
27.6700 909.0000 1.0000
27.6800 898.0000 1.0000
27.6900 840.0000 1.0000
27.7000 821.0000 1.0000
27.7100 857.0000 1.0000
27.7200 838.0000 1.0000
27.7300 804.0000 1.0000
27.7400 756.0000 1.0000
27.7500 763.0000 1.0000
27.7600 803.0000 1.0000
27.7700 815.0000 1.0000
27.7800 756.0000 1.0000
27.7900 761.0000 1.0000
27.8000 741.0000 1.0000
27.8100 756.0000 1.0000
27.8200 798.0000 1.0000
27.8300 739.0000 1.0000
27.8400 759.0000 1.0000
27.8500 726.0000 1.0000
27.8600 761.0000 1.0000
27.8700 715.0000 1.0000
27.8800 703.0000 1.0000
27.8900 706.0000 1.0000
27.9000 701.0000 1.0000
27.9100 704.0000 1.0000
27.9200 700.0000 1.0000
27.9300 696.0000 1.0000
27.9400 698.0000 1.0000
27.9500 710.0000 1.0000
27.9600 743.0000 1.0000
27.9700 714.0000 1.0000
27.9800 705.0000 1.0000
27.9900 695.0000 1.0000
28.0000 687.0000 1.0000
28.0100 665.0000 1.0000
28.0200 694.0000 1.0000
28.0300 740.0000 1.0000
28.0400 735.0000 1.0000
28.0500 700.0000 1.0000
28.0600 686.0000 1.0000
28.0700 647.0000 1.0000
28.0800 680.0000 1.0000
28.0900 692.0000 1.0000
28.1000 675.0000 1.0000
28.1100 653.0000 1.0000
28.1200 669.0000 1.0000
28.1300 672.0000 1.0000
28.1400 664.0000 1.0000
28.1500 685.0000 1.0000
28.1600 666.0000 1.0000
28.1700 666.0000 1.0000
28.1800 651.0000 1.0000
28.1900 640.0000 1.0000
28.2000 654.0000 1.0000
28.2100 655.0000 1.0000
28.2200 680.0000 1.0000
28.2300 662.0000 1.0000
28.2400 664.0000 1.0000
28.2500 641.0000 1.0000
28.2600 645.0000 1.0000
28.2700 652.0000 1.0000
28.2800 634.0000 1.0000
28.2900 654.0000 1.0000
28.3000 675.0000 1.0000
28.3100 675.0000 1.0000
28.3200 673.0000 1.0000
28.3300 683.0000 1.0000
28.3400 659.0000 1.0000
28.3500 666.0000 1.0000
28.3600 676.0000 1.0000
28.3700 634.0000 1.0000
28.3800 666.0000 1.0000
28.3900 633.0000 1.0000
28.4000 633.0000 1.0000
28.4100 626.0000 1.0000
28.4200 625.0000 1.0000
28.4300 676.0000 1.0000
28.4400 668.0000 1.0000
28.4500 645.0000 1.0000
28.4600 638.0000 1.0000
28.4700 634.0000 1.0000
28.4800 661.0000 1.0000
28.4900 676.0000 1.0000
28.5000 671.0000 1.0000
28.5100 669.0000 1.0000
28.5200 675.0000 1.0000
28.5300 659.0000 1.0000
28.5400 624.0000 1.0000
28.5500 674.0000 1.0000
28.5600 675.0000 1.0000
28.5700 687.0000 1.0000
28.5800 660.0000 1.0000
28.5900 668.0000 1.0000
28.6000 655.0000 1.0000
28.6100 625.0000 1.0000
28.6200 634.0000 1.0000
28.6300 640.0000 1.0000
28.6400 657.0000 1.0000
28.6500 629.0000 1.0000
28.6600 620.0000 1.0000
28.6700 669.0000 1.0000
28.6800 611.0000 1.0000
28.6900 637.0000 1.0000
28.7000 675.0000 1.0000
28.7100 673.0000 1.0000
28.7200 622.0000 1.0000
28.7300 613.0000 1.0000
28.7400 607.0000 1.0000
28.7500 629.0000 1.0000
28.7600 634.0000 1.0000
28.7700 648.0000 1.0000
28.7800 662.0000 1.0000
28.7900 603.0000 1.0000
28.8000 612.0000 1.0000
28.8100 606.0000 1.0000
28.8200 643.0000 1.0000
28.8300 622.0000 1.0000
28.8400 630.0000 1.0000
28.8500 627.0000 1.0000
28.8600 630.0000 1.0000
28.8700 675.0000 1.0000
28.8800 641.0000 1.0000
28.8900 622.0000 1.0000
28.9000 592.0000 1.0000
28.9100 576.0000 1.0000
28.9200 602.0000 1.0000
28.9300 639.0000 1.0000
28.9400 610.0000 1.0000
28.9500 638.0000 1.0000
28.9600 633.0000 1.0000
28.9700 633.0000 1.0000
28.9800 684.0000 1.0000
28.9900 605.0000 1.0000
29.0000 600.0000 1.0000
29.0100 638.0000 1.0000
29.0200 638.0000 1.0000
29.0300 617.0000 1.0000
29.0400 648.0000 1.0000
29.0500 622.0000 1.0000
29.0600 626.0000 1.0000
29.0700 665.0000 1.0000
29.0800 628.0000 1.0000
29.0900 577.0000 1.0000
29.1000 622.0000 1.0000
29.1100 626.0000 1.0000
29.1200 625.0000 1.0000
29.1300 651.0000 1.0000
29.1400 617.0000 1.0000
29.1500 649.0000 1.0000
29.1600 640.0000 1.0000
29.1700 613.0000 1.0000
29.1800 633.0000 1.0000
29.1900 610.0000 1.0000
29.2000 653.0000 1.0000
29.2100 636.0000 1.0000
29.2200 611.0000 1.0000
29.2300 622.0000 1.0000
29.2400 589.0000 1.0000
29.2500 631.0000 1.0000
29.2600 643.0000 1.0000
29.2700 606.0000 1.0000
29.2800 638.0000 1.0000
29.2900 624.0000 1.0000
29.3000 640.0000 1.0000
29.3100 657.0000 1.0000
29.3200 622.0000 1.0000
29.3300 614.0000 1.0000
29.3400 623.0000 1.0000
29.3500 600.0000 1.0000
29.3600 613.0000 1.0000
29.3700 637.0000 1.0000
29.3800 624.0000 1.0000
29.3900 626.0000 1.0000
29.4000 620.0000 1.0000
29.4100 628.0000 1.0000
29.4200 561.0000 1.0000
29.4300 626.0000 1.0000
29.4400 643.0000 1.0000
29.4500 618.0000 1.0000
29.4600 649.0000 1.0000
29.4700 653.0000 1.0000
29.4800 622.0000 1.0000
29.4900 632.0000 1.0000
29.5000 659.0000 1.0000
29.5100 635.0000 1.0000
29.5200 646.0000 1.0000
29.5300 585.0000 1.0000
29.5400 611.0000 1.0000
29.5500 587.0000 1.0000
29.5600 634.0000 1.0000
29.5700 601.0000 1.0000
29.5800 640.0000 1.0000
29.5900 587.0000 1.0000
29.6000 605.0000 1.0000
29.6100 615.0000 1.0000
29.6200 604.0000 1.0000
29.6300 582.0000 1.0000
29.6400 608.0000 1.0000
29.6500 633.0000 1.0000
29.6600 632.0000 1.0000
29.6700 615.0000 1.0000
29.6800 600.0000 1.0000
29.6900 636.0000 1.0000
29.7000 641.0000 1.0000
29.7100 631.0000 1.0000
29.7200 633.0000 1.0000
29.7300 590.0000 1.0000
29.7400 623.0000 1.0000
29.7500 632.0000 1.0000
29.7600 609.0000 1.0000
29.7700 610.0000 1.0000
29.7800 615.0000 1.0000
29.7900 622.0000 1.0000
29.8000 624.0000 1.0000
29.8100 566.0000 1.0000
29.8200 587.0000 1.0000
29.8300 621.0000 1.0000
29.8400 579.0000 1.0000
29.8500 604.0000 1.0000
29.8600 592.0000 1.0000
29.8700 609.0000 1.0000
29.8800 591.0000 1.0000
29.8900 564.0000 1.0000
29.9000 633.0000 1.0000
29.9100 626.0000 1.0000
29.9200 598.0000 1.0000
29.9300 588.0000 1.0000
29.9400 606.0000 1.0000
29.9500 572.0000 1.0000
29.9600 588.0000 1.0000
29.9700 614.0000 1.0000
29.9800 614.0000 1.0000
29.9900 631.0000 1.0000
30.0000 596.0000 1.0000
30.0100 610.0000 1.0000
30.0200 585.0000 1.0000
30.0300 586.0000 1.0000
30.0400 597.0000 1.0000
30.0500 559.0000 1.0000
30.0600 590.0000 1.0000
30.0700 613.0000 1.0000
30.0800 596.0000 1.0000
30.0900 596.0000 1.0000
30.1000 579.0000 1.0000
30.1100 558.0000 1.0000
30.1200 604.0000 1.0000
30.1300 624.0000 1.0000
30.1400 609.0000 1.0000
30.1500 577.0000 1.0000
30.1600 584.0000 1.0000
30.1700 611.0000 1.0000
30.1800 602.0000 1.0000
30.1900 571.0000 1.0000
30.2000 587.0000 1.0000
30.2100 603.0000 1.0000
30.2200 631.0000 1.0000
30.2300 598.0000 1.0000
30.2400 592.0000 1.0000
30.2500 628.0000 1.0000
30.2600 610.0000 1.0000
30.2700 561.0000 1.0000
30.2800 578.0000 1.0000
30.2900 605.0000 1.0000
30.3000 568.0000 1.0000
30.3100 602.0000 1.0000
30.3200 568.0000 1.0000
30.3300 582.0000 1.0000
30.3400 629.0000 1.0000
30.3500 602.0000 1.0000
30.3600 584.0000 1.0000
30.3700 591.0000 1.0000
30.3800 582.0000 1.0000
30.3900 590.0000 1.0000
30.4000 587.0000 1.0000
30.4100 570.0000 1.0000
30.4200 600.0000 1.0000
30.4300 566.0000 1.0000
30.4400 627.0000 1.0000
30.4500 586.0000 1.0000
30.4600 581.0000 1.0000
30.4700 579.0000 1.0000
30.4800 627.0000 1.0000
30.4900 558.0000 1.0000
30.5000 574.0000 1.0000
30.5100 552.0000 1.0000
30.5200 587.0000 1.0000
30.5300 593.0000 1.0000
30.5400 572.0000 1.0000
30.5500 589.0000 1.0000
30.5600 603.0000 1.0000
30.5700 553.0000 1.0000
30.5800 599.0000 1.0000
30.5900 571.0000 1.0000
30.6000 564.0000 1.0000
30.6100 583.0000 1.0000
30.6200 597.0000 1.0000
30.6300 567.0000 1.0000
30.6400 626.0000 1.0000
30.6500 593.0000 1.0000
30.6600 600.0000 1.0000
30.6700 586.0000 1.0000
30.6800 555.0000 1.0000
30.6900 608.0000 1.0000
30.7000 584.0000 1.0000
30.7100 546.0000 1.0000
30.7200 620.0000 1.0000
30.7300 578.0000 1.0000
30.7400 572.0000 1.0000
30.7500 542.0000 1.0000
30.7600 605.0000 1.0000
30.7700 596.0000 1.0000
30.7800 580.0000 1.0000
30.7900 562.0000 1.0000
30.8000 564.0000 1.0000
30.8100 533.0000 1.0000
30.8200 606.0000 1.0000
30.8300 583.0000 1.0000
30.8400 603.0000 1.0000
30.8500 623.0000 1.0000
30.8600 569.0000 1.0000
30.8700 563.0000 1.0000
30.8800 598.0000 1.0000
30.8900 568.0000 1.0000
30.9000 591.0000 1.0000
30.9100 583.0000 1.0000
30.9200 549.0000 1.0000
30.9300 567.0000 1.0000
30.9400 577.0000 1.0000
30.9500 579.0000 1.0000
30.9600 547.0000 1.0000
30.9700 579.0000 1.0000
30.9800 595.0000 1.0000
30.9900 557.0000 1.0000
31.0000 578.0000 1.0000
31.0100 564.0000 1.0000
31.0200 587.0000 1.0000
31.0300 572.0000 1.0000
31.0400 559.0000 1.0000
31.0500 592.0000 1.0000
31.0600 586.0000 1.0000
31.0700 602.0000 1.0000
31.0800 584.0000 1.0000
31.0900 597.0000 1.0000
31.1000 582.0000 1.0000
31.1100 593.0000 1.0000
31.1200 610.0000 1.0000
31.1300 610.0000 1.0000
31.1400 582.0000 1.0000
31.1500 617.0000 1.0000
31.1600 556.0000 1.0000
31.1700 576.0000 1.0000
31.1800 565.0000 1.0000
31.1900 569.0000 1.0000
31.2000 577.0000 1.0000
31.2100 578.0000 1.0000
31.2200 571.0000 1.0000
31.2300 574.0000 1.0000
31.2400 567.0000 1.0000
31.2500 593.0000 1.0000
31.2600 586.0000 1.0000
31.2700 594.0000 1.0000
31.2800 543.0000 1.0000
31.2900 634.0000 1.0000
31.3000 574.0000 1.0000
31.3100 613.0000 1.0000
31.3200 581.0000 1.0000
31.3300 566.0000 1.0000
31.3400 556.0000 1.0000
31.3500 565.0000 1.0000
31.3600 551.0000 1.0000
31.3700 571.0000 1.0000
31.3800 547.0000 1.0000
31.3900 551.0000 1.0000
31.4000 557.0000 1.0000
31.4100 532.0000 1.0000
31.4200 542.0000 1.0000
31.4300 526.0000 1.0000
31.4400 576.0000 1.0000
31.4500 537.0000 1.0000
31.4600 564.0000 1.0000
31.4700 558.0000 1.0000
31.4800 532.0000 1.0000
31.4900 563.0000 1.0000
31.5000 562.0000 1.0000
31.5100 575.0000 1.0000
31.5200 542.0000 1.0000
31.5300 559.0000 1.0000
31.5400 532.0000 1.0000
31.5500 539.0000 1.0000
31.5600 554.0000 1.0000
31.5700 543.0000 1.0000
31.5800 534.0000 1.0000
31.5900 568.0000 1.0000
31.6000 569.0000 1.0000
31.6100 573.0000 1.0000
31.6200 599.0000 1.0000
31.6300 591.0000 1.0000
31.6400 584.0000 1.0000
31.6500 562.0000 1.0000
31.6600 551.0000 1.0000
31.6700 554.0000 1.0000
31.6800 526.0000 1.0000
31.6900 564.0000 1.0000
31.7000 539.0000 1.0000
31.7100 550.0000 1.0000
31.7200 549.0000 1.0000
31.7300 563.0000 1.0000
31.7400 571.0000 1.0000
31.7500 544.0000 1.0000
31.7600 575.0000 1.0000
31.7700 567.0000 1.0000
31.7800 556.0000 1.0000
31.7900 593.0000 1.0000
31.8000 561.0000 1.0000
31.8100 537.0000 1.0000
31.8200 576.0000 1.0000
31.8300 529.0000 1.0000
31.8400 526.0000 1.0000
31.8500 561.0000 1.0000
31.8600 569.0000 1.0000
31.8700 557.0000 1.0000
31.8800 565.0000 1.0000
31.8900 573.0000 1.0000
31.9000 552.0000 1.0000
31.9100 522.0000 1.0000
31.9200 528.0000 1.0000
31.9300 552.0000 1.0000
31.9400 556.0000 1.0000
31.9500 524.0000 1.0000
31.9600 554.0000 1.0000
31.9700 524.0000 1.0000
31.9800 586.0000 1.0000
31.9900 572.0000 1.0000
32.0000 575.0000 1.0000
32.0100 584.0000 1.0000
32.0200 557.0000 1.0000
32.0300 549.0000 1.0000
32.0400 574.0000 1.0000
32.0500 570.0000 1.0000
32.0600 576.0000 1.0000
32.0700 549.0000 1.0000
32.0800 529.0000 1.0000
32.0900 600.0000 1.0000
32.1000 574.0000 1.0000
32.1100 592.0000 1.0000
32.1200 559.0000 1.0000
32.1300 539.0000 1.0000
32.1400 547.0000 1.0000
32.1500 576.0000 1.0000
32.1600 566.0000 1.0000
32.1700 540.0000 1.0000
32.1800 542.0000 1.0000
32.1900 588.0000 1.0000
32.2000 577.0000 1.0000
32.2100 530.0000 1.0000
32.2200 591.0000 1.0000
32.2300 585.0000 1.0000
32.2400 564.0000 1.0000
32.2500 559.0000 1.0000
32.2600 572.0000 1.0000
32.2700 587.0000 1.0000
32.2800 559.0000 1.0000
32.2900 568.0000 1.0000
32.3000 573.0000 1.0000
32.3100 549.0000 1.0000
32.3200 535.0000 1.0000
32.3300 533.0000 1.0000
32.3400 579.0000 1.0000
32.3500 572.0000 1.0000
32.3600 529.0000 1.0000
32.3700 536.0000 1.0000
32.3800 539.0000 1.0000
32.3900 519.0000 1.0000
32.4000 587.0000 1.0000
32.4100 555.0000 1.0000
32.4200 571.0000 1.0000
32.4300 531.0000 1.0000
32.4400 516.0000 1.0000
32.4500 534.0000 1.0000
32.4600 564.0000 1.0000
32.4700 583.0000 1.0000
32.4800 526.0000 1.0000
32.4900 567.0000 1.0000
32.5000 536.0000 1.0000
32.5100 547.0000 1.0000
32.5200 540.0000 1.0000
32.5300 582.0000 1.0000
32.5400 516.0000 1.0000
32.5500 544.0000 1.0000
32.5600 575.0000 1.0000
32.5700 564.0000 1.0000
32.5800 553.0000 1.0000
32.5900 550.0000 1.0000
32.6000 570.0000 1.0000
32.6100 541.0000 1.0000
32.6200 569.0000 1.0000
32.6300 526.0000 1.0000
32.6400 539.0000 1.0000
32.6500 548.0000 1.0000
32.6600 537.0000 1.0000
32.6700 572.0000 1.0000
32.6800 544.0000 1.0000
32.6900 573.0000 1.0000
32.7000 528.0000 1.0000
32.7100 548.0000 1.0000
32.7200 526.0000 1.0000
32.7300 534.0000 1.0000
32.7400 533.0000 1.0000
32.7500 522.0000 1.0000
32.7600 551.0000 1.0000
32.7700 544.0000 1.0000
32.7800 533.0000 1.0000
32.7900 488.0000 1.0000
32.8000 518.0000 1.0000
32.8100 519.0000 1.0000
32.8200 558.0000 1.0000
32.8300 534.0000 1.0000
32.8400 555.0000 1.0000
32.8500 548.0000 1.0000
32.8600 573.0000 1.0000
32.8700 540.0000 1.0000
32.8800 566.0000 1.0000
32.8900 523.0000 1.0000
32.9000 554.0000 1.0000
32.9100 550.0000 1.0000
32.9200 538.0000 1.0000
32.9300 571.0000 1.0000
32.9400 492.0000 1.0000
32.9500 542.0000 1.0000
32.9600 540.0000 1.0000
32.9700 530.0000 1.0000
32.9800 529.0000 1.0000
32.9900 550.0000 1.0000
33.0000 539.0000 1.0000
33.0100 536.0000 1.0000
33.0200 513.0000 1.0000
33.0300 512.0000 1.0000
33.0400 542.0000 1.0000
33.0500 512.0000 1.0000
33.0600 512.0000 1.0000
33.0700 575.0000 1.0000
33.0800 538.0000 1.0000
33.0900 551.0000 1.0000
33.1000 524.0000 1.0000
33.1100 528.0000 1.0000
33.1200 574.0000 1.0000
33.1300 530.0000 1.0000
33.1400 528.0000 1.0000
33.1500 555.0000 1.0000
33.1600 501.0000 1.0000
33.1700 553.0000 1.0000
33.1800 529.0000 1.0000
33.1900 598.0000 1.0000
33.2000 523.0000 1.0000
33.2100 527.0000 1.0000
33.2200 520.0000 1.0000
33.2300 500.0000 1.0000
33.2400 553.0000 1.0000
33.2500 530.0000 1.0000
33.2600 527.0000 1.0000
33.2700 516.0000 1.0000
33.2800 513.0000 1.0000
33.2900 507.0000 1.0000
33.3000 536.0000 1.0000
33.3100 552.0000 1.0000
33.3200 517.0000 1.0000
33.3300 520.0000 1.0000
33.3400 525.0000 1.0000
33.3500 528.0000 1.0000
33.3600 515.0000 1.0000
33.3700 520.0000 1.0000
33.3800 514.0000 1.0000
33.3900 504.0000 1.0000
33.4000 545.0000 1.0000
33.4100 527.0000 1.0000
33.4200 523.0000 1.0000
33.4300 563.0000 1.0000
33.4400 542.0000 1.0000
33.4500 542.0000 1.0000
33.4600 522.0000 1.0000
33.4700 545.0000 1.0000
33.4800 543.0000 1.0000
33.4900 535.0000 1.0000
33.5000 583.0000 1.0000
33.5100 553.0000 1.0000
33.5200 544.0000 1.0000
33.5300 549.0000 1.0000
33.5400 559.0000 1.0000
33.5500 488.0000 1.0000
33.5600 484.0000 1.0000
33.5700 506.0000 1.0000
33.5800 534.0000 1.0000
33.5900 497.0000 1.0000
33.6000 528.0000 1.0000
33.6100 552.0000 1.0000
33.6200 538.0000 1.0000
33.6300 553.0000 1.0000
33.6400 554.0000 1.0000
33.6500 547.0000 1.0000
33.6600 543.0000 1.0000
33.6700 500.0000 1.0000
33.6800 532.0000 1.0000
33.6900 528.0000 1.0000
33.7000 523.0000 1.0000
33.7100 563.0000 1.0000
33.7200 510.0000 1.0000
33.7300 517.0000 1.0000
33.7400 513.0000 1.0000
33.7500 560.0000 1.0000
33.7600 561.0000 1.0000
33.7700 536.0000 1.0000
33.7800 568.0000 1.0000
33.7900 550.0000 1.0000
33.8000 509.0000 1.0000
33.8100 537.0000 1.0000
33.8200 569.0000 1.0000
33.8300 583.0000 1.0000
33.8400 544.0000 1.0000
33.8500 541.0000 1.0000
33.8600 594.0000 1.0000
33.8700 585.0000 1.0000
33.8800 594.0000 1.0000
33.8900 566.0000 1.0000
33.9000 567.0000 1.0000
33.9100 593.0000 1.0000
33.9200 618.0000 1.0000
33.9300 602.0000 1.0000
33.9400 615.0000 1.0000
33.9500 595.0000 1.0000
33.9600 564.0000 1.0000
33.9700 620.0000 1.0000
33.9800 597.0000 1.0000
33.9900 632.0000 1.0000
34.0000 624.0000 1.0000
34.0100 610.0000 1.0000
34.0200 589.0000 1.0000
34.0300 597.0000 1.0000
34.0400 596.0000 1.0000
34.0500 581.0000 1.0000
34.0600 610.0000 1.0000
34.0700 592.0000 1.0000
34.0800 639.0000 1.0000
34.0900 618.0000 1.0000
34.1000 576.0000 1.0000
34.1100 639.0000 1.0000
34.1200 597.0000 1.0000
34.1300 596.0000 1.0000
34.1400 601.0000 1.0000
34.1500 580.0000 1.0000
34.1600 548.0000 1.0000
34.1700 592.0000 1.0000
34.1800 599.0000 1.0000
34.1900 594.0000 1.0000
34.2000 615.0000 1.0000
34.2100 610.0000 1.0000
34.2200 651.0000 1.0000
34.2300 626.0000 1.0000
34.2400 621.0000 1.0000
34.2500 649.0000 1.0000
34.2600 634.0000 1.0000
34.2700 647.0000 1.0000
34.2800 674.0000 1.0000
34.2900 651.0000 1.0000
34.3000 681.0000 1.0000
34.3100 693.0000 1.0000
34.3200 714.0000 1.0000
34.3300 721.0000 1.0000
34.3400 735.0000 1.0000
34.3500 739.0000 1.0000
34.3600 762.0000 1.0000
34.3700 795.0000 1.0000
34.3800 785.0000 1.0000
34.3900 825.0000 1.0000
34.4000 836.0000 1.0000
34.4100 942.0000 1.0000
34.4200 921.0000 1.0000
34.4300 994.0000 1.0000
34.4400 1003.0000 1.0000
34.4500 1106.0000 1.0000
34.4600 1080.0000 1.0000
34.4700 1121.0000 1.0000
34.4800 1183.0000 1.0000
34.4900 1175.0000 1.0000
34.5000 1220.0000 1.0000
34.5100 1241.0000 1.0000
34.5200 1294.0000 1.0000
34.5300 1321.0000 1.0000
34.5400 1295.0000 1.0000
34.5500 1371.0000 1.0000
34.5600 1377.0000 1.0000
34.5700 1302.0000 1.0000
34.5800 1329.0000 1.0000
34.5900 1256.0000 1.0000
34.6000 1273.0000 1.0000
34.6100 1294.0000 1.0000
34.6200 1225.0000 1.0000
34.6300 1136.0000 1.0000
34.6400 1146.0000 1.0000
34.6500 1111.0000 1.0000
34.6600 1058.0000 1.0000
34.6700 998.0000 1.0000
34.6800 992.0000 1.0000
34.6900 978.0000 1.0000
34.7000 850.0000 1.0000
34.7100 844.0000 1.0000
34.7200 818.0000 1.0000
34.7300 788.0000 1.0000
34.7400 814.0000 1.0000
34.7500 702.0000 1.0000
34.7600 712.0000 1.0000
34.7700 723.0000 1.0000
34.7800 684.0000 1.0000
34.7900 693.0000 1.0000
34.8000 702.0000 1.0000
34.8100 662.0000 1.0000
34.8200 624.0000 1.0000
34.8300 609.0000 1.0000
34.8400 637.0000 1.0000
34.8500 615.0000 1.0000
34.8600 645.0000 1.0000
34.8700 591.0000 1.0000
34.8800 592.0000 1.0000
34.8900 579.0000 1.0000
34.9000 579.0000 1.0000
34.9100 600.0000 1.0000
34.9200 607.0000 1.0000
34.9300 604.0000 1.0000
34.9400 595.0000 1.0000
34.9500 582.0000 1.0000
34.9600 549.0000 1.0000
34.9700 532.0000 1.0000
34.9800 555.0000 1.0000
34.9900 536.0000 1.0000
35.0000 557.0000 1.0000
35.0100 536.0000 1.0000
35.0200 516.0000 1.0000
35.0300 524.0000 1.0000
35.0400 573.0000 1.0000
35.0500 509.0000 1.0000
35.0600 526.0000 1.0000
35.0700 493.0000 1.0000
35.0800 479.0000 1.0000
35.0900 514.0000 1.0000
35.1000 522.0000 1.0000
35.1100 531.0000 1.0000
35.1200 483.0000 1.0000
35.1300 500.0000 1.0000
35.1400 521.0000 1.0000
35.1500 532.0000 1.0000
35.1600 510.0000 1.0000
35.1700 493.0000 1.0000
35.1800 506.0000 1.0000
35.1900 484.0000 1.0000
35.2000 475.0000 1.0000
35.2100 504.0000 1.0000
35.2200 507.0000 1.0000
35.2300 515.0000 1.0000
35.2400 522.0000 1.0000
35.2500 488.0000 1.0000
35.2600 505.0000 1.0000
35.2700 509.0000 1.0000
35.2800 518.0000 1.0000
35.2900 505.0000 1.0000
35.3000 492.0000 1.0000
35.3100 473.0000 1.0000
35.3200 478.0000 1.0000
35.3300 499.0000 1.0000
35.3400 497.0000 1.0000
35.3500 482.0000 1.0000
35.3600 486.0000 1.0000
35.3700 481.0000 1.0000
35.3800 478.0000 1.0000
35.3900 438.0000 1.0000
35.4000 481.0000 1.0000
35.4100 470.0000 1.0000
35.4200 471.0000 1.0000
35.4300 478.0000 1.0000
35.4400 441.0000 1.0000
35.4500 511.0000 1.0000
35.4600 491.0000 1.0000
35.4700 492.0000 1.0000
35.4800 450.0000 1.0000
35.4900 448.0000 1.0000
35.5000 447.0000 1.0000
35.5100 471.0000 1.0000
35.5200 472.0000 1.0000
35.5300 488.0000 1.0000
35.5400 457.0000 1.0000
35.5500 468.0000 1.0000
35.5600 458.0000 1.0000
35.5700 484.0000 1.0000
35.5800 473.0000 1.0000
35.5900 473.0000 1.0000
35.6000 434.0000 1.0000
35.6100 436.0000 1.0000
35.6200 478.0000 1.0000
35.6300 502.0000 1.0000
35.6400 471.0000 1.0000
35.6500 453.0000 1.0000
35.6600 428.0000 1.0000
35.6700 456.0000 1.0000
35.6800 457.0000 1.0000
35.6900 492.0000 1.0000
35.7000 456.0000 1.0000
35.7100 430.0000 1.0000
35.7200 486.0000 1.0000
35.7300 463.0000 1.0000
35.7400 480.0000 1.0000
35.7500 448.0000 1.0000
35.7600 457.0000 1.0000
35.7700 447.0000 1.0000
35.7800 478.0000 1.0000
35.7900 446.0000 1.0000
35.8000 466.0000 1.0000
35.8100 459.0000 1.0000
35.8200 463.0000 1.0000
35.8300 463.0000 1.0000
35.8400 462.0000 1.0000
35.8500 489.0000 1.0000
35.8600 459.0000 1.0000
35.8700 418.0000 1.0000
35.8800 420.0000 1.0000
35.8900 492.0000 1.0000
35.9000 487.0000 1.0000
35.9100 467.0000 1.0000
35.9200 468.0000 1.0000
35.9300 431.0000 1.0000
35.9400 453.0000 1.0000
35.9500 490.0000 1.0000
35.9600 480.0000 1.0000
35.9700 469.0000 1.0000
35.9800 460.0000 1.0000
35.9900 492.0000 1.0000
36.0000 473.0000 1.0000
36.0100 448.0000 1.0000
36.0200 459.0000 1.0000
36.0300 466.0000 1.0000
36.0400 478.0000 1.0000
36.0500 456.0000 1.0000
36.0600 454.0000 1.0000
36.0700 497.0000 1.0000
36.0800 497.0000 1.0000
36.0900 436.0000 1.0000
36.1000 497.0000 1.0000
36.1100 491.0000 1.0000
36.1200 439.0000 1.0000
36.1300 493.0000 1.0000
36.1400 483.0000 1.0000
36.1500 511.0000 1.0000
36.1600 532.0000 1.0000
36.1700 514.0000 1.0000
36.1800 517.0000 1.0000
36.1900 489.0000 1.0000
36.2000 488.0000 1.0000
36.2100 511.0000 1.0000
36.2200 490.0000 1.0000
36.2300 525.0000 1.0000
36.2400 488.0000 1.0000
36.2500 517.0000 1.0000
36.2600 518.0000 1.0000
36.2700 525.0000 1.0000
36.2800 548.0000 1.0000
36.2900 575.0000 1.0000
36.3000 552.0000 1.0000
36.3100 560.0000 1.0000
36.3200 597.0000 1.0000
36.3300 620.0000 1.0000
36.3400 593.0000 1.0000
36.3500 672.0000 1.0000
36.3600 637.0000 1.0000
36.3700 680.0000 1.0000
36.3800 679.0000 1.0000
36.3900 683.0000 1.0000
36.4000 733.0000 1.0000
36.4100 738.0000 1.0000
36.4200 743.0000 1.0000
36.4300 768.0000 1.0000
36.4400 814.0000 1.0000
36.4500 807.0000 1.0000
36.4600 767.0000 1.0000
36.4700 842.0000 1.0000
36.4800 772.0000 1.0000
36.4900 758.0000 1.0000
36.5000 770.0000 1.0000
36.5100 766.0000 1.0000
36.5200 768.0000 1.0000
36.5300 741.0000 1.0000
36.5400 723.0000 1.0000
36.5500 671.0000 1.0000
36.5600 662.0000 1.0000
36.5700 687.0000 1.0000
36.5800 657.0000 1.0000
36.5900 638.0000 1.0000
36.6000 629.0000 1.0000
36.6100 582.0000 1.0000
36.6200 564.0000 1.0000
36.6300 520.0000 1.0000
36.6400 580.0000 1.0000
36.6500 540.0000 1.0000
36.6600 529.0000 1.0000
36.6700 538.0000 1.0000
36.6800 513.0000 1.0000
36.6900 517.0000 1.0000
36.7000 514.0000 1.0000
36.7100 464.0000 1.0000
36.7200 473.0000 1.0000
36.7300 481.0000 1.0000
36.7400 456.0000 1.0000
36.7500 476.0000 1.0000
36.7600 485.0000 1.0000
36.7700 460.0000 1.0000
36.7800 437.0000 1.0000
36.7900 475.0000 1.0000
36.8000 457.0000 1.0000
36.8100 464.0000 1.0000
36.8200 446.0000 1.0000
36.8300 428.0000 1.0000
36.8400 428.0000 1.0000
36.8500 467.0000 1.0000
36.8600 447.0000 1.0000
36.8700 449.0000 1.0000
36.8800 430.0000 1.0000
36.8900 419.0000 1.0000
36.9000 485.0000 1.0000
36.9100 442.0000 1.0000
36.9200 434.0000 1.0000
36.9300 438.0000 1.0000
36.9400 468.0000 1.0000
36.9500 396.0000 1.0000
36.9600 418.0000 1.0000
36.9700 419.0000 1.0000
36.9800 425.0000 1.0000
36.9900 407.0000 1.0000
37.0000 427.0000 1.0000
37.0100 434.0000 1.0000
37.0200 409.0000 1.0000
37.0300 418.0000 1.0000
37.0400 433.0000 1.0000
37.0500 425.0000 1.0000
37.0600 427.0000 1.0000
37.0700 439.0000 1.0000
37.0800 457.0000 1.0000
37.0900 407.0000 1.0000
37.1000 390.0000 1.0000
37.1100 443.0000 1.0000
37.1200 398.0000 1.0000
37.1300 435.0000 1.0000
37.1400 449.0000 1.0000
37.1500 450.0000 1.0000
37.1600 439.0000 1.0000
37.1700 438.0000 1.0000
37.1800 438.0000 1.0000
37.1900 384.0000 1.0000
37.2000 430.0000 1.0000
37.2100 411.0000 1.0000
37.2200 428.0000 1.0000
37.2300 403.0000 1.0000
37.2400 398.0000 1.0000
37.2500 425.0000 1.0000
37.2600 474.0000 1.0000
37.2700 413.0000 1.0000
37.2800 435.0000 1.0000
37.2900 441.0000 1.0000
37.3000 440.0000 1.0000
37.3100 376.0000 1.0000
37.3200 409.0000 1.0000
37.3300 406.0000 1.0000
37.3400 408.0000 1.0000
37.3500 402.0000 1.0000
37.3600 418.0000 1.0000
37.3700 410.0000 1.0000
37.3800 455.0000 1.0000
37.3900 424.0000 1.0000
37.4000 433.0000 1.0000
37.4100 438.0000 1.0000
37.4200 424.0000 1.0000
37.4300 407.0000 1.0000
37.4400 436.0000 1.0000
37.4500 388.0000 1.0000
37.4600 402.0000 1.0000
37.4700 406.0000 1.0000
37.4800 409.0000 1.0000
37.4900 437.0000 1.0000
37.5000 417.0000 1.0000
37.5100 433.0000 1.0000
37.5200 396.0000 1.0000
37.5300 438.0000 1.0000
37.5400 434.0000 1.0000
37.5500 414.0000 1.0000
37.5600 428.0000 1.0000
37.5700 420.0000 1.0000
37.5800 437.0000 1.0000
37.5900 429.0000 1.0000
37.6000 414.0000 1.0000
37.6100 423.0000 1.0000
37.6200 406.0000 1.0000
37.6300 367.0000 1.0000
37.6400 416.0000 1.0000
37.6500 448.0000 1.0000
37.6600 424.0000 1.0000
37.6700 429.0000 1.0000
37.6800 401.0000 1.0000
37.6900 422.0000 1.0000
37.7000 415.0000 1.0000
37.7100 432.0000 1.0000
37.7200 421.0000 1.0000
37.7300 410.0000 1.0000
37.7400 383.0000 1.0000
37.7500 400.0000 1.0000
37.7600 414.0000 1.0000
37.7700 436.0000 1.0000
37.7800 427.0000 1.0000
37.7900 412.0000 1.0000
37.8000 406.0000 1.0000
37.8100 422.0000 1.0000
37.8200 413.0000 1.0000
37.8300 390.0000 1.0000
37.8400 455.0000 1.0000
37.8500 421.0000 1.0000
37.8600 419.0000 1.0000
37.8700 424.0000 1.0000
37.8800 418.0000 1.0000
37.8900 411.0000 1.0000
37.9000 440.0000 1.0000
37.9100 416.0000 1.0000
37.9200 423.0000 1.0000
37.9300 443.0000 1.0000
37.9400 448.0000 1.0000
37.9500 444.0000 1.0000
37.9600 437.0000 1.0000
37.9700 414.0000 1.0000
37.9800 441.0000 1.0000
37.9900 447.0000 1.0000
38.0000 402.0000 1.0000
38.0100 437.0000 1.0000
38.0200 403.0000 1.0000
38.0300 447.0000 1.0000
38.0400 451.0000 1.0000
38.0500 427.0000 1.0000
38.0600 439.0000 1.0000
38.0700 431.0000 1.0000
38.0800 440.0000 1.0000
38.0900 479.0000 1.0000
38.1000 493.0000 1.0000
38.1100 439.0000 1.0000
38.1200 448.0000 1.0000
38.1300 479.0000 1.0000
38.1400 476.0000 1.0000
38.1500 440.0000 1.0000
38.1600 480.0000 1.0000
38.1700 496.0000 1.0000
38.1800 511.0000 1.0000
38.1900 507.0000 1.0000
38.2000 533.0000 1.0000
38.2100 521.0000 1.0000
38.2200 538.0000 1.0000
38.2300 573.0000 1.0000
38.2400 589.0000 1.0000
38.2500 562.0000 1.0000
38.2600 585.0000 1.0000
38.2700 604.0000 1.0000
38.2800 625.0000 1.0000
38.2900 565.0000 1.0000
38.3000 628.0000 1.0000
38.3100 677.0000 1.0000
38.3200 663.0000 1.0000
38.3300 712.0000 1.0000
38.3400 724.0000 1.0000
38.3500 747.0000 1.0000
38.3600 767.0000 1.0000
38.3700 815.0000 1.0000
38.3800 883.0000 1.0000
38.3900 865.0000 1.0000
38.4000 967.0000 1.0000
38.4100 995.0000 1.0000
38.4200 1053.0000 1.0000
38.4300 1102.0000 1.0000
38.4400 1114.0000 1.0000
38.4500 1242.0000 1.0000
38.4600 1335.0000 1.0000
38.4700 1463.0000 1.0000
38.4800 1510.0000 1.0000
38.4900 1607.0000 1.0000
38.5000 1675.0000 1.0000
38.5100 1772.0000 1.0000
38.5200 1854.0000 1.0000
38.5300 2017.0000 1.0000
38.5400 2093.0000 1.0000
38.5500 2096.0000 1.0000
38.5600 2199.0000 1.0000
38.5700 2214.0000 1.0000
38.5800 2314.0000 1.0000
38.5900 2332.0000 1.0000
38.6000 2288.0000 1.0000
38.6100 2232.0000 1.0000
38.6200 2233.0000 1.0000
38.6300 2229.0000 1.0000
38.6400 2066.0000 1.0000
38.6500 2034.0000 1.0000
38.6600 2044.0000 1.0000
38.6700 1983.0000 1.0000
38.6800 1843.0000 1.0000
38.6900 1786.0000 1.0000
38.7000 1670.0000 1.0000
38.7100 1589.0000 1.0000
38.7200 1552.0000 1.0000
38.7300 1421.0000 1.0000
38.7400 1331.0000 1.0000
38.7500 1204.0000 1.0000
38.7600 1206.0000 1.0000
38.7700 1145.0000 1.0000
38.7800 1033.0000 1.0000
38.7900 996.0000 1.0000
38.8000 943.0000 1.0000
38.8100 905.0000 1.0000
38.8200 841.0000 1.0000
38.8300 769.0000 1.0000
38.8400 753.0000 1.0000
38.8500 704.0000 1.0000
38.8600 707.0000 1.0000
38.8700 640.0000 1.0000
38.8800 620.0000 1.0000
38.8900 579.0000 1.0000
38.9000 596.0000 1.0000
38.9100 563.0000 1.0000
38.9200 551.0000 1.0000
38.9300 523.0000 1.0000
38.9400 534.0000 1.0000
38.9500 520.0000 1.0000
38.9600 464.0000 1.0000
38.9700 499.0000 1.0000
38.9800 478.0000 1.0000
38.9900 460.0000 1.0000
39.0000 499.0000 1.0000
39.0100 469.0000 1.0000
39.0200 484.0000 1.0000
39.0300 455.0000 1.0000
39.0400 458.0000 1.0000
39.0500 470.0000 1.0000
39.0600 422.0000 1.0000
39.0700 418.0000 1.0000
39.0800 430.0000 1.0000
39.0900 432.0000 1.0000
39.1000 450.0000 1.0000
39.1100 406.0000 1.0000
39.1200 446.0000 1.0000
39.1300 430.0000 1.0000
39.1400 418.0000 1.0000
39.1500 425.0000 1.0000
39.1600 405.0000 1.0000
39.1700 409.0000 1.0000
39.1800 423.0000 1.0000
39.1900 424.0000 1.0000
39.2000 416.0000 1.0000
39.2100 403.0000 1.0000
39.2200 414.0000 1.0000
39.2300 395.0000 1.0000
39.2400 389.0000 1.0000
39.2500 416.0000 1.0000
39.2600 397.0000 1.0000
39.2700 390.0000 1.0000
39.2800 341.0000 1.0000
39.2900 368.0000 1.0000
39.3000 411.0000 1.0000
39.3100 393.0000 1.0000
39.3200 396.0000 1.0000
39.3300 377.0000 1.0000
39.3400 365.0000 1.0000
39.3500 412.0000 1.0000
39.3600 415.0000 1.0000
39.3700 394.0000 1.0000
39.3800 397.0000 1.0000
39.3900 386.0000 1.0000
39.4000 371.0000 1.0000
39.4100 424.0000 1.0000
39.4200 394.0000 1.0000
39.4300 348.0000 1.0000
39.4400 404.0000 1.0000
39.4500 406.0000 1.0000
39.4600 362.0000 1.0000
39.4700 388.0000 1.0000
39.4800 376.0000 1.0000
39.4900 420.0000 1.0000
39.5000 436.0000 1.0000
39.5100 390.0000 1.0000
39.5200 420.0000 1.0000
39.5300 390.0000 1.0000
39.5400 419.0000 1.0000
39.5500 395.0000 1.0000
39.5600 404.0000 1.0000
39.5700 399.0000 1.0000
39.5800 377.0000 1.0000
39.5900 413.0000 1.0000
39.6000 420.0000 1.0000
39.6100 407.0000 1.0000
39.6200 404.0000 1.0000
39.6300 404.0000 1.0000
39.6400 427.0000 1.0000
39.6500 427.0000 1.0000
39.6600 391.0000 1.0000
39.6700 419.0000 1.0000
39.6800 395.0000 1.0000
39.6900 451.0000 1.0000
39.7000 382.0000 1.0000
39.7100 401.0000 1.0000
39.7200 385.0000 1.0000
39.7300 414.0000 1.0000
39.7400 407.0000 1.0000
39.7500 392.0000 1.0000
39.7600 417.0000 1.0000
39.7700 413.0000 1.0000
39.7800 421.0000 1.0000
39.7900 402.0000 1.0000
39.8000 414.0000 1.0000
39.8100 371.0000 1.0000
39.8200 384.0000 1.0000
39.8300 411.0000 1.0000
39.8400 360.0000 1.0000
39.8500 383.0000 1.0000
39.8600 390.0000 1.0000
39.8700 404.0000 1.0000
39.8800 353.0000 1.0000
39.8900 375.0000 1.0000
39.9000 394.0000 1.0000
39.9100 379.0000 1.0000
39.9200 386.0000 1.0000
39.9300 375.0000 1.0000
39.9400 376.0000 1.0000
39.9500 388.0000 1.0000
39.9600 407.0000 1.0000
39.9700 345.0000 1.0000
39.9800 387.0000 1.0000
39.9900 374.0000 1.0000
40.0000 397.0000 1.0000
40.0100 364.0000 1.0000
40.0200 344.0000 1.0000
40.0300 337.0000 1.0000
40.0400 358.0000 1.0000
40.0500 382.0000 1.0000
40.0600 382.0000 1.0000
40.0700 391.0000 1.0000
40.0800 352.0000 1.0000
40.0900 359.0000 1.0000
40.1000 356.0000 1.0000
40.1100 403.0000 1.0000
40.1200 383.0000 1.0000
40.1300 379.0000 1.0000
40.1400 367.0000 1.0000
40.1500 369.0000 1.0000
40.1600 366.0000 1.0000
40.1700 378.0000 1.0000
40.1800 356.0000 1.0000
40.1900 396.0000 1.0000
40.2000 393.0000 1.0000
40.2100 380.0000 1.0000
40.2200 380.0000 1.0000
40.2300 364.0000 1.0000
40.2400 341.0000 1.0000
40.2500 330.0000 1.0000
40.2600 372.0000 1.0000
40.2700 377.0000 1.0000
40.2800 357.0000 1.0000
40.2900 345.0000 1.0000
40.3000 361.0000 1.0000
40.3100 351.0000 1.0000
40.3200 355.0000 1.0000
40.3300 368.0000 1.0000
40.3400 352.0000 1.0000
40.3500 382.0000 1.0000
40.3600 366.0000 1.0000
40.3700 347.0000 1.0000
40.3800 348.0000 1.0000
40.3900 351.0000 1.0000
40.4000 347.0000 1.0000
40.4100 379.0000 1.0000
40.4200 339.0000 1.0000
40.4300 350.0000 1.0000
40.4400 340.0000 1.0000
40.4500 359.0000 1.0000
40.4600 333.0000 1.0000
40.4700 356.0000 1.0000
40.4800 358.0000 1.0000
40.4900 352.0000 1.0000
40.5000 340.0000 1.0000
40.5100 367.0000 1.0000
40.5200 347.0000 1.0000
40.5300 344.0000 1.0000
40.5400 365.0000 1.0000
40.5500 354.0000 1.0000
40.5600 351.0000 1.0000
40.5700 355.0000 1.0000
40.5800 327.0000 1.0000
40.5900 347.0000 1.0000
40.6000 354.0000 1.0000
40.6100 371.0000 1.0000
40.6200 331.0000 1.0000
40.6300 316.0000 1.0000
40.6400 400.0000 1.0000
40.6500 346.0000 1.0000
40.6600 338.0000 1.0000
40.6700 334.0000 1.0000
40.6800 350.0000 1.0000
40.6900 371.0000 1.0000
40.7000 376.0000 1.0000
40.7100 356.0000 1.0000
40.7200 356.0000 1.0000
40.7300 356.0000 1.0000
40.7400 345.0000 1.0000
40.7500 343.0000 1.0000
40.7600 362.0000 1.0000
40.7700 365.0000 1.0000
40.7800 315.0000 1.0000
40.7900 358.0000 1.0000
40.8000 356.0000 1.0000
40.8100 352.0000 1.0000
40.8200 362.0000 1.0000
40.8300 340.0000 1.0000
40.8400 365.0000 1.0000
40.8500 357.0000 1.0000
40.8600 342.0000 1.0000
40.8700 341.0000 1.0000
40.8800 348.0000 1.0000
40.8900 337.0000 1.0000
40.9000 364.0000 1.0000
40.9100 365.0000 1.0000
40.9200 339.0000 1.0000
40.9300 328.0000 1.0000
40.9400 358.0000 1.0000
40.9500 365.0000 1.0000
40.9600 346.0000 1.0000
40.9700 364.0000 1.0000
40.9800 367.0000 1.0000
40.9900 357.0000 1.0000
41.0000 359.0000 1.0000
41.0100 362.0000 1.0000
41.0200 338.0000 1.0000
41.0300 350.0000 1.0000
41.0400 323.0000 1.0000
41.0500 348.0000 1.0000
41.0600 337.0000 1.0000
41.0700 335.0000 1.0000
41.0800 345.0000 1.0000
41.0900 346.0000 1.0000
41.1000 330.0000 1.0000
41.1100 316.0000 1.0000
41.1200 344.0000 1.0000
41.1300 350.0000 1.0000
41.1400 348.0000 1.0000
41.1500 333.0000 1.0000
41.1600 344.0000 1.0000
41.1700 333.0000 1.0000
41.1800 361.0000 1.0000
41.1900 354.0000 1.0000
41.2000 325.0000 1.0000
41.2100 366.0000 1.0000
41.2200 357.0000 1.0000
41.2300 375.0000 1.0000
41.2400 359.0000 1.0000
41.2500 332.0000 1.0000
41.2600 359.0000 1.0000
41.2700 380.0000 1.0000
41.2800 366.0000 1.0000
41.2900 353.0000 1.0000
41.3000 359.0000 1.0000
41.3100 333.0000 1.0000
41.3200 330.0000 1.0000
41.3300 349.0000 1.0000
41.3400 332.0000 1.0000
41.3500 351.0000 1.0000
41.3600 355.0000 1.0000
41.3700 371.0000 1.0000
41.3800 337.0000 1.0000
41.3900 336.0000 1.0000
41.4000 353.0000 1.0000
41.4100 361.0000 1.0000
41.4200 330.0000 1.0000
41.4300 348.0000 1.0000
41.4400 382.0000 1.0000
41.4500 359.0000 1.0000
41.4600 370.0000 1.0000
41.4700 344.0000 1.0000
41.4800 371.0000 1.0000
41.4900 352.0000 1.0000
41.5000 384.0000 1.0000
41.5100 346.0000 1.0000
41.5200 345.0000 1.0000
41.5300 361.0000 1.0000
41.5400 385.0000 1.0000
41.5500 366.0000 1.0000
41.5600 328.0000 1.0000
41.5700 361.0000 1.0000
41.5800 350.0000 1.0000
41.5900 330.0000 1.0000
41.6000 346.0000 1.0000
41.6100 337.0000 1.0000
41.6200 334.0000 1.0000
41.6300 332.0000 1.0000
41.6400 347.0000 1.0000
41.6500 368.0000 1.0000
41.6600 312.0000 1.0000
41.6700 323.0000 1.0000
41.6800 360.0000 1.0000
41.6900 345.0000 1.0000
41.7000 354.0000 1.0000
41.7100 335.0000 1.0000
41.7200 377.0000 1.0000
41.7300 352.0000 1.0000
41.7400 360.0000 1.0000
41.7500 330.0000 1.0000
41.7600 338.0000 1.0000
41.7700 355.0000 1.0000
41.7800 350.0000 1.0000
41.7900 351.0000 1.0000
41.8000 363.0000 1.0000
41.8100 360.0000 1.0000
41.8200 372.0000 1.0000
41.8300 339.0000 1.0000
41.8400 350.0000 1.0000
41.8500 364.0000 1.0000
41.8600 358.0000 1.0000
41.8700 348.0000 1.0000
41.8800 345.0000 1.0000
41.8900 374.0000 1.0000
41.9000 326.0000 1.0000
41.9100 349.0000 1.0000
41.9200 362.0000 1.0000
41.9300 360.0000 1.0000
41.9400 367.0000 1.0000
41.9500 366.0000 1.0000
41.9600 369.0000 1.0000
41.9700 345.0000 1.0000
41.9800 346.0000 1.0000
41.9900 351.0000 1.0000
42.0000 328.0000 1.0000
42.0100 364.0000 1.0000
42.0200 334.0000 1.0000
42.0300 354.0000 1.0000
42.0400 334.0000 1.0000
42.0500 343.0000 1.0000
42.0600 333.0000 1.0000
42.0700 355.0000 1.0000
42.0800 361.0000 1.0000
42.0900 312.0000 1.0000
42.1000 306.0000 1.0000
42.1100 345.0000 1.0000
42.1200 333.0000 1.0000
42.1300 335.0000 1.0000
42.1400 370.0000 1.0000
42.1500 369.0000 1.0000
42.1600 340.0000 1.0000
42.1700 332.0000 1.0000
42.1800 354.0000 1.0000
42.1900 331.0000 1.0000
42.2000 344.0000 1.0000
42.2100 348.0000 1.0000
42.2200 345.0000 1.0000
42.2300 343.0000 1.0000
42.2400 337.0000 1.0000
42.2500 378.0000 1.0000
42.2600 349.0000 1.0000
42.2700 303.0000 1.0000
42.2800 356.0000 1.0000
42.2900 354.0000 1.0000
42.3000 356.0000 1.0000
42.3100 367.0000 1.0000
42.3200 348.0000 1.0000
42.3300 343.0000 1.0000
42.3400 344.0000 1.0000
42.3500 326.0000 1.0000
42.3600 338.0000 1.0000
42.3700 320.0000 1.0000
42.3800 361.0000 1.0000
42.3900 340.0000 1.0000
42.4000 301.0000 1.0000
42.4100 325.0000 1.0000
42.4200 355.0000 1.0000
42.4300 356.0000 1.0000
42.4400 366.0000 1.0000
42.4500 338.0000 1.0000
42.4600 332.0000 1.0000
42.4700 329.0000 1.0000
42.4800 317.0000 1.0000
42.4900 338.0000 1.0000
42.5000 333.0000 1.0000
42.5100 348.0000 1.0000
42.5200 330.0000 1.0000
42.5300 330.0000 1.0000
42.5400 338.0000 1.0000
42.5500 352.0000 1.0000
42.5600 368.0000 1.0000
42.5700 362.0000 1.0000
42.5800 344.0000 1.0000
42.5900 361.0000 1.0000
42.6000 320.0000 1.0000
42.6100 346.0000 1.0000
42.6200 323.0000 1.0000
42.6300 348.0000 1.0000
42.6400 355.0000 1.0000
42.6500 348.0000 1.0000
42.6600 332.0000 1.0000
42.6700 338.0000 1.0000
42.6800 369.0000 1.0000
42.6900 351.0000 1.0000
42.7000 375.0000 1.0000
42.7100 357.0000 1.0000
42.7200 349.0000 1.0000
42.7300 335.0000 1.0000
42.7400 355.0000 1.0000
42.7500 335.0000 1.0000
42.7600 330.0000 1.0000
42.7700 351.0000 1.0000
42.7800 342.0000 1.0000
42.7900 338.0000 1.0000
42.8000 354.0000 1.0000
42.8100 361.0000 1.0000
42.8200 356.0000 1.0000
42.8300 330.0000 1.0000
42.8400 356.0000 1.0000
42.8500 337.0000 1.0000
42.8600 331.0000 1.0000
42.8700 351.0000 1.0000
42.8800 350.0000 1.0000
42.8900 339.0000 1.0000
42.9000 360.0000 1.0000
42.9100 351.0000 1.0000
42.9200 358.0000 1.0000
42.9300 355.0000 1.0000
42.9400 317.0000 1.0000
42.9500 327.0000 1.0000
42.9600 357.0000 1.0000
42.9700 362.0000 1.0000
42.9800 369.0000 1.0000
42.9900 343.0000 1.0000
43.0000 370.0000 1.0000
43.0100 355.0000 1.0000
43.0200 329.0000 1.0000
43.0300 345.0000 1.0000
43.0400 349.0000 1.0000
43.0500 332.0000 1.0000
43.0600 354.0000 1.0000
43.0700 318.0000 1.0000
43.0800 338.0000 1.0000
43.0900 372.0000 1.0000
43.1000 356.0000 1.0000
43.1100 323.0000 1.0000
43.1200 343.0000 1.0000
43.1300 342.0000 1.0000
43.1400 343.0000 1.0000
43.1500 324.0000 1.0000
43.1600 361.0000 1.0000
43.1700 383.0000 1.0000
43.1800 380.0000 1.0000
43.1900 371.0000 1.0000
43.2000 356.0000 1.0000
43.2100 395.0000 1.0000
43.2200 383.0000 1.0000
43.2300 353.0000 1.0000
43.2400 361.0000 1.0000
43.2500 358.0000 1.0000
43.2600 358.0000 1.0000
43.2700 372.0000 1.0000
43.2800 365.0000 1.0000
43.2900 380.0000 1.0000
43.3000 386.0000 1.0000
43.3100 393.0000 1.0000
43.3200 366.0000 1.0000
43.3300 349.0000 1.0000
43.3400 379.0000 1.0000
43.3500 386.0000 1.0000
43.3600 406.0000 1.0000
43.3700 390.0000 1.0000
43.3800 345.0000 1.0000
43.3900 355.0000 1.0000
43.4000 377.0000 1.0000
43.4100 367.0000 1.0000
43.4200 371.0000 1.0000
43.4300 353.0000 1.0000
43.4400 334.0000 1.0000
43.4500 351.0000 1.0000
43.4600 365.0000 1.0000
43.4700 300.0000 1.0000
43.4800 348.0000 1.0000
43.4900 320.0000 1.0000
43.5000 320.0000 1.0000
43.5100 378.0000 1.0000
43.5200 338.0000 1.0000
43.5300 325.0000 1.0000
43.5400 373.0000 1.0000
43.5500 353.0000 1.0000
43.5600 329.0000 1.0000
43.5700 337.0000 1.0000
43.5800 356.0000 1.0000
43.5900 311.0000 1.0000
43.6000 325.0000 1.0000
43.6100 294.0000 1.0000
43.6200 338.0000 1.0000
43.6300 365.0000 1.0000
43.6400 322.0000 1.0000
43.6500 315.0000 1.0000
43.6600 356.0000 1.0000
43.6700 336.0000 1.0000
43.6800 325.0000 1.0000
43.6900 317.0000 1.0000
43.7000 338.0000 1.0000
43.7100 370.0000 1.0000
43.7200 370.0000 1.0000
43.7300 336.0000 1.0000
43.7400 335.0000 1.0000
43.7500 352.0000 1.0000
43.7600 299.0000 1.0000
43.7700 327.0000 1.0000
43.7800 318.0000 1.0000
43.7900 328.0000 1.0000
43.8000 353.0000 1.0000
43.8100 329.0000 1.0000
43.8200 329.0000 1.0000
43.8300 339.0000 1.0000
43.8400 344.0000 1.0000
43.8500 337.0000 1.0000
43.8600 345.0000 1.0000
43.8700 326.0000 1.0000
43.8800 326.0000 1.0000
43.8900 368.0000 1.0000
43.9000 356.0000 1.0000
43.9100 341.0000 1.0000
43.9200 334.0000 1.0000
43.9300 345.0000 1.0000
43.9400 324.0000 1.0000
43.9500 301.0000 1.0000
43.9600 346.0000 1.0000
43.9700 323.0000 1.0000
43.9800 334.0000 1.0000
43.9900 307.0000 1.0000
44.0000 358.0000 1.0000
44.0100 331.0000 1.0000
44.0200 307.0000 1.0000
44.0300 306.0000 1.0000
44.0400 332.0000 1.0000
44.0500 343.0000 1.0000
44.0600 358.0000 1.0000
44.0700 354.0000 1.0000
44.0800 354.0000 1.0000
44.0900 345.0000 1.0000
44.1000 332.0000 1.0000
44.1100 359.0000 1.0000
44.1200 348.0000 1.0000
44.1300 327.0000 1.0000
44.1400 334.0000 1.0000
44.1500 336.0000 1.0000
44.1600 333.0000 1.0000
44.1700 299.0000 1.0000
44.1800 333.0000 1.0000
44.1900 334.0000 1.0000
44.2000 349.0000 1.0000
44.2100 313.0000 1.0000
44.2200 335.0000 1.0000
44.2300 331.0000 1.0000
44.2400 359.0000 1.0000
44.2500 347.0000 1.0000
44.2600 368.0000 1.0000
44.2700 361.0000 1.0000
44.2800 343.0000 1.0000
44.2900 352.0000 1.0000
44.3000 357.0000 1.0000
44.3100 305.0000 1.0000
44.3200 331.0000 1.0000
44.3300 362.0000 1.0000
44.3400 324.0000 1.0000
44.3500 341.0000 1.0000
44.3600 359.0000 1.0000
44.3700 343.0000 1.0000
44.3800 347.0000 1.0000
44.3900 349.0000 1.0000
44.4000 358.0000 1.0000
44.4100 333.0000 1.0000
44.4200 352.0000 1.0000
44.4300 364.0000 1.0000
44.4400 330.0000 1.0000
44.4500 329.0000 1.0000
44.4600 332.0000 1.0000
44.4700 344.0000 1.0000
44.4800 324.0000 1.0000
44.4900 354.0000 1.0000
44.5000 331.0000 1.0000
44.5100 333.0000 1.0000
44.5200 330.0000 1.0000
44.5300 327.0000 1.0000
44.5400 327.0000 1.0000
44.5500 311.0000 1.0000
44.5600 341.0000 1.0000
44.5700 341.0000 1.0000
44.5800 336.0000 1.0000
44.5900 351.0000 1.0000
44.6000 345.0000 1.0000
44.6100 338.0000 1.0000
44.6200 328.0000 1.0000
44.6300 324.0000 1.0000
44.6400 325.0000 1.0000
44.6500 344.0000 1.0000
44.6600 329.0000 1.0000
44.6700 332.0000 1.0000
44.6800 346.0000 1.0000
44.6900 311.0000 1.0000
44.7000 307.0000 1.0000
44.7100 356.0000 1.0000
44.7200 332.0000 1.0000
44.7300 344.0000 1.0000
44.7400 333.0000 1.0000
44.7500 342.0000 1.0000
44.7600 328.0000 1.0000
44.7700 324.0000 1.0000
44.7800 315.0000 1.0000
44.7900 343.0000 1.0000
44.8000 358.0000 1.0000
44.8100 343.0000 1.0000
44.8200 343.0000 1.0000
44.8300 358.0000 1.0000
44.8400 340.0000 1.0000
44.8500 332.0000 1.0000
44.8600 289.0000 1.0000
44.8700 306.0000 1.0000
44.8800 344.0000 1.0000
44.8900 359.0000 1.0000
44.9000 321.0000 1.0000
44.9100 330.0000 1.0000
44.9200 315.0000 1.0000
44.9300 312.0000 1.0000
44.9400 307.0000 1.0000
44.9500 341.0000 1.0000
44.9600 338.0000 1.0000
44.9700 357.0000 1.0000
44.9800 320.0000 1.0000
44.9900 306.0000 1.0000
45.0000 328.0000 1.0000
45.0100 320.0000 1.0000
45.0200 351.0000 1.0000
45.0300 341.0000 1.0000
45.0400 332.0000 1.0000
45.0500 324.0000 1.0000
45.0600 322.0000 1.0000
45.0700 312.0000 1.0000
45.0800 309.0000 1.0000
45.0900 332.0000 1.0000
45.1000 303.0000 1.0000
45.1100 313.0000 1.0000
45.1200 293.0000 1.0000
45.1300 335.0000 1.0000
45.1400 362.0000 1.0000
45.1500 341.0000 1.0000
45.1600 320.0000 1.0000
45.1700 326.0000 1.0000
45.1800 349.0000 1.0000
45.1900 321.0000 1.0000
45.2000 308.0000 1.0000
45.2100 345.0000 1.0000
45.2200 342.0000 1.0000
45.2300 335.0000 1.0000
45.2400 318.0000 1.0000
45.2500 333.0000 1.0000
45.2600 332.0000 1.0000
45.2700 324.0000 1.0000
45.2800 347.0000 1.0000
45.2900 325.0000 1.0000
45.3000 326.0000 1.0000
45.3100 340.0000 1.0000
45.3200 317.0000 1.0000
45.3300 332.0000 1.0000
45.3400 284.0000 1.0000
45.3500 312.0000 1.0000
45.3600 291.0000 1.0000
45.3700 305.0000 1.0000
45.3800 308.0000 1.0000
45.3900 308.0000 1.0000
45.4000 321.0000 1.0000
45.4100 322.0000 1.0000
45.4200 335.0000 1.0000
45.4300 329.0000 1.0000
45.4400 328.0000 1.0000
45.4500 325.0000 1.0000
45.4600 316.0000 1.0000
45.4700 321.0000 1.0000
45.4800 365.0000 1.0000
45.4900 301.0000 1.0000
45.5000 298.0000 1.0000
45.5100 298.0000 1.0000
45.5200 344.0000 1.0000
45.5300 330.0000 1.0000
45.5400 337.0000 1.0000
45.5500 317.0000 1.0000
45.5600 344.0000 1.0000
45.5700 336.0000 1.0000
45.5800 326.0000 1.0000
45.5900 311.0000 1.0000
45.6000 291.0000 1.0000
45.6100 323.0000 1.0000
45.6200 307.0000 1.0000
45.6300 327.0000 1.0000
45.6400 322.0000 1.0000
45.6500 331.0000 1.0000
45.6600 341.0000 1.0000
45.6700 327.0000 1.0000
45.6800 333.0000 1.0000
45.6900 318.0000 1.0000
45.7000 338.0000 1.0000
45.7100 312.0000 1.0000
45.7200 335.0000 1.0000
45.7300 330.0000 1.0000
45.7400 336.0000 1.0000
45.7500 323.0000 1.0000
45.7600 298.0000 1.0000
45.7700 308.0000 1.0000
45.7800 320.0000 1.0000
45.7900 319.0000 1.0000
45.8000 327.0000 1.0000
45.8100 309.0000 1.0000
45.8200 319.0000 1.0000
45.8300 327.0000 1.0000
45.8400 331.0000 1.0000
45.8500 316.0000 1.0000
45.8600 329.0000 1.0000
45.8700 332.0000 1.0000
45.8800 313.0000 1.0000
45.8900 316.0000 1.0000
45.9000 339.0000 1.0000
45.9100 302.0000 1.0000
45.9200 322.0000 1.0000
45.9300 335.0000 1.0000
45.9400 327.0000 1.0000
45.9500 345.0000 1.0000
45.9600 326.0000 1.0000
45.9700 336.0000 1.0000
45.9800 344.0000 1.0000
45.9900 335.0000 1.0000
46.0000 313.0000 1.0000
46.0100 307.0000 1.0000
46.0200 338.0000 1.0000
46.0300 319.0000 1.0000
46.0400 308.0000 1.0000
46.0500 299.0000 1.0000
46.0600 303.0000 1.0000
46.0700 334.0000 1.0000
46.0800 330.0000 1.0000
46.0900 325.0000 1.0000
46.1000 300.0000 1.0000
46.1100 292.0000 1.0000
46.1200 343.0000 1.0000
46.1300 324.0000 1.0000
46.1400 323.0000 1.0000
46.1500 314.0000 1.0000
46.1600 336.0000 1.0000
46.1700 333.0000 1.0000
46.1800 336.0000 1.0000
46.1900 291.0000 1.0000
46.2000 304.0000 1.0000
46.2100 300.0000 1.0000
46.2200 311.0000 1.0000
46.2300 322.0000 1.0000
46.2400 331.0000 1.0000
46.2500 329.0000 1.0000
46.2600 306.0000 1.0000
46.2700 318.0000 1.0000
46.2800 310.0000 1.0000
46.2900 304.0000 1.0000
46.3000 323.0000 1.0000
46.3100 318.0000 1.0000
46.3200 322.0000 1.0000
46.3300 312.0000 1.0000
46.3400 319.0000 1.0000
46.3500 325.0000 1.0000
46.3600 319.0000 1.0000
46.3700 317.0000 1.0000
46.3800 310.0000 1.0000
46.3900 306.0000 1.0000
46.4000 305.0000 1.0000
46.4100 313.0000 1.0000
46.4200 319.0000 1.0000
46.4300 302.0000 1.0000
46.4400 298.0000 1.0000
46.4500 317.0000 1.0000
46.4600 320.0000 1.0000
46.4700 322.0000 1.0000
46.4800 337.0000 1.0000
46.4900 314.0000 1.0000
46.5000 337.0000 1.0000
46.5100 332.0000 1.0000
46.5200 312.0000 1.0000
46.5300 296.0000 1.0000
46.5400 322.0000 1.0000
46.5500 333.0000 1.0000
46.5600 309.0000 1.0000
46.5700 313.0000 1.0000
46.5800 288.0000 1.0000
46.5900 303.0000 1.0000
46.6000 314.0000 1.0000
46.6100 336.0000 1.0000
46.6200 348.0000 1.0000
46.6300 337.0000 1.0000
46.6400 323.0000 1.0000
46.6500 313.0000 1.0000
46.6600 314.0000 1.0000
46.6700 292.0000 1.0000
46.6800 301.0000 1.0000
46.6900 325.0000 1.0000
46.7000 308.0000 1.0000
46.7100 304.0000 1.0000
46.7200 295.0000 1.0000
46.7300 311.0000 1.0000
46.7400 288.0000 1.0000
46.7500 304.0000 1.0000
46.7600 299.0000 1.0000
46.7700 342.0000 1.0000
46.7800 326.0000 1.0000
46.7900 313.0000 1.0000
46.8000 287.0000 1.0000
46.8100 308.0000 1.0000
46.8200 304.0000 1.0000
46.8300 302.0000 1.0000
46.8400 327.0000 1.0000
46.8500 306.0000 1.0000
46.8600 284.0000 1.0000
46.8700 336.0000 1.0000
46.8800 333.0000 1.0000
46.8900 314.0000 1.0000
46.9000 305.0000 1.0000
46.9100 306.0000 1.0000
46.9200 289.0000 1.0000
46.9300 332.0000 1.0000
46.9400 325.0000 1.0000
46.9500 335.0000 1.0000
46.9600 323.0000 1.0000
46.9700 327.0000 1.0000
46.9800 321.0000 1.0000
46.9900 325.0000 1.0000
47.0000 332.0000 1.0000
47.0100 326.0000 1.0000
47.0200 340.0000 1.0000
47.0300 321.0000 1.0000
47.0400 316.0000 1.0000
47.0500 329.0000 1.0000
47.0600 320.0000 1.0000
47.0700 298.0000 1.0000
47.0800 316.0000 1.0000
47.0900 310.0000 1.0000
47.1000 318.0000 1.0000
47.1100 327.0000 1.0000
47.1200 314.0000 1.0000
47.1300 304.0000 1.0000
47.1400 328.0000 1.0000
47.1500 307.0000 1.0000
47.1600 313.0000 1.0000
47.1700 327.0000 1.0000
47.1800 317.0000 1.0000
47.1900 333.0000 1.0000
47.2000 329.0000 1.0000
47.2100 318.0000 1.0000
47.2200 320.0000 1.0000
47.2300 318.0000 1.0000
47.2400 326.0000 1.0000
47.2500 326.0000 1.0000
47.2600 336.0000 1.0000
47.2700 314.0000 1.0000
47.2800 297.0000 1.0000
47.2900 287.0000 1.0000
47.3000 287.0000 1.0000
47.3100 317.0000 1.0000
47.3200 316.0000 1.0000
47.3300 291.0000 1.0000
47.3400 297.0000 1.0000
47.3500 301.0000 1.0000
47.3600 292.0000 1.0000
47.3700 299.0000 1.0000
47.3800 311.0000 1.0000
47.3900 312.0000 1.0000
47.4000 320.0000 1.0000
47.4100 322.0000 1.0000
47.4200 320.0000 1.0000
47.4300 326.0000 1.0000
47.4400 292.0000 1.0000
47.4500 310.0000 1.0000
47.4600 318.0000 1.0000
47.4700 297.0000 1.0000
47.4800 294.0000 1.0000
47.4900 328.0000 1.0000
47.5000 311.0000 1.0000
47.5100 321.0000 1.0000
47.5200 293.0000 1.0000
47.5300 300.0000 1.0000
47.5400 334.0000 1.0000
47.5500 308.0000 1.0000
47.5600 312.0000 1.0000
47.5700 327.0000 1.0000
47.5800 325.0000 1.0000
47.5900 314.0000 1.0000
47.6000 295.0000 1.0000
47.6100 297.0000 1.0000
47.6200 282.0000 1.0000
47.6300 321.0000 1.0000
47.6400 320.0000 1.0000
47.6500 315.0000 1.0000
47.6600 307.0000 1.0000
47.6700 318.0000 1.0000
47.6800 289.0000 1.0000
47.6900 277.0000 1.0000
47.7000 316.0000 1.0000
47.7100 285.0000 1.0000
47.7200 311.0000 1.0000
47.7300 300.0000 1.0000
47.7400 303.0000 1.0000
47.7500 276.0000 1.0000
47.7600 300.0000 1.0000
47.7700 301.0000 1.0000
47.7800 300.0000 1.0000
47.7900 291.0000 1.0000
47.8000 320.0000 1.0000
47.8100 324.0000 1.0000
47.8200 311.0000 1.0000
47.8300 315.0000 1.0000
47.8400 291.0000 1.0000
47.8500 308.0000 1.0000
47.8600 299.0000 1.0000
47.8700 310.0000 1.0000
47.8800 321.0000 1.0000
47.8900 300.0000 1.0000
47.9000 283.0000 1.0000
47.9100 284.0000 1.0000
47.9200 301.0000 1.0000
47.9300 314.0000 1.0000
47.9400 306.0000 1.0000
47.9500 320.0000 1.0000
47.9600 312.0000 1.0000
47.9700 291.0000 1.0000
47.9800 282.0000 1.0000
47.9900 280.0000 1.0000
48.0000 293.0000 1.0000
48.0100 304.0000 1.0000
48.0200 331.0000 1.0000
48.0300 325.0000 1.0000
48.0400 322.0000 1.0000
48.0500 315.0000 1.0000
48.0600 315.0000 1.0000
48.0700 290.0000 1.0000
48.0800 287.0000 1.0000
48.0900 302.0000 1.0000
48.1000 291.0000 1.0000
48.1100 280.0000 1.0000
48.1200 291.0000 1.0000
48.1300 306.0000 1.0000
48.1400 298.0000 1.0000
48.1500 317.0000 1.0000
48.1600 290.0000 1.0000
48.1700 288.0000 1.0000
48.1800 278.0000 1.0000
48.1900 305.0000 1.0000
48.2000 320.0000 1.0000
48.2100 297.0000 1.0000
48.2200 295.0000 1.0000
48.2300 291.0000 1.0000
48.2400 303.0000 1.0000
48.2500 277.0000 1.0000
48.2600 298.0000 1.0000
48.2700 344.0000 1.0000
48.2800 306.0000 1.0000
48.2900 299.0000 1.0000
48.3000 303.0000 1.0000
48.3100 337.0000 1.0000
48.3200 296.0000 1.0000
48.3300 283.0000 1.0000
48.3400 281.0000 1.0000
48.3500 291.0000 1.0000
48.3600 268.0000 1.0000
48.3700 313.0000 1.0000
48.3800 285.0000 1.0000
48.3900 333.0000 1.0000
48.4000 325.0000 1.0000
48.4100 289.0000 1.0000
48.4200 355.0000 1.0000
48.4300 340.0000 1.0000
48.4400 292.0000 1.0000
48.4500 311.0000 1.0000
48.4600 297.0000 1.0000
48.4700 299.0000 1.0000
48.4800 281.0000 1.0000
48.4900 292.0000 1.0000
48.5000 326.0000 1.0000
48.5100 305.0000 1.0000
48.5200 283.0000 1.0000
48.5300 292.0000 1.0000
48.5400 302.0000 1.0000
48.5500 311.0000 1.0000
48.5600 303.0000 1.0000
48.5700 312.0000 1.0000
48.5800 283.0000 1.0000
48.5900 290.0000 1.0000
48.6000 303.0000 1.0000
48.6100 303.0000 1.0000
48.6200 272.0000 1.0000
48.6300 287.0000 1.0000
48.6400 303.0000 1.0000
48.6500 304.0000 1.0000
48.6600 308.0000 1.0000
48.6700 289.0000 1.0000
48.6800 327.0000 1.0000
48.6900 290.0000 1.0000
48.7000 307.0000 1.0000
48.7100 281.0000 1.0000
48.7200 300.0000 1.0000
48.7300 294.0000 1.0000
48.7400 286.0000 1.0000
48.7500 300.0000 1.0000
48.7600 312.0000 1.0000
48.7700 277.0000 1.0000
48.7800 310.0000 1.0000
48.7900 313.0000 1.0000
48.8000 307.0000 1.0000
48.8100 331.0000 1.0000
48.8200 327.0000 1.0000
48.8300 289.0000 1.0000
48.8400 311.0000 1.0000
48.8500 311.0000 1.0000
48.8600 300.0000 1.0000
48.8700 299.0000 1.0000
48.8800 292.0000 1.0000
48.8900 317.0000 1.0000
48.9000 335.0000 1.0000
48.9100 285.0000 1.0000
48.9200 296.0000 1.0000
48.9300 303.0000 1.0000
48.9400 301.0000 1.0000
48.9500 309.0000 1.0000
48.9600 293.0000 1.0000
48.9700 301.0000 1.0000
48.9800 296.0000 1.0000
48.9900 289.0000 1.0000
49.0000 288.0000 1.0000
49.0100 325.0000 1.0000
49.0200 298.0000 1.0000
49.0300 289.0000 1.0000
49.0400 280.0000 1.0000
49.0500 286.0000 1.0000
49.0600 304.0000 1.0000
49.0700 291.0000 1.0000
49.0800 271.0000 1.0000
49.0900 267.0000 1.0000
49.1000 292.0000 1.0000
49.1100 313.0000 1.0000
49.1200 302.0000 1.0000
49.1300 301.0000 1.0000
49.1400 293.0000 1.0000
49.1500 286.0000 1.0000
49.1600 307.0000 1.0000
49.1700 312.0000 1.0000
49.1800 274.0000 1.0000
49.1900 294.0000 1.0000
49.2000 316.0000 1.0000
49.2100 286.0000 1.0000
49.2200 328.0000 1.0000
49.2300 282.0000 1.0000
49.2400 296.0000 1.0000
49.2500 301.0000 1.0000
49.2600 309.0000 1.0000
49.2700 323.0000 1.0000
49.2800 300.0000 1.0000
49.2900 294.0000 1.0000
49.3000 274.0000 1.0000
49.3100 281.0000 1.0000
49.3200 278.0000 1.0000
49.3300 274.0000 1.0000
49.3400 300.0000 1.0000
49.3500 286.0000 1.0000
49.3600 303.0000 1.0000
49.3700 271.0000 1.0000
49.3800 294.0000 1.0000
49.3900 292.0000 1.0000
49.4000 306.0000 1.0000
49.4100 281.0000 1.0000
49.4200 287.0000 1.0000
49.4300 292.0000 1.0000
49.4400 284.0000 1.0000
49.4500 322.0000 1.0000
49.4600 307.0000 1.0000
49.4700 315.0000 1.0000
49.4800 312.0000 1.0000
49.4900 314.0000 1.0000
49.5000 289.0000 1.0000
49.5100 297.0000 1.0000
49.5200 298.0000 1.0000
49.5300 292.0000 1.0000
49.5400 300.0000 1.0000
49.5500 315.0000 1.0000
49.5600 303.0000 1.0000
49.5700 259.0000 1.0000
49.5800 279.0000 1.0000
49.5900 271.0000 1.0000
49.6000 296.0000 1.0000
49.6100 318.0000 1.0000
49.6200 284.0000 1.0000
49.6300 293.0000 1.0000
49.6400 298.0000 1.0000
49.6500 286.0000 1.0000
49.6600 284.0000 1.0000
49.6700 308.0000 1.0000
49.6800 328.0000 1.0000
49.6900 297.0000 1.0000
49.7000 301.0000 1.0000
49.7100 298.0000 1.0000
49.7200 284.0000 1.0000
49.7300 287.0000 1.0000
49.7400 287.0000 1.0000
49.7500 288.0000 1.0000
49.7600 309.0000 1.0000
49.7700 285.0000 1.0000
49.7800 303.0000 1.0000
49.7900 292.0000 1.0000
49.8000 286.0000 1.0000
49.8100 291.0000 1.0000
49.8200 313.0000 1.0000
49.8300 283.0000 1.0000
49.8400 307.0000 1.0000
49.8500 308.0000 1.0000
49.8600 319.0000 1.0000
49.8700 272.0000 1.0000
49.8800 296.0000 1.0000
49.8900 312.0000 1.0000
49.9000 300.0000 1.0000
49.9100 297.0000 1.0000
49.9200 281.0000 1.0000
49.9300 292.0000 1.0000
49.9400 310.0000 1.0000
49.9500 319.0000 1.0000
49.9600 302.0000 1.0000
49.9700 316.0000 1.0000
49.9800 316.0000 1.0000
49.9900 313.0000 1.0000
50.0000 279.0000 1.0000
50.0100 271.0000 1.0000
50.0200 284.0000 1.0000
50.0300 297.0000 1.0000
50.0400 291.0000 1.0000
50.0500 288.0000 1.0000
50.0600 306.0000 1.0000
50.0700 310.0000 1.0000
50.0800 314.0000 1.0000
50.0900 325.0000 1.0000
50.1000 291.0000 1.0000
50.1100 312.0000 1.0000
50.1200 320.0000 1.0000
50.1300 313.0000 1.0000
50.1400 293.0000 1.0000
50.1500 294.0000 1.0000
50.1600 297.0000 1.0000
50.1700 290.0000 1.0000
50.1800 310.0000 1.0000
50.1900 308.0000 1.0000
50.2000 314.0000 1.0000
50.2100 310.0000 1.0000
50.2200 310.0000 1.0000
50.2300 325.0000 1.0000
50.2400 316.0000 1.0000
50.2500 304.0000 1.0000
50.2600 331.0000 1.0000
50.2700 313.0000 1.0000
50.2800 293.0000 1.0000
50.2900 305.0000 1.0000
50.3000 295.0000 1.0000
50.3100 333.0000 1.0000
50.3200 284.0000 1.0000
50.3300 281.0000 1.0000
50.3400 313.0000 1.0000
50.3500 326.0000 1.0000
50.3600 317.0000 1.0000
50.3700 320.0000 1.0000
50.3800 313.0000 1.0000
50.3900 279.0000 1.0000
50.4000 338.0000 1.0000
50.4100 299.0000 1.0000
50.4200 316.0000 1.0000
50.4300 305.0000 1.0000
50.4400 318.0000 1.0000
50.4500 286.0000 1.0000
50.4600 312.0000 1.0000
50.4700 342.0000 1.0000
50.4800 299.0000 1.0000
50.4900 296.0000 1.0000
50.5000 312.0000 1.0000
50.5100 312.0000 1.0000
50.5200 330.0000 1.0000
50.5300 303.0000 1.0000
50.5400 267.0000 1.0000
50.5500 311.0000 1.0000
50.5600 301.0000 1.0000
50.5700 322.0000 1.0000
50.5800 299.0000 1.0000
50.5900 304.0000 1.0000
50.6000 307.0000 1.0000
50.6100 283.0000 1.0000
50.6200 291.0000 1.0000
50.6300 325.0000 1.0000
50.6400 315.0000 1.0000
50.6500 280.0000 1.0000
50.6600 276.0000 1.0000
50.6700 292.0000 1.0000
50.6800 312.0000 1.0000
50.6900 298.0000 1.0000
50.7000 292.0000 1.0000
50.7100 285.0000 1.0000
50.7200 310.0000 1.0000
50.7300 285.0000 1.0000
50.7400 270.0000 1.0000
50.7500 317.0000 1.0000
50.7600 292.0000 1.0000
50.7700 315.0000 1.0000
50.7800 296.0000 1.0000
50.7900 298.0000 1.0000
50.8000 312.0000 1.0000
50.8100 304.0000 1.0000
50.8200 299.0000 1.0000
50.8300 296.0000 1.0000
50.8400 299.0000 1.0000
50.8500 294.0000 1.0000
50.8600 287.0000 1.0000
50.8700 270.0000 1.0000
50.8800 294.0000 1.0000
50.8900 292.0000 1.0000
50.9000 295.0000 1.0000
50.9100 301.0000 1.0000
50.9200 306.0000 1.0000
50.9300 306.0000 1.0000
50.9400 302.0000 1.0000
50.9500 297.0000 1.0000
50.9600 294.0000 1.0000
50.9700 289.0000 1.0000
50.9800 319.0000 1.0000
50.9900 331.0000 1.0000
51.0000 311.0000 1.0000
51.0100 300.0000 1.0000
51.0200 305.0000 1.0000
51.0300 302.0000 1.0000
51.0400 293.0000 1.0000
51.0500 306.0000 1.0000
51.0600 286.0000 1.0000
51.0700 294.0000 1.0000
51.0800 306.0000 1.0000
51.0900 310.0000 1.0000
51.1000 307.0000 1.0000
51.1100 312.0000 1.0000
51.1200 309.0000 1.0000
51.1300 315.0000 1.0000
51.1400 302.0000 1.0000
51.1500 256.0000 1.0000
51.1600 291.0000 1.0000
51.1700 297.0000 1.0000
51.1800 300.0000 1.0000
51.1900 295.0000 1.0000
51.2000 291.0000 1.0000
51.2100 293.0000 1.0000
51.2200 294.0000 1.0000
51.2300 297.0000 1.0000
51.2400 294.0000 1.0000
51.2500 294.0000 1.0000
51.2600 265.0000 1.0000
51.2700 293.0000 1.0000
51.2800 291.0000 1.0000
51.2900 301.0000 1.0000
51.3000 281.0000 1.0000
51.3100 305.0000 1.0000
51.3200 289.0000 1.0000
51.3300 306.0000 1.0000
51.3400 282.0000 1.0000
51.3500 288.0000 1.0000
51.3600 305.0000 1.0000
51.3700 286.0000 1.0000
51.3800 300.0000 1.0000
51.3900 324.0000 1.0000
51.4000 299.0000 1.0000
51.4100 294.0000 1.0000
51.4200 293.0000 1.0000
51.4300 316.0000 1.0000
51.4400 306.0000 1.0000
51.4500 290.0000 1.0000
51.4600 348.0000 1.0000
51.4700 310.0000 1.0000
51.4800 306.0000 1.0000
51.4900 287.0000 1.0000
51.5000 344.0000 1.0000
51.5100 310.0000 1.0000
51.5200 297.0000 1.0000
51.5300 327.0000 1.0000
51.5400 293.0000 1.0000
51.5500 350.0000 1.0000
51.5600 321.0000 1.0000
51.5700 311.0000 1.0000
51.5800 282.0000 1.0000
51.5900 309.0000 1.0000
51.6000 328.0000 1.0000
51.6100 295.0000 1.0000
51.6200 314.0000 1.0000
51.6300 321.0000 1.0000
51.6400 310.0000 1.0000
51.6500 299.0000 1.0000
51.6600 331.0000 1.0000
51.6700 326.0000 1.0000
51.6800 301.0000 1.0000
51.6900 300.0000 1.0000
51.7000 329.0000 1.0000
51.7100 294.0000 1.0000
51.7200 346.0000 1.0000
51.7300 335.0000 1.0000
51.7400 348.0000 1.0000
51.7500 327.0000 1.0000
51.7600 354.0000 1.0000
51.7700 298.0000 1.0000
51.7800 339.0000 1.0000
51.7900 344.0000 1.0000
51.8000 319.0000 1.0000
51.8100 328.0000 1.0000
51.8200 337.0000 1.0000
51.8300 325.0000 1.0000
51.8400 331.0000 1.0000
51.8500 337.0000 1.0000
51.8600 323.0000 1.0000
51.8700 348.0000 1.0000
51.8800 327.0000 1.0000
51.8900 365.0000 1.0000
51.9000 342.0000 1.0000
51.9100 365.0000 1.0000
51.9200 388.0000 1.0000
51.9300 368.0000 1.0000
51.9400 392.0000 1.0000
51.9500 397.0000 1.0000
51.9600 392.0000 1.0000
51.9700 389.0000 1.0000
51.9800 407.0000 1.0000
51.9900 432.0000 1.0000
52.0000 430.0000 1.0000
52.0100 436.0000 1.0000
52.0200 477.0000 1.0000
52.0300 447.0000 1.0000
52.0400 447.0000 1.0000
52.0500 495.0000 1.0000
52.0600 465.0000 1.0000
52.0700 522.0000 1.0000
52.0800 528.0000 1.0000
52.0900 534.0000 1.0000
52.1000 558.0000 1.0000
52.1100 564.0000 1.0000
52.1200 611.0000 1.0000
52.1300 632.0000 1.0000
52.1400 645.0000 1.0000
52.1500 703.0000 1.0000
52.1600 738.0000 1.0000
52.1700 803.0000 1.0000
52.1800 888.0000 1.0000
52.1900 881.0000 1.0000
52.2000 974.0000 1.0000
52.2100 1070.0000 1.0000
52.2200 1107.0000 1.0000
52.2300 1222.0000 1.0000
52.2400 1366.0000 1.0000
52.2500 1488.0000 1.0000
52.2600 1588.0000 1.0000
52.2700 1696.0000 1.0000
52.2800 1831.0000 1.0000
52.2900 1962.0000 1.0000
52.3000 2043.0000 1.0000
52.3100 2133.0000 1.0000
52.3200 2190.0000 1.0000
52.3300 2184.0000 1.0000
52.3400 2208.0000 1.0000
52.3500 2206.0000 1.0000
52.3600 2203.0000 1.0000
52.3700 2081.0000 1.0000
52.3800 2060.0000 1.0000
52.3900 1887.0000 1.0000
52.4000 1918.0000 1.0000
52.4100 1840.0000 1.0000
52.4200 1799.0000 1.0000
52.4300 1747.0000 1.0000
52.4400 1722.0000 1.0000
52.4500 1737.0000 1.0000
52.4600 1620.0000 1.0000
52.4700 1564.0000 1.0000
52.4800 1491.0000 1.0000
52.4900 1416.0000 1.0000
52.5000 1367.0000 1.0000
52.5100 1296.0000 1.0000
52.5200 1174.0000 1.0000
52.5300 1111.0000 1.0000
52.5400 1031.0000 1.0000
52.5500 938.0000 1.0000
52.5600 896.0000 1.0000
52.5700 832.0000 1.0000
52.5800 780.0000 1.0000
52.5900 728.0000 1.0000
52.6000 697.0000 1.0000
52.6100 678.0000 1.0000
52.6200 624.0000 1.0000
52.6300 574.0000 1.0000
52.6400 554.0000 1.0000
52.6500 535.0000 1.0000
52.6600 559.0000 1.0000
52.6700 501.0000 1.0000
52.6800 488.0000 1.0000
52.6900 454.0000 1.0000
52.7000 446.0000 1.0000
52.7100 427.0000 1.0000
52.7200 466.0000 1.0000
52.7300 447.0000 1.0000
52.7400 409.0000 1.0000
52.7500 435.0000 1.0000
52.7600 397.0000 1.0000
52.7700 388.0000 1.0000
52.7800 386.0000 1.0000
52.7900 407.0000 1.0000
52.8000 378.0000 1.0000
52.8100 398.0000 1.0000
52.8200 355.0000 1.0000
52.8300 373.0000 1.0000
52.8400 353.0000 1.0000
52.8500 359.0000 1.0000
52.8600 339.0000 1.0000
52.8700 348.0000 1.0000
52.8800 333.0000 1.0000
52.8900 316.0000 1.0000
52.9000 355.0000 1.0000
52.9100 344.0000 1.0000
52.9200 358.0000 1.0000
52.9300 351.0000 1.0000
52.9400 336.0000 1.0000
52.9500 359.0000 1.0000
52.9600 345.0000 1.0000
52.9700 337.0000 1.0000
52.9800 334.0000 1.0000
52.9900 319.0000 1.0000
53.0000 323.0000 1.0000
53.0100 333.0000 1.0000
53.0200 328.0000 1.0000
53.0300 307.0000 1.0000
53.0400 334.0000 1.0000
53.0500 362.0000 1.0000
53.0600 354.0000 1.0000
53.0700 336.0000 1.0000
53.0800 315.0000 1.0000
53.0900 311.0000 1.0000
53.1000 301.0000 1.0000
53.1100 346.0000 1.0000
53.1200 333.0000 1.0000
53.1300 315.0000 1.0000
53.1400 315.0000 1.0000
53.1500 289.0000 1.0000
53.1600 292.0000 1.0000
53.1700 292.0000 1.0000
53.1800 319.0000 1.0000
53.1900 274.0000 1.0000
53.2000 310.0000 1.0000
53.2100 295.0000 1.0000
53.2200 305.0000 1.0000
53.2300 305.0000 1.0000
53.2400 275.0000 1.0000
53.2500 311.0000 1.0000
53.2600 302.0000 1.0000
53.2700 292.0000 1.0000
53.2800 284.0000 1.0000
53.2900 281.0000 1.0000
53.3000 282.0000 1.0000
53.3100 294.0000 1.0000
53.3200 295.0000 1.0000
53.3300 305.0000 1.0000
53.3400 306.0000 1.0000
53.3500 296.0000 1.0000
53.3600 314.0000 1.0000
53.3700 291.0000 1.0000
53.3800 294.0000 1.0000
53.3900 319.0000 1.0000
53.4000 313.0000 1.0000
53.4100 318.0000 1.0000
53.4200 325.0000 1.0000
53.4300 310.0000 1.0000
53.4400 293.0000 1.0000
53.4500 293.0000 1.0000
53.4600 312.0000 1.0000
53.4700 304.0000 1.0000
53.4800 309.0000 1.0000
53.4900 309.0000 1.0000
53.5000 292.0000 1.0000
53.5100 299.0000 1.0000
53.5200 299.0000 1.0000
53.5300 292.0000 1.0000
53.5400 318.0000 1.0000
53.5500 307.0000 1.0000
53.5600 290.0000 1.0000
53.5700 300.0000 1.0000
53.5800 283.0000 1.0000
53.5900 288.0000 1.0000
53.6000 287.0000 1.0000
53.6100 319.0000 1.0000
53.6200 309.0000 1.0000
53.6300 263.0000 1.0000
53.6400 303.0000 1.0000
53.6500 313.0000 1.0000
53.6600 313.0000 1.0000
53.6700 309.0000 1.0000
53.6800 302.0000 1.0000
53.6900 315.0000 1.0000
53.7000 289.0000 1.0000
53.7100 292.0000 1.0000
53.7200 303.0000 1.0000
53.7300 320.0000 1.0000
53.7400 281.0000 1.0000
53.7500 278.0000 1.0000
53.7600 305.0000 1.0000
53.7700 315.0000 1.0000
53.7800 280.0000 1.0000
53.7900 293.0000 1.0000
53.8000 288.0000 1.0000
53.8100 263.0000 1.0000
53.8200 287.0000 1.0000
53.8300 303.0000 1.0000
53.8400 284.0000 1.0000
53.8500 316.0000 1.0000
53.8600 317.0000 1.0000
53.8700 305.0000 1.0000
53.8800 301.0000 1.0000
53.8900 285.0000 1.0000
53.9000 292.0000 1.0000
53.9100 301.0000 1.0000
53.9200 291.0000 1.0000
53.9300 302.0000 1.0000
53.9400 296.0000 1.0000
53.9500 299.0000 1.0000
53.9600 288.0000 1.0000
53.9700 304.0000 1.0000
53.9800 284.0000 1.0000
53.9900 339.0000 1.0000
54.0000 298.0000 1.0000
54.0100 292.0000 1.0000
54.0200 299.0000 1.0000
54.0300 303.0000 1.0000
54.0400 295.0000 1.0000
54.0500 308.0000 1.0000
54.0600 274.0000 1.0000
54.0700 305.0000 1.0000
54.0800 287.0000 1.0000
54.0900 275.0000 1.0000
54.1000 302.0000 1.0000
54.1100 282.0000 1.0000
54.1200 307.0000 1.0000
54.1300 268.0000 1.0000
54.1400 271.0000 1.0000
54.1500 293.0000 1.0000
54.1600 296.0000 1.0000
54.1700 297.0000 1.0000
54.1800 288.0000 1.0000
54.1900 304.0000 1.0000
54.2000 294.0000 1.0000
54.2100 292.0000 1.0000
54.2200 307.0000 1.0000
54.2300 256.0000 1.0000
54.2400 297.0000 1.0000
54.2500 288.0000 1.0000
54.2600 293.0000 1.0000
54.2700 286.0000 1.0000
54.2800 279.0000 1.0000
54.2900 276.0000 1.0000
54.3000 298.0000 1.0000
54.3100 305.0000 1.0000
54.3200 288.0000 1.0000
54.3300 264.0000 1.0000
54.3400 297.0000 1.0000
54.3500 285.0000 1.0000
54.3600 272.0000 1.0000
54.3700 322.0000 1.0000
54.3800 300.0000 1.0000
54.3900 288.0000 1.0000
54.4000 304.0000 1.0000
54.4100 288.0000 1.0000
54.4200 301.0000 1.0000
54.4300 298.0000 1.0000
54.4400 289.0000 1.0000
54.4500 293.0000 1.0000
54.4600 309.0000 1.0000
54.4700 318.0000 1.0000
54.4800 302.0000 1.0000
54.4900 274.0000 1.0000
54.5000 285.0000 1.0000
54.5100 299.0000 1.0000
54.5200 326.0000 1.0000
54.5300 281.0000 1.0000
54.5400 287.0000 1.0000
54.5500 277.0000 1.0000
54.5600 309.0000 1.0000
54.5700 290.0000 1.0000
54.5800 288.0000 1.0000
54.5900 292.0000 1.0000
54.6000 318.0000 1.0000
54.6100 299.0000 1.0000
54.6200 286.0000 1.0000
54.6300 308.0000 1.0000
54.6400 313.0000 1.0000
54.6500 280.0000 1.0000
54.6600 299.0000 1.0000
54.6700 288.0000 1.0000
54.6800 298.0000 1.0000
54.6900 304.0000 1.0000
54.7000 306.0000 1.0000
54.7100 281.0000 1.0000
54.7200 303.0000 1.0000
54.7300 287.0000 1.0000
54.7400 315.0000 1.0000
54.7500 295.0000 1.0000
54.7600 306.0000 1.0000
54.7700 308.0000 1.0000
54.7800 313.0000 1.0000
54.7900 291.0000 1.0000
54.8000 271.0000 1.0000
54.8100 315.0000 1.0000
54.8200 344.0000 1.0000
54.8300 298.0000 1.0000
54.8400 322.0000 1.0000
54.8500 317.0000 1.0000
54.8600 304.0000 1.0000
54.8700 283.0000 1.0000
54.8800 300.0000 1.0000
54.8900 328.0000 1.0000
54.9000 311.0000 1.0000
54.9100 333.0000 1.0000
54.9200 327.0000 1.0000
54.9300 306.0000 1.0000
54.9400 277.0000 1.0000
54.9500 310.0000 1.0000
54.9600 326.0000 1.0000
54.9700 316.0000 1.0000
54.9800 311.0000 1.0000
54.9900 322.0000 1.0000
55.0000 305.0000 1.0000
55.0100 309.0000 1.0000
55.0200 334.0000 1.0000
55.0300 331.0000 1.0000
55.0400 308.0000 1.0000
55.0500 343.0000 1.0000
55.0600 301.0000 1.0000
55.0700 302.0000 1.0000
55.0800 306.0000 1.0000
55.0900 307.0000 1.0000
55.1000 340.0000 1.0000
55.1100 361.0000 1.0000
55.1200 341.0000 1.0000
55.1300 344.0000 1.0000
55.1400 317.0000 1.0000
55.1500 345.0000 1.0000
55.1600 355.0000 1.0000
55.1700 360.0000 1.0000
55.1800 350.0000 1.0000
55.1900 351.0000 1.0000
55.2000 369.0000 1.0000
55.2100 351.0000 1.0000
55.2200 379.0000 1.0000
55.2300 370.0000 1.0000
55.2400 391.0000 1.0000
55.2500 407.0000 1.0000
55.2600 423.0000 1.0000
55.2700 420.0000 1.0000
55.2800 420.0000 1.0000
55.2900 401.0000 1.0000
55.3000 436.0000 1.0000
55.3100 449.0000 1.0000
55.3200 451.0000 1.0000
55.3300 447.0000 1.0000
55.3400 472.0000 1.0000
55.3500 449.0000 1.0000
55.3600 470.0000 1.0000
55.3700 460.0000 1.0000
55.3800 426.0000 1.0000
55.3900 460.0000 1.0000
55.4000 460.0000 1.0000
55.4100 456.0000 1.0000
55.4200 456.0000 1.0000
55.4300 469.0000 1.0000
55.4400 464.0000 1.0000
55.4500 391.0000 1.0000
55.4600 428.0000 1.0000
55.4700 467.0000 1.0000
55.4800 428.0000 1.0000
55.4900 395.0000 1.0000
55.5000 420.0000 1.0000
55.5100 404.0000 1.0000
55.5200 362.0000 1.0000
55.5300 391.0000 1.0000
55.5400 384.0000 1.0000
55.5500 367.0000 1.0000
55.5600 368.0000 1.0000
55.5700 350.0000 1.0000
55.5800 358.0000 1.0000
55.5900 341.0000 1.0000
55.6000 359.0000 1.0000
55.6100 335.0000 1.0000
55.6200 356.0000 1.0000
55.6300 366.0000 1.0000
55.6400 351.0000 1.0000
55.6500 315.0000 1.0000
55.6600 320.0000 1.0000
55.6700 347.0000 1.0000
55.6800 322.0000 1.0000
55.6900 333.0000 1.0000
55.7000 337.0000 1.0000
55.7100 339.0000 1.0000
55.7200 318.0000 1.0000
55.7300 316.0000 1.0000
55.7400 276.0000 1.0000
55.7500 307.0000 1.0000
55.7600 301.0000 1.0000
55.7700 325.0000 1.0000
55.7800 283.0000 1.0000
55.7900 298.0000 1.0000
55.8000 300.0000 1.0000
55.8100 312.0000 1.0000
55.8200 321.0000 1.0000
55.8300 311.0000 1.0000
55.8400 309.0000 1.0000
55.8500 287.0000 1.0000
55.8600 305.0000 1.0000
55.8700 298.0000 1.0000
55.8800 290.0000 1.0000
55.8900 288.0000 1.0000
55.9000 277.0000 1.0000
55.9100 276.0000 1.0000
55.9200 310.0000 1.0000
55.9300 336.0000 1.0000
55.9400 294.0000 1.0000
55.9500 279.0000 1.0000
55.9600 285.0000 1.0000
55.9700 298.0000 1.0000
55.9800 294.0000 1.0000
55.9900 283.0000 1.0000
56.0000 278.0000 1.0000
56.0100 272.0000 1.0000
56.0200 292.0000 1.0000
56.0300 303.0000 1.0000
56.0400 288.0000 1.0000
56.0500 306.0000 1.0000
56.0600 294.0000 1.0000
56.0700 309.0000 1.0000
56.0800 271.0000 1.0000
56.0900 255.0000 1.0000
56.1000 304.0000 1.0000
56.1100 313.0000 1.0000
56.1200 336.0000 1.0000
56.1300 297.0000 1.0000
56.1400 296.0000 1.0000
56.1500 325.0000 1.0000
56.1600 291.0000 1.0000
56.1700 315.0000 1.0000
56.1800 289.0000 1.0000
56.1900 273.0000 1.0000
56.2000 296.0000 1.0000
56.2100 274.0000 1.0000
56.2200 272.0000 1.0000
56.2300 288.0000 1.0000
56.2400 293.0000 1.0000
56.2500 291.0000 1.0000
56.2600 266.0000 1.0000
56.2700 317.0000 1.0000
56.2800 282.0000 1.0000
56.2900 269.0000 1.0000
56.3000 301.0000 1.0000
56.3100 289.0000 1.0000
56.3200 291.0000 1.0000
56.3300 271.0000 1.0000
56.3400 292.0000 1.0000
56.3500 306.0000 1.0000
56.3600 261.0000 1.0000
56.3700 274.0000 1.0000
56.3800 270.0000 1.0000
56.3900 279.0000 1.0000
56.4000 286.0000 1.0000
56.4100 285.0000 1.0000
56.4200 295.0000 1.0000
56.4300 301.0000 1.0000
56.4400 309.0000 1.0000
56.4500 316.0000 1.0000
56.4600 280.0000 1.0000
56.4700 291.0000 1.0000
56.4800 281.0000 1.0000
56.4900 273.0000 1.0000
56.5000 263.0000 1.0000
56.5100 277.0000 1.0000
56.5200 291.0000 1.0000
56.5300 296.0000 1.0000
56.5400 303.0000 1.0000
56.5500 277.0000 1.0000
56.5600 257.0000 1.0000
56.5700 280.0000 1.0000
56.5800 295.0000 1.0000
56.5900 277.0000 1.0000
56.6000 267.0000 1.0000
56.6100 277.0000 1.0000
56.6200 283.0000 1.0000
56.6300 287.0000 1.0000
56.6400 264.0000 1.0000
56.6500 284.0000 1.0000
56.6600 267.0000 1.0000
56.6700 276.0000 1.0000
56.6800 290.0000 1.0000
56.6900 277.0000 1.0000
56.7000 279.0000 1.0000
56.7100 290.0000 1.0000
56.7200 273.0000 1.0000
56.7300 269.0000 1.0000
56.7400 283.0000 1.0000
56.7500 289.0000 1.0000
56.7600 272.0000 1.0000
56.7700 279.0000 1.0000
56.7800 280.0000 1.0000
56.7900 267.0000 1.0000
56.8000 299.0000 1.0000
56.8100 279.0000 1.0000
56.8200 307.0000 1.0000
56.8300 301.0000 1.0000
56.8400 253.0000 1.0000
56.8500 248.0000 1.0000
56.8600 296.0000 1.0000
56.8700 266.0000 1.0000
56.8800 287.0000 1.0000
56.8900 286.0000 1.0000
56.9000 263.0000 1.0000
56.9100 279.0000 1.0000
56.9200 302.0000 1.0000
56.9300 288.0000 1.0000
56.9400 271.0000 1.0000
56.9500 269.0000 1.0000
56.9600 273.0000 1.0000
56.9700 264.0000 1.0000
56.9800 289.0000 1.0000
56.9900 296.0000 1.0000
57.0000 290.0000 1.0000
57.0100 260.0000 1.0000
57.0200 267.0000 1.0000
57.0300 275.0000 1.0000
57.0400 283.0000 1.0000
57.0500 276.0000 1.0000
57.0600 289.0000 1.0000
57.0700 269.0000 1.0000
57.0800 274.0000 1.0000
57.0900 256.0000 1.0000
57.1000 284.0000 1.0000
57.1100 283.0000 1.0000
57.1200 282.0000 1.0000
57.1300 274.0000 1.0000
57.1400 290.0000 1.0000
57.1500 286.0000 1.0000
57.1600 304.0000 1.0000
57.1700 304.0000 1.0000
57.1800 292.0000 1.0000
57.1900 266.0000 1.0000
57.2000 268.0000 1.0000
57.2100 270.0000 1.0000
57.2200 267.0000 1.0000
57.2300 260.0000 1.0000
57.2400 279.0000 1.0000
57.2500 271.0000 1.0000
57.2600 279.0000 1.0000
57.2700 280.0000 1.0000
57.2800 298.0000 1.0000
57.2900 264.0000 1.0000
57.3000 284.0000 1.0000
57.3100 297.0000 1.0000
57.3200 296.0000 1.0000
57.3300 273.0000 1.0000
57.3400 287.0000 1.0000
57.3500 254.0000 1.0000
57.3600 264.0000 1.0000
57.3700 267.0000 1.0000
57.3800 289.0000 1.0000
57.3900 272.0000 1.0000
57.4000 290.0000 1.0000
57.4100 300.0000 1.0000
57.4200 284.0000 1.0000
57.4300 295.0000 1.0000
57.4400 290.0000 1.0000
57.4500 259.0000 1.0000
57.4600 273.0000 1.0000
57.4700 275.0000 1.0000
57.4800 294.0000 1.0000
57.4900 293.0000 1.0000
57.5000 287.0000 1.0000
57.5100 281.0000 1.0000
57.5200 283.0000 1.0000
57.5300 271.0000 1.0000
57.5400 281.0000 1.0000
57.5500 306.0000 1.0000
57.5600 282.0000 1.0000
57.5700 273.0000 1.0000
57.5800 254.0000 1.0000
57.5900 260.0000 1.0000
57.6000 253.0000 1.0000
57.6100 292.0000 1.0000
57.6200 282.0000 1.0000
57.6300 254.0000 1.0000
57.6400 263.0000 1.0000
57.6500 294.0000 1.0000
57.6600 290.0000 1.0000
57.6700 272.0000 1.0000
57.6800 286.0000 1.0000
57.6900 273.0000 1.0000
57.7000 282.0000 1.0000
57.7100 292.0000 1.0000
57.7200 292.0000 1.0000
57.7300 299.0000 1.0000
57.7400 303.0000 1.0000
57.7500 263.0000 1.0000
57.7600 297.0000 1.0000
57.7700 270.0000 1.0000
57.7800 261.0000 1.0000
57.7900 273.0000 1.0000
57.8000 270.0000 1.0000
57.8100 269.0000 1.0000
57.8200 309.0000 1.0000
57.8300 298.0000 1.0000
57.8400 253.0000 1.0000
57.8500 281.0000 1.0000
57.8600 300.0000 1.0000
57.8700 260.0000 1.0000
57.8800 271.0000 1.0000
57.8900 271.0000 1.0000
57.9000 287.0000 1.0000
57.9100 254.0000 1.0000
57.9200 254.0000 1.0000
57.9300 245.0000 1.0000
57.9400 265.0000 1.0000
57.9500 255.0000 1.0000
57.9600 280.0000 1.0000
57.9700 281.0000 1.0000
57.9800 282.0000 1.0000
57.9900 273.0000 1.0000
58.0000 264.0000 1.0000
58.0100 277.0000 1.0000
58.0200 276.0000 1.0000
58.0300 273.0000 1.0000
58.0400 287.0000 1.0000
58.0500 295.0000 1.0000
58.0600 298.0000 1.0000
58.0700 283.0000 1.0000
58.0800 286.0000 1.0000
58.0900 282.0000 1.0000
58.1000 285.0000 1.0000
58.1100 300.0000 1.0000
58.1200 277.0000 1.0000
58.1300 269.0000 1.0000
58.1400 286.0000 1.0000
58.1500 292.0000 1.0000
58.1600 269.0000 1.0000
58.1700 293.0000 1.0000
58.1800 283.0000 1.0000
58.1900 268.0000 1.0000
58.2000 284.0000 1.0000
58.2100 297.0000 1.0000
58.2200 295.0000 1.0000
58.2300 281.0000 1.0000
58.2400 303.0000 1.0000
58.2500 300.0000 1.0000
58.2600 278.0000 1.0000
58.2700 274.0000 1.0000
58.2800 270.0000 1.0000
58.2900 284.0000 1.0000
58.3000 319.0000 1.0000
58.3100 295.0000 1.0000
58.3200 288.0000 1.0000
58.3300 305.0000 1.0000
58.3400 282.0000 1.0000
58.3500 325.0000 1.0000
58.3600 291.0000 1.0000
58.3700 258.0000 1.0000
58.3800 303.0000 1.0000
58.3900 290.0000 1.0000
58.4000 283.0000 1.0000
58.4100 276.0000 1.0000
58.4200 282.0000 1.0000
58.4300 286.0000 1.0000
58.4400 262.0000 1.0000
58.4500 300.0000 1.0000
58.4600 294.0000 1.0000
58.4700 280.0000 1.0000
58.4800 296.0000 1.0000
58.4900 310.0000 1.0000
58.5000 291.0000 1.0000
58.5100 271.0000 1.0000
58.5200 269.0000 1.0000
58.5300 284.0000 1.0000
58.5400 275.0000 1.0000
58.5500 289.0000 1.0000
58.5600 305.0000 1.0000
58.5700 270.0000 1.0000
58.5800 281.0000 1.0000
58.5900 269.0000 1.0000
58.6000 296.0000 1.0000
58.6100 287.0000 1.0000
58.6200 282.0000 1.0000
58.6300 263.0000 1.0000
58.6400 289.0000 1.0000
58.6500 287.0000 1.0000
58.6600 288.0000 1.0000
58.6700 307.0000 1.0000
58.6800 299.0000 1.0000
58.6900 290.0000 1.0000
58.7000 264.0000 1.0000
58.7100 277.0000 1.0000
58.7200 294.0000 1.0000
58.7300 270.0000 1.0000
58.7400 288.0000 1.0000
58.7500 269.0000 1.0000
58.7600 272.0000 1.0000
58.7700 260.0000 1.0000
58.7800 268.0000 1.0000
58.7900 283.0000 1.0000
58.8000 252.0000 1.0000
58.8100 278.0000 1.0000
58.8200 276.0000 1.0000
58.8300 286.0000 1.0000
58.8400 288.0000 1.0000
58.8500 292.0000 1.0000
58.8600 282.0000 1.0000
58.8700 295.0000 1.0000
58.8800 266.0000 1.0000
58.8900 287.0000 1.0000
58.9000 281.0000 1.0000
58.9100 295.0000 1.0000
58.9200 270.0000 1.0000
58.9300 285.0000 1.0000
58.9400 278.0000 1.0000
58.9500 268.0000 1.0000
58.9600 269.0000 1.0000
58.9700 258.0000 1.0000
58.9800 284.0000 1.0000
58.9900 267.0000 1.0000
59.0000 299.0000 1.0000
59.0100 271.0000 1.0000
59.0200 284.0000 1.0000
59.0300 275.0000 1.0000
59.0400 279.0000 1.0000
59.0500 287.0000 1.0000
59.0600 275.0000 1.0000
59.0700 292.0000 1.0000
59.0800 278.0000 1.0000
59.0900 258.0000 1.0000
59.1000 286.0000 1.0000
59.1100 287.0000 1.0000
59.1200 280.0000 1.0000
59.1300 315.0000 1.0000
59.1400 283.0000 1.0000
59.1500 271.0000 1.0000
59.1600 264.0000 1.0000
59.1700 273.0000 1.0000
59.1800 281.0000 1.0000
59.1900 290.0000 1.0000
59.2000 276.0000 1.0000
59.2100 275.0000 1.0000
59.2200 289.0000 1.0000
59.2300 281.0000 1.0000
59.2400 276.0000 1.0000
59.2500 287.0000 1.0000
59.2600 287.0000 1.0000
59.2700 263.0000 1.0000
59.2800 267.0000 1.0000
59.2900 288.0000 1.0000
59.3000 276.0000 1.0000
59.3100 273.0000 1.0000
59.3200 284.0000 1.0000
59.3300 319.0000 1.0000
59.3400 302.0000 1.0000
59.3500 279.0000 1.0000
59.3600 269.0000 1.0000
59.3700 252.0000 1.0000
59.3800 277.0000 1.0000
59.3900 315.0000 1.0000
59.4000 290.0000 1.0000
59.4100 309.0000 1.0000
59.4200 292.0000 1.0000
59.4300 273.0000 1.0000
59.4400 277.0000 1.0000
59.4500 286.0000 1.0000
59.4600 297.0000 1.0000
59.4700 273.0000 1.0000
59.4800 274.0000 1.0000
59.4900 291.0000 1.0000
59.5000 306.0000 1.0000
59.5100 266.0000 1.0000
59.5200 287.0000 1.0000
59.5300 280.0000 1.0000
59.5400 279.0000 1.0000
59.5500 284.0000 1.0000
59.5600 267.0000 1.0000
59.5700 288.0000 1.0000
59.5800 291.0000 1.0000
59.5900 284.0000 1.0000
59.6000 318.0000 1.0000
59.6100 295.0000 1.0000
59.6200 276.0000 1.0000
59.6300 271.0000 1.0000
59.6400 264.0000 1.0000
59.6500 262.0000 1.0000
59.6600 278.0000 1.0000
59.6700 275.0000 1.0000
59.6800 268.0000 1.0000
59.6900 277.0000 1.0000
59.7000 283.0000 1.0000
59.7100 282.0000 1.0000
59.7200 253.0000 1.0000
59.7300 276.0000 1.0000
59.7400 256.0000 1.0000
59.7500 265.0000 1.0000
59.7600 257.0000 1.0000
59.7700 275.0000 1.0000
59.7800 295.0000 1.0000
59.7900 271.0000 1.0000
59.8000 280.0000 1.0000
59.8100 306.0000 1.0000
59.8200 303.0000 1.0000
59.8300 290.0000 1.0000
59.8400 282.0000 1.0000
59.8500 289.0000 1.0000
59.8600 287.0000 1.0000
59.8700 264.0000 1.0000
59.8800 285.0000 1.0000
59.8900 283.0000 1.0000
59.9000 274.0000 1.0000
59.9100 262.0000 1.0000
59.9200 275.0000 1.0000
59.9300 263.0000 1.0000
59.9400 245.0000 1.0000
59.9500 248.0000 1.0000
59.9600 263.0000 1.0000
59.9700 255.0000 1.0000
59.9800 283.0000 1.0000
59.9900 291.0000 1.0000
60.0000 297.0000 1.0000
60.0100 269.0000 1.0000
60.0200 307.0000 1.0000
60.0300 256.0000 1.0000
60.0400 259.0000 1.0000
60.0500 279.0000 1.0000
60.0600 267.0000 1.0000
60.0700 294.0000 1.0000
60.0800 266.0000 1.0000
60.0900 270.0000 1.0000
60.1000 280.0000 1.0000
60.1100 286.0000 1.0000
60.1200 263.0000 1.0000
60.1300 278.0000 1.0000
60.1400 317.0000 1.0000
60.1500 281.0000 1.0000
60.1600 273.0000 1.0000
60.1700 267.0000 1.0000
60.1800 282.0000 1.0000
60.1900 283.0000 1.0000
60.2000 284.0000 1.0000
60.2100 277.0000 1.0000
60.2200 271.0000 1.0000
60.2300 268.0000 1.0000
60.2400 265.0000 1.0000
60.2500 288.0000 1.0000
60.2600 278.0000 1.0000
60.2700 309.0000 1.0000
60.2800 288.0000 1.0000
60.2900 273.0000 1.0000
60.3000 299.0000 1.0000
60.3100 275.0000 1.0000
60.3200 259.0000 1.0000
60.3300 264.0000 1.0000
60.3400 272.0000 1.0000
60.3500 272.0000 1.0000
60.3600 290.0000 1.0000
60.3700 298.0000 1.0000
60.3800 272.0000 1.0000
60.3900 288.0000 1.0000
60.4000 275.0000 1.0000
60.4100 283.0000 1.0000
60.4200 264.0000 1.0000
60.4300 273.0000 1.0000
60.4400 293.0000 1.0000
60.4500 270.0000 1.0000
60.4600 254.0000 1.0000
60.4700 260.0000 1.0000
60.4800 252.0000 1.0000
60.4900 252.0000 1.0000
60.5000 294.0000 1.0000
60.5100 287.0000 1.0000
60.5200 259.0000 1.0000
60.5300 313.0000 1.0000
60.5400 309.0000 1.0000
60.5500 283.0000 1.0000
60.5600 272.0000 1.0000
60.5700 265.0000 1.0000
60.5800 272.0000 1.0000
60.5900 306.0000 1.0000
60.6000 293.0000 1.0000
60.6100 257.0000 1.0000
60.6200 251.0000 1.0000
60.6300 264.0000 1.0000
60.6400 283.0000 1.0000
60.6500 301.0000 1.0000
60.6600 276.0000 1.0000
60.6700 248.0000 1.0000
60.6800 270.0000 1.0000
60.6900 304.0000 1.0000
60.7000 299.0000 1.0000
60.7100 262.0000 1.0000
60.7200 260.0000 1.0000
60.7300 269.0000 1.0000
60.7400 263.0000 1.0000
60.7500 280.0000 1.0000
60.7600 250.0000 1.0000
60.7700 273.0000 1.0000
60.7800 260.0000 1.0000
60.7900 250.0000 1.0000
60.8000 286.0000 1.0000
60.8100 283.0000 1.0000
60.8200 298.0000 1.0000
60.8300 272.0000 1.0000
60.8400 263.0000 1.0000
60.8500 250.0000 1.0000
60.8600 295.0000 1.0000
60.8700 256.0000 1.0000
60.8800 287.0000 1.0000
60.8900 271.0000 1.0000
60.9000 281.0000 1.0000
60.9100 285.0000 1.0000
60.9200 245.0000 1.0000
60.9300 267.0000 1.0000
60.9400 278.0000 1.0000
60.9500 290.0000 1.0000
60.9600 292.0000 1.0000
60.9700 265.0000 1.0000
60.9800 309.0000 1.0000
60.9900 277.0000 1.0000
61.0000 289.0000 1.0000
61.0100 277.0000 1.0000
61.0200 279.0000 1.0000
61.0300 298.0000 1.0000
61.0400 286.0000 1.0000
61.0500 281.0000 1.0000
61.0600 277.0000 1.0000
61.0700 266.0000 1.0000
61.0800 260.0000 1.0000
61.0900 284.0000 1.0000
61.1000 267.0000 1.0000
61.1100 285.0000 1.0000
61.1200 262.0000 1.0000
61.1300 304.0000 1.0000
61.1400 293.0000 1.0000
61.1500 252.0000 1.0000
61.1600 285.0000 1.0000
61.1700 293.0000 1.0000
61.1800 270.0000 1.0000
61.1900 308.0000 1.0000
61.2000 259.0000 1.0000
61.2100 274.0000 1.0000
61.2200 280.0000 1.0000
61.2300 278.0000 1.0000
61.2400 287.0000 1.0000
61.2500 299.0000 1.0000
61.2600 289.0000 1.0000
61.2700 300.0000 1.0000
61.2800 307.0000 1.0000
61.2900 279.0000 1.0000
61.3000 254.0000 1.0000
61.3100 283.0000 1.0000
61.3200 300.0000 1.0000
61.3300 288.0000 1.0000
61.3400 256.0000 1.0000
61.3500 277.0000 1.0000
61.3600 280.0000 1.0000
61.3700 291.0000 1.0000
61.3800 296.0000 1.0000
61.3900 280.0000 1.0000
61.4000 279.0000 1.0000
61.4100 317.0000 1.0000
61.4200 287.0000 1.0000
61.4300 254.0000 1.0000
61.4400 292.0000 1.0000
61.4500 269.0000 1.0000
61.4600 298.0000 1.0000
61.4700 255.0000 1.0000
61.4800 262.0000 1.0000
61.4900 295.0000 1.0000
61.5000 262.0000 1.0000
61.5100 294.0000 1.0000
61.5200 291.0000 1.0000
61.5300 276.0000 1.0000
61.5400 303.0000 1.0000
61.5500 311.0000 1.0000
61.5600 276.0000 1.0000
61.5700 277.0000 1.0000
61.5800 288.0000 1.0000
61.5900 290.0000 1.0000
61.6000 313.0000 1.0000
61.6100 294.0000 1.0000
61.6200 290.0000 1.0000
61.6300 269.0000 1.0000
61.6400 286.0000 1.0000
61.6500 254.0000 1.0000
61.6600 270.0000 1.0000
61.6700 305.0000 1.0000
61.6800 268.0000 1.0000
61.6900 287.0000 1.0000
61.7000 305.0000 1.0000
61.7100 281.0000 1.0000
61.7200 309.0000 1.0000
61.7300 295.0000 1.0000
61.7400 311.0000 1.0000
61.7500 297.0000 1.0000
61.7600 291.0000 1.0000
61.7700 292.0000 1.0000
61.7800 291.0000 1.0000
61.7900 293.0000 1.0000
61.8000 268.0000 1.0000
61.8100 290.0000 1.0000
61.8200 267.0000 1.0000
61.8300 293.0000 1.0000
61.8400 297.0000 1.0000
61.8500 298.0000 1.0000
61.8600 281.0000 1.0000
61.8700 280.0000 1.0000
61.8800 307.0000 1.0000
61.8900 312.0000 1.0000
61.9000 315.0000 1.0000
61.9100 332.0000 1.0000
61.9200 313.0000 1.0000
61.9300 310.0000 1.0000
61.9400 315.0000 1.0000
61.9500 318.0000 1.0000
61.9600 321.0000 1.0000
61.9700 341.0000 1.0000
61.9800 313.0000 1.0000
61.9900 335.0000 1.0000
62.0000 325.0000 1.0000
62.0100 337.0000 1.0000
62.0200 341.0000 1.0000
62.0300 320.0000 1.0000
62.0400 346.0000 1.0000
62.0500 342.0000 1.0000
62.0600 348.0000 1.0000
62.0700 373.0000 1.0000
62.0800 352.0000 1.0000
62.0900 354.0000 1.0000
62.1000 399.0000 1.0000
62.1100 385.0000 1.0000
62.1200 405.0000 1.0000
62.1300 407.0000 1.0000
62.1400 382.0000 1.0000
62.1500 376.0000 1.0000
62.1600 416.0000 1.0000
62.1700 438.0000 1.0000
62.1800 429.0000 1.0000
62.1900 433.0000 1.0000
62.2000 458.0000 1.0000
62.2100 519.0000 1.0000
62.2200 508.0000 1.0000
62.2300 527.0000 1.0000
62.2400 510.0000 1.0000
62.2500 552.0000 1.0000
62.2600 555.0000 1.0000
62.2700 568.0000 1.0000
62.2800 583.0000 1.0000
62.2900 608.0000 1.0000
62.3000 606.0000 1.0000
62.3100 644.0000 1.0000
62.3200 593.0000 1.0000
62.3300 607.0000 1.0000
62.3400 611.0000 1.0000
62.3500 641.0000 1.0000
62.3600 657.0000 1.0000
62.3700 595.0000 1.0000
62.3800 596.0000 1.0000
62.3900 607.0000 1.0000
62.4000 582.0000 1.0000
62.4100 639.0000 1.0000
62.4200 571.0000 1.0000
62.4300 563.0000 1.0000
62.4400 585.0000 1.0000
62.4500 616.0000 1.0000
62.4600 562.0000 1.0000
62.4700 550.0000 1.0000
62.4800 565.0000 1.0000
62.4900 546.0000 1.0000
62.5000 565.0000 1.0000
62.5100 534.0000 1.0000
62.5200 525.0000 1.0000
62.5300 536.0000 1.0000
62.5400 504.0000 1.0000
62.5500 501.0000 1.0000
62.5600 510.0000 1.0000
62.5700 454.0000 1.0000
62.5800 458.0000 1.0000
62.5900 432.0000 1.0000
62.6000 462.0000 1.0000
62.6100 463.0000 1.0000
62.6200 444.0000 1.0000
62.6300 393.0000 1.0000
62.6400 416.0000 1.0000
62.6500 434.0000 1.0000
62.6600 416.0000 1.0000
62.6700 388.0000 1.0000
62.6800 388.0000 1.0000
62.6900 368.0000 1.0000
62.7000 379.0000 1.0000
62.7100 381.0000 1.0000
62.7200 398.0000 1.0000
62.7300 350.0000 1.0000
62.7400 362.0000 1.0000
62.7500 341.0000 1.0000
62.7600 349.0000 1.0000
62.7700 375.0000 1.0000
62.7800 354.0000 1.0000
62.7900 326.0000 1.0000
62.8000 355.0000 1.0000
62.8100 321.0000 1.0000
62.8200 334.0000 1.0000
62.8300 314.0000 1.0000
62.8400 318.0000 1.0000
62.8500 343.0000 1.0000
62.8600 328.0000 1.0000
62.8700 328.0000 1.0000
62.8800 340.0000 1.0000
62.8900 328.0000 1.0000
62.9000 299.0000 1.0000
62.9100 316.0000 1.0000
62.9200 301.0000 1.0000
62.9300 315.0000 1.0000
62.9400 317.0000 1.0000
62.9500 307.0000 1.0000
62.9600 309.0000 1.0000
62.9700 303.0000 1.0000
62.9800 308.0000 1.0000
62.9900 311.0000 1.0000
63.0000 319.0000 1.0000
63.0100 325.0000 1.0000
63.0200 336.0000 1.0000
63.0300 292.0000 1.0000
63.0400 308.0000 1.0000
63.0500 266.0000 1.0000
63.0600 295.0000 1.0000
63.0700 276.0000 1.0000
63.0800 319.0000 1.0000
63.0900 283.0000 1.0000
63.1000 306.0000 1.0000
63.1100 299.0000 1.0000
63.1200 322.0000 1.0000
63.1300 303.0000 1.0000
63.1400 318.0000 1.0000
63.1500 329.0000 1.0000
63.1600 328.0000 1.0000
63.1700 296.0000 1.0000
63.1800 302.0000 1.0000
63.1900 303.0000 1.0000
63.2000 313.0000 1.0000
63.2100 314.0000 1.0000
63.2200 329.0000 1.0000
63.2300 266.0000 1.0000
63.2400 301.0000 1.0000
63.2500 312.0000 1.0000
63.2600 309.0000 1.0000
63.2700 332.0000 1.0000
63.2800 296.0000 1.0000
63.2900 294.0000 1.0000
63.3000 281.0000 1.0000
63.3100 303.0000 1.0000
63.3200 318.0000 1.0000
63.3300 304.0000 1.0000
63.3400 310.0000 1.0000
63.3500 307.0000 1.0000
63.3600 310.0000 1.0000
63.3700 313.0000 1.0000
63.3800 255.0000 1.0000
63.3900 302.0000 1.0000
63.4000 323.0000 1.0000
63.4100 287.0000 1.0000
63.4200 272.0000 1.0000
63.4300 279.0000 1.0000
63.4400 274.0000 1.0000
63.4500 293.0000 1.0000
63.4600 282.0000 1.0000
63.4700 243.0000 1.0000
63.4800 268.0000 1.0000
63.4900 285.0000 1.0000
63.5000 305.0000 1.0000
63.5100 281.0000 1.0000
63.5200 283.0000 1.0000
63.5300 280.0000 1.0000
63.5400 273.0000 1.0000
63.5500 292.0000 1.0000
63.5600 273.0000 1.0000
63.5700 269.0000 1.0000
63.5800 282.0000 1.0000
63.5900 273.0000 1.0000
63.6000 264.0000 1.0000
63.6100 308.0000 1.0000
63.6200 243.0000 1.0000
63.6300 289.0000 1.0000
63.6400 282.0000 1.0000
63.6500 268.0000 1.0000
63.6600 256.0000 1.0000
63.6700 276.0000 1.0000
63.6800 270.0000 1.0000
63.6900 261.0000 1.0000
63.7000 274.0000 1.0000
63.7100 274.0000 1.0000
63.7200 257.0000 1.0000
63.7300 258.0000 1.0000
63.7400 281.0000 1.0000
63.7500 293.0000 1.0000
63.7600 283.0000 1.0000
63.7700 254.0000 1.0000
63.7800 294.0000 1.0000
63.7900 299.0000 1.0000
63.8000 264.0000 1.0000
63.8100 293.0000 1.0000
63.8200 288.0000 1.0000
63.8300 279.0000 1.0000
63.8400 276.0000 1.0000
63.8500 291.0000 1.0000
63.8600 273.0000 1.0000
63.8700 294.0000 1.0000
63.8800 288.0000 1.0000
63.8900 266.0000 1.0000
63.9000 289.0000 1.0000
63.9100 275.0000 1.0000
63.9200 290.0000 1.0000
63.9300 278.0000 1.0000
63.9400 274.0000 1.0000
63.9500 282.0000 1.0000
63.9600 258.0000 1.0000
63.9700 287.0000 1.0000
63.9800 303.0000 1.0000
63.9900 283.0000 1.0000
64.0000 284.0000 1.0000
64.0100 276.0000 1.0000
64.0200 291.0000 1.0000
64.0300 305.0000 1.0000
64.0400 268.0000 1.0000
64.0500 280.0000 1.0000
64.0600 277.0000 1.0000
64.0700 282.0000 1.0000
64.0800 279.0000 1.0000
64.0900 297.0000 1.0000
64.1000 262.0000 1.0000
64.1100 278.0000 1.0000
64.1200 291.0000 1.0000
64.1300 283.0000 1.0000
64.1400 310.0000 1.0000
64.1500 292.0000 1.0000
64.1600 280.0000 1.0000
64.1700 288.0000 1.0000
64.1800 304.0000 1.0000
64.1900 259.0000 1.0000
64.2000 266.0000 1.0000
64.2100 264.0000 1.0000
64.2200 283.0000 1.0000
64.2300 283.0000 1.0000
64.2400 282.0000 1.0000
64.2500 276.0000 1.0000
64.2600 286.0000 1.0000
64.2700 290.0000 1.0000
64.2800 268.0000 1.0000
64.2900 305.0000 1.0000
64.3000 327.0000 1.0000
64.3100 294.0000 1.0000
64.3200 284.0000 1.0000
64.3300 274.0000 1.0000
64.3400 286.0000 1.0000
64.3500 293.0000 1.0000
64.3600 297.0000 1.0000
64.3700 304.0000 1.0000
64.3800 316.0000 1.0000
64.3900 309.0000 1.0000
64.4000 308.0000 1.0000
64.4100 280.0000 1.0000
64.4200 313.0000 1.0000
64.4300 297.0000 1.0000
64.4400 273.0000 1.0000
64.4500 297.0000 1.0000
64.4600 323.0000 1.0000
64.4700 324.0000 1.0000
64.4800 305.0000 1.0000
64.4900 293.0000 1.0000
64.5000 314.0000 1.0000
64.5100 292.0000 1.0000
64.5200 324.0000 1.0000
64.5300 315.0000 1.0000
64.5400 292.0000 1.0000
64.5500 314.0000 1.0000
64.5600 331.0000 1.0000
64.5700 316.0000 1.0000
64.5800 320.0000 1.0000
64.5900 316.0000 1.0000
64.6000 317.0000 1.0000
64.6100 362.0000 1.0000
64.6200 342.0000 1.0000
64.6300 311.0000 1.0000
64.6400 324.0000 1.0000
64.6500 332.0000 1.0000
64.6600 341.0000 1.0000
64.6700 357.0000 1.0000
64.6800 368.0000 1.0000
64.6900 342.0000 1.0000
64.7000 354.0000 1.0000
64.7100 420.0000 1.0000
64.7200 366.0000 1.0000
64.7300 370.0000 1.0000
64.7400 366.0000 1.0000
64.7500 342.0000 1.0000
64.7600 340.0000 1.0000
64.7700 384.0000 1.0000
64.7800 382.0000 1.0000
64.7900 402.0000 1.0000
64.8000 364.0000 1.0000
64.8100 376.0000 1.0000
64.8200 353.0000 1.0000
64.8300 362.0000 1.0000
64.8400 387.0000 1.0000
64.8500 398.0000 1.0000
64.8600 369.0000 1.0000
64.8700 322.0000 1.0000
64.8800 318.0000 1.0000
64.8900 367.0000 1.0000
64.9000 364.0000 1.0000
64.9100 356.0000 1.0000
64.9200 338.0000 1.0000
64.9300 349.0000 1.0000
64.9400 341.0000 1.0000
64.9500 375.0000 1.0000
64.9600 350.0000 1.0000
64.9700 337.0000 1.0000
64.9800 328.0000 1.0000
64.9900 327.0000 1.0000
65.0000 343.0000 1.0000
65.0100 334.0000 1.0000
65.0200 302.0000 1.0000
65.0300 349.0000 1.0000
65.0400 338.0000 1.0000
65.0500 352.0000 1.0000
65.0600 315.0000 1.0000
65.0700 331.0000 1.0000
65.0800 355.0000 1.0000
65.0900 324.0000 1.0000
65.1000 295.0000 1.0000
65.1100 322.0000 1.0000
65.1200 315.0000 1.0000
65.1300 326.0000 1.0000
65.1400 319.0000 1.0000
65.1500 329.0000 1.0000
65.1600 345.0000 1.0000
65.1700 295.0000 1.0000
65.1800 304.0000 1.0000
65.1900 318.0000 1.0000
65.2000 318.0000 1.0000
65.2100 300.0000 1.0000
65.2200 313.0000 1.0000
65.2300 299.0000 1.0000
65.2400 328.0000 1.0000
65.2500 298.0000 1.0000
65.2600 321.0000 1.0000
65.2700 290.0000 1.0000
65.2800 284.0000 1.0000
65.2900 296.0000 1.0000
65.3000 299.0000 1.0000
65.3100 287.0000 1.0000
65.3200 309.0000 1.0000
65.3300 288.0000 1.0000
65.3400 288.0000 1.0000
65.3500 295.0000 1.0000
65.3600 291.0000 1.0000
65.3700 260.0000 1.0000
65.3800 303.0000 1.0000
65.3900 294.0000 1.0000
65.4000 310.0000 1.0000
65.4100 314.0000 1.0000
65.4200 285.0000 1.0000
65.4300 259.0000 1.0000
65.4400 292.0000 1.0000
65.4500 305.0000 1.0000
65.4600 279.0000 1.0000
65.4700 295.0000 1.0000
65.4800 289.0000 1.0000
65.4900 277.0000 1.0000
65.5000 297.0000 1.0000
65.5100 308.0000 1.0000
65.5200 313.0000 1.0000
65.5300 311.0000 1.0000
65.5400 307.0000 1.0000
65.5500 292.0000 1.0000
65.5600 286.0000 1.0000
65.5700 285.0000 1.0000
65.5800 294.0000 1.0000
65.5900 283.0000 1.0000
65.6000 256.0000 1.0000
65.6100 255.0000 1.0000
65.6200 281.0000 1.0000
65.6300 272.0000 1.0000
65.6400 319.0000 1.0000
65.6500 316.0000 1.0000
65.6600 308.0000 1.0000
65.6700 297.0000 1.0000
65.6800 285.0000 1.0000
65.6900 301.0000 1.0000
65.7000 308.0000 1.0000
65.7100 300.0000 1.0000
65.7200 326.0000 1.0000
65.7300 330.0000 1.0000
65.7400 308.0000 1.0000
65.7500 311.0000 1.0000
65.7600 299.0000 1.0000
65.7700 313.0000 1.0000
65.7800 305.0000 1.0000
65.7900 340.0000 1.0000
65.8000 332.0000 1.0000
65.8100 318.0000 1.0000
65.8200 302.0000 1.0000
65.8300 334.0000 1.0000
65.8400 296.0000 1.0000
65.8500 299.0000 1.0000
65.8600 333.0000 1.0000
65.8700 319.0000 1.0000
65.8800 319.0000 1.0000
65.8900 315.0000 1.0000
65.9000 340.0000 1.0000
65.9100 330.0000 1.0000
65.9200 312.0000 1.0000
65.9300 319.0000 1.0000
65.9400 364.0000 1.0000
65.9500 343.0000 1.0000
65.9600 352.0000 1.0000
65.9700 372.0000 1.0000
65.9800 358.0000 1.0000
65.9900 349.0000 1.0000
66.0000 391.0000 1.0000
66.0100 375.0000 1.0000
66.0200 391.0000 1.0000
66.0300 374.0000 1.0000
66.0400 399.0000 1.0000
66.0500 388.0000 1.0000
66.0600 456.0000 1.0000
66.0700 414.0000 1.0000
66.0800 419.0000 1.0000
66.0900 443.0000 1.0000
66.1000 441.0000 1.0000
66.1100 491.0000 1.0000
66.1200 483.0000 1.0000
66.1300 480.0000 1.0000
66.1400 534.0000 1.0000
66.1500 552.0000 1.0000
66.1600 576.0000 1.0000
66.1700 623.0000 1.0000
66.1800 653.0000 1.0000
66.1900 721.0000 1.0000
66.2000 707.0000 1.0000
66.2100 741.0000 1.0000
66.2200 808.0000 1.0000
66.2300 826.0000 1.0000
66.2400 834.0000 1.0000
66.2500 869.0000 1.0000
66.2600 913.0000 1.0000
66.2700 979.0000 1.0000
66.2800 966.0000 1.0000
66.2900 1036.0000 1.0000
66.3000 1071.0000 1.0000
66.3100 1077.0000 1.0000
66.3200 1066.0000 1.0000
66.3300 1066.0000 1.0000
66.3400 1088.0000 1.0000
66.3500 1067.0000 1.0000
66.3600 1068.0000 1.0000
66.3700 1061.0000 1.0000
66.3800 989.0000 1.0000
66.3900 1007.0000 1.0000
66.4000 1022.0000 1.0000
66.4100 969.0000 1.0000
66.4200 986.0000 1.0000
66.4300 951.0000 1.0000
66.4400 939.0000 1.0000
66.4500 941.0000 1.0000
66.4600 917.0000 1.0000
66.4700 929.0000 1.0000
66.4800 921.0000 1.0000
66.4900 893.0000 1.0000
66.5000 861.0000 1.0000
66.5100 813.0000 1.0000
66.5200 808.0000 1.0000
66.5300 763.0000 1.0000
66.5400 815.0000 1.0000
66.5500 745.0000 1.0000
66.5600 703.0000 1.0000
66.5700 723.0000 1.0000
66.5800 702.0000 1.0000
66.5900 673.0000 1.0000
66.6000 667.0000 1.0000
66.6100 625.0000 1.0000
66.6200 550.0000 1.0000
66.6300 553.0000 1.0000
66.6400 515.0000 1.0000
66.6500 537.0000 1.0000
66.6600 484.0000 1.0000
66.6700 457.0000 1.0000
66.6800 478.0000 1.0000
66.6900 489.0000 1.0000
66.7000 436.0000 1.0000
66.7100 423.0000 1.0000
66.7200 428.0000 1.0000
66.7300 417.0000 1.0000
66.7400 415.0000 1.0000
66.7500 399.0000 1.0000
66.7600 391.0000 1.0000
66.7700 355.0000 1.0000
66.7800 371.0000 1.0000
66.7900 382.0000 1.0000
66.8000 389.0000 1.0000
66.8100 367.0000 1.0000
66.8200 339.0000 1.0000
66.8300 367.0000 1.0000
66.8400 321.0000 1.0000
66.8500 341.0000 1.0000
66.8600 365.0000 1.0000
66.8700 331.0000 1.0000
66.8800 325.0000 1.0000
66.8900 302.0000 1.0000
66.9000 328.0000 1.0000
66.9100 317.0000 1.0000
66.9200 316.0000 1.0000
66.9300 312.0000 1.0000
66.9400 314.0000 1.0000
66.9500 297.0000 1.0000
66.9600 320.0000 1.0000
66.9700 313.0000 1.0000
66.9800 319.0000 1.0000
66.9900 296.0000 1.0000
67.0000 295.0000 1.0000
67.0100 301.0000 1.0000
67.0200 276.0000 1.0000
67.0300 283.0000 1.0000
67.0400 322.0000 1.0000
67.0500 294.0000 1.0000
67.0600 296.0000 1.0000
67.0700 304.0000 1.0000
67.0800 279.0000 1.0000
67.0900 260.0000 1.0000
67.1000 309.0000 1.0000
67.1100 293.0000 1.0000
67.1200 270.0000 1.0000
67.1300 290.0000 1.0000
67.1400 293.0000 1.0000
67.1500 278.0000 1.0000
67.1600 266.0000 1.0000
67.1700 268.0000 1.0000
67.1800 278.0000 1.0000
67.1900 275.0000 1.0000
67.2000 305.0000 1.0000
67.2100 272.0000 1.0000
67.2200 257.0000 1.0000
67.2300 255.0000 1.0000
67.2400 273.0000 1.0000
67.2500 299.0000 1.0000
67.2600 265.0000 1.0000
67.2700 276.0000 1.0000
67.2800 280.0000 1.0000
67.2900 284.0000 1.0000
67.3000 275.0000 1.0000
67.3100 272.0000 1.0000
67.3200 283.0000 1.0000
67.3300 256.0000 1.0000
67.3400 283.0000 1.0000
67.3500 267.0000 1.0000
67.3600 280.0000 1.0000
67.3700 275.0000 1.0000
67.3800 293.0000 1.0000
67.3900 267.0000 1.0000
67.4000 290.0000 1.0000
67.4100 263.0000 1.0000
67.4200 269.0000 1.0000
67.4300 281.0000 1.0000
67.4400 265.0000 1.0000
67.4500 292.0000 1.0000
67.4600 260.0000 1.0000
67.4700 253.0000 1.0000
67.4800 239.0000 1.0000
67.4900 278.0000 1.0000
67.5000 267.0000 1.0000
67.5100 254.0000 1.0000
67.5200 269.0000 1.0000
67.5300 267.0000 1.0000
67.5400 266.0000 1.0000
67.5500 245.0000 1.0000
67.5600 259.0000 1.0000
67.5700 255.0000 1.0000
67.5800 251.0000 1.0000
67.5900 259.0000 1.0000
67.6000 259.0000 1.0000
67.6100 254.0000 1.0000
67.6200 258.0000 1.0000
67.6300 258.0000 1.0000
67.6400 239.0000 1.0000
67.6500 256.0000 1.0000
67.6600 274.0000 1.0000
67.6700 283.0000 1.0000
67.6800 260.0000 1.0000
67.6900 258.0000 1.0000
67.7000 254.0000 1.0000
67.7100 269.0000 1.0000
67.7200 265.0000 1.0000
67.7300 268.0000 1.0000
67.7400 257.0000 1.0000
67.7500 256.0000 1.0000
67.7600 280.0000 1.0000
67.7700 273.0000 1.0000
67.7800 281.0000 1.0000
67.7900 253.0000 1.0000
67.8000 263.0000 1.0000
67.8100 256.0000 1.0000
67.8200 290.0000 1.0000
67.8300 247.0000 1.0000
67.8400 259.0000 1.0000
67.8500 263.0000 1.0000
67.8600 267.0000 1.0000
67.8700 263.0000 1.0000
67.8800 263.0000 1.0000
67.8900 292.0000 1.0000
67.9000 256.0000 1.0000
67.9100 268.0000 1.0000
67.9200 263.0000 1.0000
67.9300 264.0000 1.0000
67.9400 225.0000 1.0000
67.9500 262.0000 1.0000
67.9600 256.0000 1.0000
67.9700 244.0000 1.0000
67.9800 260.0000 1.0000
67.9900 293.0000 1.0000
68.0000 268.0000 1.0000
68.0100 265.0000 1.0000
68.0200 268.0000 1.0000
68.0300 280.0000 1.0000
68.0400 261.0000 1.0000
68.0500 266.0000 1.0000
68.0600 214.0000 1.0000
68.0700 233.0000 1.0000
68.0800 283.0000 1.0000
68.0900 291.0000 1.0000
68.1000 267.0000 1.0000
68.1100 258.0000 1.0000
68.1200 253.0000 1.0000
68.1300 276.0000 1.0000
68.1400 273.0000 1.0000
68.1500 253.0000 1.0000
68.1600 265.0000 1.0000
68.1700 225.0000 1.0000
68.1800 254.0000 1.0000
68.1900 261.0000 1.0000
68.2000 243.0000 1.0000
68.2100 248.0000 1.0000
68.2200 254.0000 1.0000
68.2300 258.0000 1.0000
68.2400 241.0000 1.0000
68.2500 268.0000 1.0000
68.2600 250.0000 1.0000
68.2700 273.0000 1.0000
68.2800 266.0000 1.0000
68.2900 247.0000 1.0000
68.3000 257.0000 1.0000
68.3100 262.0000 1.0000
68.3200 228.0000 1.0000
68.3300 231.0000 1.0000
68.3400 212.0000 1.0000
68.3500 242.0000 1.0000
68.3600 240.0000 1.0000
68.3700 267.0000 1.0000
68.3800 230.0000 1.0000
68.3900 269.0000 1.0000
68.4000 267.0000 1.0000
68.4100 262.0000 1.0000
68.4200 255.0000 1.0000
68.4300 248.0000 1.0000
68.4400 244.0000 1.0000
68.4500 275.0000 1.0000
68.4600 289.0000 1.0000
68.4700 269.0000 1.0000
68.4800 259.0000 1.0000
68.4900 254.0000 1.0000
68.5000 233.0000 1.0000
68.5100 241.0000 1.0000
68.5200 252.0000 1.0000
68.5300 258.0000 1.0000
68.5400 251.0000 1.0000
68.5500 259.0000 1.0000
68.5600 259.0000 1.0000
68.5700 272.0000 1.0000
68.5800 266.0000 1.0000
68.5900 236.0000 1.0000
68.6000 251.0000 1.0000
68.6100 250.0000 1.0000
68.6200 245.0000 1.0000
68.6300 258.0000 1.0000
68.6400 242.0000 1.0000
68.6500 255.0000 1.0000
68.6600 271.0000 1.0000
68.6700 296.0000 1.0000
68.6800 250.0000 1.0000
68.6900 256.0000 1.0000
68.7000 247.0000 1.0000
68.7100 276.0000 1.0000
68.7200 275.0000 1.0000
68.7300 253.0000 1.0000
68.7400 233.0000 1.0000
68.7500 244.0000 1.0000
68.7600 243.0000 1.0000
68.7700 243.0000 1.0000
68.7800 268.0000 1.0000
68.7900 246.0000 1.0000
68.8000 258.0000 1.0000
68.8100 266.0000 1.0000
68.8200 274.0000 1.0000
68.8300 249.0000 1.0000
68.8400 280.0000 1.0000
68.8500 247.0000 1.0000
68.8600 228.0000 1.0000
68.8700 233.0000 1.0000
68.8800 212.0000 1.0000
68.8900 227.0000 1.0000
68.9000 237.0000 1.0000
68.9100 232.0000 1.0000
68.9200 235.0000 1.0000
68.9300 231.0000 1.0000
68.9400 235.0000 1.0000
68.9500 238.0000 1.0000
68.9600 254.0000 1.0000
68.9700 248.0000 1.0000
68.9800 235.0000 1.0000
68.9900 248.0000 1.0000
69.0000 241.0000 1.0000
69.0100 271.0000 1.0000
69.0200 257.0000 1.0000
69.0300 236.0000 1.0000
69.0400 239.0000 1.0000
69.0500 265.0000 1.0000
69.0600 266.0000 1.0000
69.0700 258.0000 1.0000
69.0800 248.0000 1.0000
69.0900 254.0000 1.0000
69.1000 257.0000 1.0000
69.1100 220.0000 1.0000
69.1200 244.0000 1.0000
69.1300 250.0000 1.0000
69.1400 258.0000 1.0000
69.1500 271.0000 1.0000
69.1600 246.0000 1.0000
69.1700 261.0000 1.0000
69.1800 258.0000 1.0000
69.1900 254.0000 1.0000
69.2000 245.0000 1.0000
69.2100 263.0000 1.0000
69.2200 241.0000 1.0000
69.2300 272.0000 1.0000
69.2400 273.0000 1.0000
69.2500 242.0000 1.0000
69.2600 257.0000 1.0000
69.2700 253.0000 1.0000
69.2800 229.0000 1.0000
69.2900 234.0000 1.0000
69.3000 241.0000 1.0000
69.3100 247.0000 1.0000
69.3200 235.0000 1.0000
69.3300 229.0000 1.0000
69.3400 239.0000 1.0000
69.3500 246.0000 1.0000
69.3600 257.0000 1.0000
69.3700 243.0000 1.0000
69.3800 266.0000 1.0000
69.3900 253.0000 1.0000
69.4000 232.0000 1.0000
69.4100 242.0000 1.0000
69.4200 255.0000 1.0000
69.4300 245.0000 1.0000
69.4400 242.0000 1.0000
69.4500 224.0000 1.0000
69.4600 237.0000 1.0000
69.4700 268.0000 1.0000
69.4800 254.0000 1.0000
69.4900 246.0000 1.0000
69.5000 257.0000 1.0000
69.5100 262.0000 1.0000
69.5200 266.0000 1.0000
69.5300 238.0000 1.0000
69.5400 238.0000 1.0000
69.5500 231.0000 1.0000
69.5600 247.0000 1.0000
69.5700 243.0000 1.0000
69.5800 245.0000 1.0000
69.5900 255.0000 1.0000
69.6000 269.0000 1.0000
69.6100 253.0000 1.0000
69.6200 278.0000 1.0000
69.6300 251.0000 1.0000
69.6400 253.0000 1.0000
69.6500 246.0000 1.0000
69.6600 258.0000 1.0000
69.6700 243.0000 1.0000
69.6800 260.0000 1.0000
69.6900 269.0000 1.0000
69.7000 244.0000 1.0000
69.7100 224.0000 1.0000
69.7200 253.0000 1.0000
69.7300 259.0000 1.0000
69.7400 257.0000 1.0000
69.7500 250.0000 1.0000
69.7600 258.0000 1.0000
69.7700 239.0000 1.0000
69.7800 270.0000 1.0000
69.7900 276.0000 1.0000
69.8000 254.0000 1.0000
69.8100 248.0000 1.0000
69.8200 232.0000 1.0000
69.8300 246.0000 1.0000
69.8400 233.0000 1.0000
69.8500 270.0000 1.0000
69.8600 257.0000 1.0000
69.8700 281.0000 1.0000
69.8800 266.0000 1.0000
69.8900 245.0000 1.0000
69.9000 254.0000 1.0000
69.9100 260.0000 1.0000
69.9200 249.0000 1.0000
69.9300 248.0000 1.0000
69.9400 227.0000 1.0000
69.9500 240.0000 1.0000
69.9600 278.0000 1.0000
69.9700 256.0000 1.0000
69.9800 249.0000 1.0000
69.9900 211.0000 1.0000
70.0000 239.0000 1.0000
*RAS_INT_END
*RAS_TEMPERATURE_START
*RAS_TEMPERATURE_END
*RAS_DATA_END
