*RAS_DATA_START
*RAS_HEADER_START
*DISP_FMT_X "%.2f"
*DISP_FMT_Y "%.0f"
*DISP_FULLSCALE "13365.0000000000"
*DISP_LINE_COLOR "255.0000000000"
*DISP_LINE_STYLE "0.0000000000"
*DISP_LINE_WIDTH "0.2500000000"
*DISP_NOTE "測定データ-2"
*DISP_OFFSET_Y "0.0000000000"
*DISP_PEAKSEARCH_UNIT_Y "cps"
*DISP_RANGE_BOTTOM "0.0000000000"
*DISP_RANGE_LEFT "20.0000000000"
*DISP_RANGE_LOGCUTOFF "0.0100000000"
*DISP_RANGE_RIGHT "70.0000000000"
*DISP_RANGE_TOP "13365.0000000000"
*DISP_SCALE_MODE_Y "0.0000000000"
*DISP_TAB_NAME "2θ/θ"
*DISP_TITLE_Y "強度"
*DISP_UNIT_Y "cps"
*DISP_WINDOW_NAME "MSG_MACROENGINE"
*FILE_COMMENT " "
*FILE_MD5 ""
*FILE_MEMO " "
*FILE_OPERATOR "Administrator"
*FILE_SAMPLE " "
*FILE_TYPE "RAS_RAW"
*FILE_USERGROUP "システムマネージャ"
*FILE_VERSION "1.0000000000"
*HW_ATTACHMENT_ID "ATT0025"
*HW_ATTACHMENT_NAME "標準|Standard"
*HW_COUNTER_ID-0 "CUT0025"
*HW_COUNTER_ID-1 "CUT0020"
*HW_COUNTER_ID-2 "CUT0020"
*HW_COUNTER_ID-3 "CSL0021"
*HW_COUNTER_ID-4 "CMC0021"
*HW_COUNTER_NAME-0 "D/teX Ultra|D/teX Ultra"
*HW_COUNTER_NAME-1 "None|None"
*HW_COUNTER_NAME-2 "None|None"
*HW_COUNTER_NAME-3 "BBM|BBM"
*HW_COUNTER_NAME-4 "検出器モノクロメータ|Detector monochromator"
*HW_COUNTER_SELECT_NAME "D/teX Ultra|D/teX Ultra"
*HW_GONIOMETER_ID "GON0023"
*HW_GONIOMETER_NAME "SmartLab|SmartLab"
*HW_GONIOMETER_RADIUS-0 "90.0"
*HW_GONIOMETER_RADIUS-1 "114.0"
*HW_GONIOMETER_RADIUS-2 "190.0"
*HW_GONIOMETER_RADIUS-3 "300.0"
*HW_GONIOMETER_RADIUS-4 "187.0"
*HW_GONIOMETER_RADIUS-5 "300.0"
*HW_GONIOMETER_RADIUS-6 "113.0"
*HW_GONIOMETER_RADIUS-7 "331.0"
*HW_I_OPT_ID-0 "CBO0021"
*HW_I_OPT_ID-1 "ICR0023"
*HW_I_OPT_ID-2 "ISL0021"
*HW_I_OPT_ID-3 "ISO0021"
*HW_I_OPT_ID-4 "IAD0021"
*HW_I_OPT_ID-5 "IPR0001"
*HW_I_OPT_NAME-0 "CBOユニット|CBO unit"
*HW_I_OPT_NAME-1 "標準入射光学ユニット|Standard incident optical unit"
*HW_I_OPT_NAME-2 "標準入射スリットボックス|Standard incident slit box"
*HW_I_OPT_NAME-3 "入射平行スリット|Incident parallel slit"
*HW_I_OPT_NAME-4 "長手制限スリット|Length limiting slit"
*HW_I_OPT_NAME-5 "None|None"
*HW_R_ATTENUATER_AUTOMODE "0"
*HW_R_OPT_ID-0 "RSS0021"
*HW_R_OPT_ID-1 "RCR0023"
*HW_R_OPT_ID-2 "RSO0021"
*HW_R_OPT_ID-3 "RRS0021"
*HW_R_OPT_ID-4 "ATN0021"
*HW_R_OPT_ID-5 "RFL0021"
*HW_R_OPT_ID-6 "RAD0021"
*HW_R_OPT_NAME-0 "標準受光スリットボックス1|Standard receiving slit box # 1"
*HW_R_OPT_NAME-1 "標準受光光学ユニット1|Standard receiving unit # 1"
*HW_R_OPT_NAME-2 "標準受光光学ユニット2|Standard receiving optical unit # 2"
*HW_R_OPT_NAME-3 "標準受光スリットボックス2|Standard receiving slit box # 2"
*HW_R_OPT_NAME-4 "標準アッテネータ|Standard Attenuator"
*HW_R_OPT_NAME-5 "Cu Kβ|Cu K-beta"
*HW_R_OPT_NAME-6 "調整用受光スリット|Alignment receiving slit"
*HW_SAMPLE_HOLDER_ID "SMP0023"
*HW_SAMPLE_HOLDER_NAME "標準Zステージ|Standard Z stage"
*HW_XG_CURRENT_MAX "50"
*HW_XG_CURRENT_MIN "2"
*HW_XG_CURRENT_RESOLUTION "1"
*HW_XG_CURRENT_UNIT "mA"
*HW_XG_FOCUS "1mm x 10mm"
*HW_XG_FOCUS_TYPE "Normal"
*HW_XG_ID ""
*HW_XG_NAME "3kW 封入管(ID:1200)|3kW Sealed tube(ID:1200)"
*HW_XG_TARGET_ATOMIC_NUMBER "29.0000000000"
*HW_XG_TARGET_NAME "Cu"
*HW_XG_TYPE "Hermetic"
*HW_XG_VOLTAGE_MAX "60"
*HW_XG_VOLTAGE_MIN "20"
*HW_XG_VOLTAGE_RESOLUTION "1"
*HW_XG_VOLTAGE_UNIT "kV"
*HW_XG_WATT_MAX "1.500"
*HW_XG_WATT_UNIT "kW"
*HW_XG_WAVE_LENGTH_ALPHA1 "1.540593"
*HW_XG_WAVE_LENGTH_ALPHA2 "1.544414"
*HW_XG_WAVE_LENGTH_BETA "1.392250"
*MEAS_COND_AXIS_NAME-0 "2θ/θ"
*MEAS_COND_AXIS_NAME-1 "2θ"
*MEAS_COND_AXIS_NAME-2 "ω"
*MEAS_COND_AXIS_NAME-3 "Z"
*MEAS_COND_AXIS_NAME-4 "2θ/ω"
*MEAS_COND_AXIS_NAME-5 "θs"
*MEAS_COND_AXIS_NAME-6 "θd"
*MEAS_COND_AXIS_NAME-7 "Ts"
*MEAS_COND_AXIS_NAME-8 "CBO選択スリット"
*MEAS_COND_AXIS_NAME-9 "M"
*MEAS_COND_AXIS_NAME-10 "入射平行スリット"
*MEAS_COND_AXIS_NAME-11 "入射スリット"
*MEAS_COND_AXIS_NAME-12 ""
*MEAS_COND_AXIS_NAME-13 "Zs"
*MEAS_COND_AXIS_NAME-14 "入射光学素子"
*MEAS_COND_AXIS_NAME-15 "長手制限スリット"
*MEAS_COND_AXIS_NAME-16 "センタースリット"
*MEAS_COND_AXIS_NAME-17 "フィルター"
*MEAS_COND_AXIS_NAME-18 "受光スリット1"
*MEAS_COND_AXIS_NAME-19 "受光スリット2"
*MEAS_COND_AXIS_NAME-20 "受光光学素子"
*MEAS_COND_AXIS_NAME-21 "受光平行スリット"
*MEAS_COND_AXIS_NAME-22 "調整用受光スリット"
*MEAS_COND_AXIS_NAME-23 ""
*MEAS_COND_AXIS_NAME-24 ""
*MEAS_COND_AXIS_NAME-25 "Zd"
*MEAS_COND_AXIS_NAME-26 "アッテネータ"
*MEAS_COND_AXIS_NAME-27 "検出器モノクロメータ"
*MEAS_COND_AXIS_NAME-28 "モノクロメータスリット"
*MEAS_COND_AXIS_NAME-29 "プライマリビーム"
*MEAS_COND_AXIS_NAME-30 "PHA"
*MEAS_COND_AXIS_NAME_INTERNAL-0 "TwoThetaTheta"
*MEAS_COND_AXIS_NAME_INTERNAL-1 "TwoTheta"
*MEAS_COND_AXIS_NAME_INTERNAL-2 "Omega"
*MEAS_COND_AXIS_NAME_INTERNAL-3 "Z"
*MEAS_COND_AXIS_NAME_INTERNAL-4 "TwoThetaOmega"
*MEAS_COND_AXIS_NAME_INTERNAL-5 "ThetaS"
*MEAS_COND_AXIS_NAME_INTERNAL-6 "ThetaD"
*MEAS_COND_AXIS_NAME_INTERNAL-7 "Ts"
*MEAS_COND_AXIS_NAME_INTERNAL-8 "CBO"
*MEAS_COND_AXIS_NAME_INTERNAL-9 "CBO-M"
*MEAS_COND_AXIS_NAME_INTERNAL-10 "IncidentSollerSlit"
*MEAS_COND_AXIS_NAME_INTERNAL-11 "IncidentSlitBox"
*MEAS_COND_AXIS_NAME_INTERNAL-12 "IncidentSlitBox-_Axis"
*MEAS_COND_AXIS_NAME_INTERNAL-13 "Zs"
*MEAS_COND_AXIS_NAME_INTERNAL-14 "IncidentMonochromator"
*MEAS_COND_AXIS_NAME_INTERNAL-15 "IncidentAxdSlit"
*MEAS_COND_AXIS_NAME_INTERNAL-16 "CenterSlit"
*MEAS_COND_AXIS_NAME_INTERNAL-17 "Filter"
*MEAS_COND_AXIS_NAME_INTERNAL-18 "ReceivingSlitBox1"
*MEAS_COND_AXIS_NAME_INTERNAL-19 "ReceivingSlitBox2"
*MEAS_COND_AXIS_NAME_INTERNAL-20 "ReceivingOptics"
*MEAS_COND_AXIS_NAME_INTERNAL-21 "ReceivingSollerSlit"
*MEAS_COND_AXIS_NAME_INTERNAL-22 "ReceivingAxdSlit"
*MEAS_COND_AXIS_NAME_INTERNAL-23 "ReceivingSlitBox1-_Axis"
*MEAS_COND_AXIS_NAME_INTERNAL-24 "ReceivingSlitBox2-_Axis"
*MEAS_COND_AXIS_NAME_INTERNAL-25 "ReceivingSlitBox2-Zd"
*MEAS_COND_AXIS_NAME_INTERNAL-26 "Attenuator"
*MEAS_COND_AXIS_NAME_INTERNAL-27 "CounterMonochromator"
*MEAS_COND_AXIS_NAME_INTERNAL-28 "CounterSlit"
*MEAS_COND_AXIS_NAME_INTERNAL-29 "IncidentPrimary"
*MEAS_COND_AXIS_NAME_INTERNAL-30 "PHA"
*MEAS_COND_AXIS_NAME_MAGICNO-0 "83951616.0000000000"
*MEAS_COND_AXIS_NAME_MAGICNO-1 "268632064.0000000000"
*MEAS_COND_AXIS_NAME_MAGICNO-2 "268500992.0000000000"
*MEAS_COND_AXIS_NAME_MAGICNO-3 "285278208.0000000000"
*MEAS_COND_AXIS_NAME_MAGICNO-4 "83951616.0000000000"
*MEAS_COND_AXIS_NAME_MAGICNO-5 "131072.0000000000"
*MEAS_COND_AXIS_NAME_MAGICNO-6 "131072.0000000000"
*MEAS_COND_AXIS_NAME_MAGICNO-7 "318898176.0000000000"
*MEAS_COND_AXIS_NAME_MAGICNO-8 "20971521.0000000000"
*MEAS_COND_AXIS_NAME_MAGICNO-9 "285343744.0000000000"
*MEAS_COND_AXIS_NAME_MAGICNO-10 "20971521.0000000000"
*MEAS_COND_AXIS_NAME_MAGICNO-11 "22020097.0000000000"
*MEAS_COND_AXIS_NAME_MAGICNO-12 "25165824.0000000000"
*MEAS_COND_AXIS_NAME_MAGICNO-13 "318898176.0000000000"
*MEAS_COND_AXIS_NAME_MAGICNO-14 "1.0000000000"
*MEAS_COND_AXIS_NAME_MAGICNO-15 "20971521.0000000000"
*MEAS_COND_AXIS_NAME_MAGICNO-16 "20971521.0000000000"
*MEAS_COND_AXIS_NAME_MAGICNO-17 "20971521.0000000000"
*MEAS_COND_AXIS_NAME_MAGICNO-18 "23068673.0000000000"
*MEAS_COND_AXIS_NAME_MAGICNO-19 "23068673.0000000000"
*MEAS_COND_AXIS_NAME_MAGICNO-20 "20971521.0000000000"
*MEAS_COND_AXIS_NAME_MAGICNO-21 "20971521.0000000000"
*MEAS_COND_AXIS_NAME_MAGICNO-22 "20971521.0000000000"
*MEAS_COND_AXIS_NAME_MAGICNO-23 "25165824.0000000000"
*MEAS_COND_AXIS_NAME_MAGICNO-24 "25165824.0000000000"
*MEAS_COND_AXIS_NAME_MAGICNO-25 "285343744.0000000000"
*MEAS_COND_AXIS_NAME_MAGICNO-26 "17301505.0000000000"
*MEAS_COND_AXIS_NAME_MAGICNO-27 "20971521.0000000000"
*MEAS_COND_AXIS_NAME_MAGICNO-28 "20971521.0000000000"
*MEAS_COND_AXIS_NAME_MAGICNO-29 "20971521.0000000000"
*MEAS_COND_AXIS_NAME_MAGICNO-30 "0.0000000000"
*MEAS_COND_AXIS_OFFSET-0 "-"
*MEAS_COND_AXIS_OFFSET-1 "-0.1081000000"
*MEAS_COND_AXIS_OFFSET-2 "-1.4215000000"
*MEAS_COND_AXIS_OFFSET-3 "-"
*MEAS_COND_AXIS_OFFSET-4 "-"
*MEAS_COND_AXIS_OFFSET-5 "-1.4215000000"
*MEAS_COND_AXIS_OFFSET-6 "1.3134000000"
*MEAS_COND_AXIS_OFFSET-7 "-"
*MEAS_COND_AXIS_OFFSET-8 "-"
*MEAS_COND_AXIS_OFFSET-9 "-"
*MEAS_COND_AXIS_OFFSET-10 "-"
*MEAS_COND_AXIS_OFFSET-11 "-"
*MEAS_COND_AXIS_OFFSET-12 "-"
*MEAS_COND_AXIS_OFFSET-13 "-"
*MEAS_COND_AXIS_OFFSET-14 "-"
*MEAS_COND_AXIS_OFFSET-15 "-"
*MEAS_COND_AXIS_OFFSET-16 "-"
*MEAS_COND_AXIS_OFFSET-17 "-"
*MEAS_COND_AXIS_OFFSET-18 "-"
*MEAS_COND_AXIS_OFFSET-19 "-"
*MEAS_COND_AXIS_OFFSET-20 "-"
*MEAS_COND_AXIS_OFFSET-21 "-"
*MEAS_COND_AXIS_OFFSET-22 "-"
*MEAS_COND_AXIS_OFFSET-23 "-"
*MEAS_COND_AXIS_OFFSET-24 "-"
*MEAS_COND_AXIS_OFFSET-25 "-"
*MEAS_COND_AXIS_OFFSET-26 "-"
*MEAS_COND_AXIS_OFFSET-27 "-"
*MEAS_COND_AXIS_OFFSET-28 "-"
*MEAS_COND_AXIS_OFFSET-29 "-"
*MEAS_COND_AXIS_OFFSET-30 "-"
*MEAS_COND_AXIS_POSITION-0 "0.0000000000"
*MEAS_COND_AXIS_POSITION-1 "0.0000000000"
*MEAS_COND_AXIS_POSITION-2 "0.0000000000"
*MEAS_COND_AXIS_POSITION-3 "-2.3638400000"
*MEAS_COND_AXIS_POSITION-4 "0.0000000000"
*MEAS_COND_AXIS_POSITION-5 "0.0000000000"
*MEAS_COND_AXIS_POSITION-6 "0.0000000000"
*MEAS_COND_AXIS_POSITION-7 "-0.4278800000"
*MEAS_COND_AXIS_POSITION-8 "BB"
*MEAS_COND_AXIS_POSITION-9 "0.0000000000"
*MEAS_COND_AXIS_POSITION-10 "Soller_slit_5.0deg"
*MEAS_COND_AXIS_POSITION-11 "2/3deg"
*MEAS_COND_AXIS_POSITION-12 "2.2088000000"
*MEAS_COND_AXIS_POSITION-13 "-0.4140600000"
*MEAS_COND_AXIS_POSITION-14 "0.0000000000"
*MEAS_COND_AXIS_POSITION-15 "10.0mm"
*MEAS_COND_AXIS_POSITION-16 "None"
*MEAS_COND_AXIS_POSITION-17 "Cu_K-beta"
*MEAS_COND_AXIS_POSITION-18 "13.000mm"
*MEAS_COND_AXIS_POSITION-19 "13.000mm"
*MEAS_COND_AXIS_POSITION-20 "No_unit"
*MEAS_COND_AXIS_POSITION-21 "Soller_slit_5.0deg"
*MEAS_COND_AXIS_POSITION-22 "None"
*MEAS_COND_AXIS_POSITION-23 "13.0000000000"
*MEAS_COND_AXIS_POSITION-24 "13.0000000000"
*MEAS_COND_AXIS_POSITION-25 "0.0109400000"
*MEAS_COND_AXIS_POSITION-26 "Open"
*MEAS_COND_AXIS_POSITION-27 "None"
*MEAS_COND_AXIS_POSITION-28 "None"
*MEAS_COND_AXIS_POSITION-29 "None"
*MEAS_COND_AXIS_POSITION-30 "38.0000000000"
*MEAS_COND_AXIS_UNIT-0 "deg"
*MEAS_COND_AXIS_UNIT-1 "deg"
*MEAS_COND_AXIS_UNIT-2 "deg"
*MEAS_COND_AXIS_UNIT-3 "mm"
*MEAS_COND_AXIS_UNIT-4 "deg"
*MEAS_COND_AXIS_UNIT-5 "deg"
*MEAS_COND_AXIS_UNIT-6 "deg"
*MEAS_COND_AXIS_UNIT-7 "mm"
*MEAS_COND_AXIS_UNIT-8 ""
*MEAS_COND_AXIS_UNIT-9 "pulse"
*MEAS_COND_AXIS_UNIT-10 ""
*MEAS_COND_AXIS_UNIT-11 ""
*MEAS_COND_AXIS_UNIT-12 "mm"
*MEAS_COND_AXIS_UNIT-13 "mm"
*MEAS_COND_AXIS_UNIT-14 ""
*MEAS_COND_AXIS_UNIT-15 ""
*MEAS_COND_AXIS_UNIT-16 ""
*MEAS_COND_AXIS_UNIT-17 ""
*MEAS_COND_AXIS_UNIT-18 ""
*MEAS_COND_AXIS_UNIT-19 ""
*MEAS_COND_AXIS_UNIT-20 ""
*MEAS_COND_AXIS_UNIT-21 ""
*MEAS_COND_AXIS_UNIT-22 ""
*MEAS_COND_AXIS_UNIT-23 "mm"
*MEAS_COND_AXIS_UNIT-24 "mm"
*MEAS_COND_AXIS_UNIT-25 "mm"
*MEAS_COND_AXIS_UNIT-26 ""
*MEAS_COND_AXIS_UNIT-27 ""
*MEAS_COND_AXIS_UNIT-28 ""
*MEAS_COND_AXIS_UNIT-29 ""
*MEAS_COND_AXIS_UNIT-30 "div"
*MEAS_COND_COUNTER_CNTLOSS_CORR "0.0000000000"
*MEAS_COND_COUNTER_PHABASE "38.0000000000"
*MEAS_COND_COUNTER_PHAWINDOW "16.0000000000"
*MEAS_COND_COUNTER_PHA_UNIT "div"
*MEAS_COND_COUNTER_TAUDIFF "30.0000000000"
*MEAS_COND_COUNTER_TAUINT "0.0000000000"
*MEAS_COND_IRRADIATION_MODE "OFF"
*MEAS_COND_IRRADIATION_WIDTH ""
*MEAS_COND_OPT_ATTR "集中法"
*MEAS_COND_OPT_NAME "@集中法"
*MEAS_COND_UNSYMMETRIC_MODE "OFF"
*MEAS_COND_XG_CURRENT "30.0000000000"
*MEAS_COND_XG_VOLTAGE "40.0000000000"
*MEAS_COND_XG_WAVE_TYPE "Ka"
*MEAS_DATA_COUNT "5001.0000000000"
*MEAS_SCAN_AXIS_X "2θ/θ"
*MEAS_SCAN_AXIS_X_INTERNAL "TwoThetaTheta"
*MEAS_SCAN_END_TIME "06/03/22 12:14:53"
*MEAS_SCAN_MODE "CONTINUOUS"
*MEAS_SCAN_MONITOR "0"
*MEAS_SCAN_RESOLUTION_X "0.0002"
*MEAS_SCAN_SPEED "2.5"
*MEAS_SCAN_SPEED_UNIT "deg/min"
*MEAS_SCAN_START "20.0000000000"
*MEAS_SCAN_START_TIME "06/03/22 11:53:28"
*MEAS_SCAN_STEP "0.0100000000"
*MEAS_SCAN_STOP "70.0000000000"
*MEAS_SCAN_UNIT_X "deg"
*MEAS_SCAN_UNIT_Y "counts"
*RAS_HEADER_END
*RAS_INT_START
20.0000 772.0000 1.0000
20.0100 759.0000 1.0000
20.0200 750.0000 1.0000
20.0300 796.0000 1.0000
20.0400 776.0000 1.0000
20.0500 791.0000 1.0000
20.0600 725.0000 1.0000
20.0700 769.0000 1.0000
20.0800 818.0000 1.0000
20.0900 787.0000 1.0000
20.1000 772.0000 1.0000
20.1100 813.0000 1.0000
20.1200 862.0000 1.0000
20.1300 849.0000 1.0000
20.1400 810.0000 1.0000
20.1500 821.0000 1.0000
20.1600 774.0000 1.0000
20.1700 770.0000 1.0000
20.1800 789.0000 1.0000
20.1900 816.0000 1.0000
20.2000 771.0000 1.0000
20.2100 787.0000 1.0000
20.2200 824.0000 1.0000
20.2300 775.0000 1.0000
20.2400 782.0000 1.0000
20.2500 771.0000 1.0000
20.2600 810.0000 1.0000
20.2700 787.0000 1.0000
20.2800 759.0000 1.0000
20.2900 792.0000 1.0000
20.3000 803.0000 1.0000
20.3100 806.0000 1.0000
20.3200 766.0000 1.0000
20.3300 811.0000 1.0000
20.3400 775.0000 1.0000
20.3500 767.0000 1.0000
20.3600 813.0000 1.0000
20.3700 814.0000 1.0000
20.3800 804.0000 1.0000
20.3900 808.0000 1.0000
20.4000 824.0000 1.0000
20.4100 804.0000 1.0000
20.4200 833.0000 1.0000
20.4300 788.0000 1.0000
20.4400 760.0000 1.0000
20.4500 809.0000 1.0000
20.4600 764.0000 1.0000
20.4700 774.0000 1.0000
20.4800 763.0000 1.0000
20.4900 777.0000 1.0000
20.5000 770.0000 1.0000
20.5100 799.0000 1.0000
20.5200 759.0000 1.0000
20.5300 778.0000 1.0000
20.5400 770.0000 1.0000
20.5500 771.0000 1.0000
20.5600 802.0000 1.0000
20.5700 817.0000 1.0000
20.5800 795.0000 1.0000
20.5900 743.0000 1.0000
20.6000 798.0000 1.0000
20.6100 780.0000 1.0000
20.6200 789.0000 1.0000
20.6300 803.0000 1.0000
20.6400 790.0000 1.0000
20.6500 794.0000 1.0000
20.6600 826.0000 1.0000
20.6700 771.0000 1.0000
20.6800 798.0000 1.0000
20.6900 782.0000 1.0000
20.7000 776.0000 1.0000
20.7100 752.0000 1.0000
20.7200 817.0000 1.0000
20.7300 766.0000 1.0000
20.7400 779.0000 1.0000
20.7500 778.0000 1.0000
20.7600 777.0000 1.0000
20.7700 841.0000 1.0000
20.7800 777.0000 1.0000
20.7900 795.0000 1.0000
20.8000 769.0000 1.0000
20.8100 786.0000 1.0000
20.8200 812.0000 1.0000
20.8300 808.0000 1.0000
20.8400 785.0000 1.0000
20.8500 846.0000 1.0000
20.8600 809.0000 1.0000
20.8700 763.0000 1.0000
20.8800 814.0000 1.0000
20.8900 759.0000 1.0000
20.9000 799.0000 1.0000
20.9100 815.0000 1.0000
20.9200 762.0000 1.0000
20.9300 759.0000 1.0000
20.9400 784.0000 1.0000
20.9500 806.0000 1.0000
20.9600 792.0000 1.0000
20.9700 769.0000 1.0000
20.9800 804.0000 1.0000
20.9900 832.0000 1.0000
21.0000 790.0000 1.0000
21.0100 764.0000 1.0000
21.0200 784.0000 1.0000
21.0300 787.0000 1.0000
21.0400 783.0000 1.0000
21.0500 788.0000 1.0000
21.0600 750.0000 1.0000
21.0700 754.0000 1.0000
21.0800 804.0000 1.0000
21.0900 730.0000 1.0000
21.1000 749.0000 1.0000
21.1100 770.0000 1.0000
21.1200 799.0000 1.0000
21.1300 797.0000 1.0000
21.1400 837.0000 1.0000
21.1500 767.0000 1.0000
21.1600 774.0000 1.0000
21.1700 777.0000 1.0000
21.1800 753.0000 1.0000
21.1900 783.0000 1.0000
21.2000 760.0000 1.0000
21.2100 775.0000 1.0000
21.2200 757.0000 1.0000
21.2300 767.0000 1.0000
21.2400 801.0000 1.0000
21.2500 777.0000 1.0000
21.2600 827.0000 1.0000
21.2700 789.0000 1.0000
21.2800 773.0000 1.0000
21.2900 808.0000 1.0000
21.3000 810.0000 1.0000
21.3100 835.0000 1.0000
21.3200 778.0000 1.0000
21.3300 737.0000 1.0000
21.3400 730.0000 1.0000
21.3500 768.0000 1.0000
21.3600 796.0000 1.0000
21.3700 787.0000 1.0000
21.3800 772.0000 1.0000
21.3900 758.0000 1.0000
21.4000 803.0000 1.0000
21.4100 745.0000 1.0000
21.4200 773.0000 1.0000
21.4300 847.0000 1.0000
21.4400 814.0000 1.0000
21.4500 797.0000 1.0000
21.4600 783.0000 1.0000
21.4700 743.0000 1.0000
21.4800 729.0000 1.0000
21.4900 766.0000 1.0000
21.5000 788.0000 1.0000
21.5100 763.0000 1.0000
21.5200 784.0000 1.0000
21.5300 782.0000 1.0000
21.5400 795.0000 1.0000
21.5500 795.0000 1.0000
21.5600 798.0000 1.0000
21.5700 781.0000 1.0000
21.5800 760.0000 1.0000
21.5900 758.0000 1.0000
21.6000 789.0000 1.0000
21.6100 806.0000 1.0000
21.6200 774.0000 1.0000
21.6300 799.0000 1.0000
21.6400 778.0000 1.0000
21.6500 821.0000 1.0000
21.6600 787.0000 1.0000
21.6700 750.0000 1.0000
21.6800 774.0000 1.0000
21.6900 791.0000 1.0000
21.7000 788.0000 1.0000
21.7100 759.0000 1.0000
21.7200 786.0000 1.0000
21.7300 774.0000 1.0000
21.7400 804.0000 1.0000
21.7500 787.0000 1.0000
21.7600 782.0000 1.0000
21.7700 758.0000 1.0000
21.7800 764.0000 1.0000
21.7900 767.0000 1.0000
21.8000 783.0000 1.0000
21.8100 779.0000 1.0000
21.8200 776.0000 1.0000
21.8300 792.0000 1.0000
21.8400 823.0000 1.0000
21.8500 784.0000 1.0000
21.8600 840.0000 1.0000
21.8700 796.0000 1.0000
21.8800 826.0000 1.0000
21.8900 776.0000 1.0000
21.9000 791.0000 1.0000
21.9100 789.0000 1.0000
21.9200 795.0000 1.0000
21.9300 792.0000 1.0000
21.9400 790.0000 1.0000
21.9500 795.0000 1.0000
21.9600 781.0000 1.0000
21.9700 746.0000 1.0000
21.9800 742.0000 1.0000
21.9900 791.0000 1.0000
22.0000 745.0000 1.0000
22.0100 751.0000 1.0000
22.0200 789.0000 1.0000
22.0300 796.0000 1.0000
22.0400 810.0000 1.0000
22.0500 767.0000 1.0000
22.0600 756.0000 1.0000
22.0700 770.0000 1.0000
22.0800 788.0000 1.0000
22.0900 785.0000 1.0000
22.1000 819.0000 1.0000
22.1100 794.0000 1.0000
22.1200 820.0000 1.0000
22.1300 780.0000 1.0000
22.1400 753.0000 1.0000
22.1500 747.0000 1.0000
22.1600 773.0000 1.0000
22.1700 775.0000 1.0000
22.1800 791.0000 1.0000
22.1900 812.0000 1.0000
22.2000 829.0000 1.0000
22.2100 758.0000 1.0000
22.2200 775.0000 1.0000
22.2300 760.0000 1.0000
22.2400 778.0000 1.0000
22.2500 787.0000 1.0000
22.2600 768.0000 1.0000
22.2700 793.0000 1.0000
22.2800 826.0000 1.0000
22.2900 757.0000 1.0000
22.3000 754.0000 1.0000
22.3100 747.0000 1.0000
22.3200 822.0000 1.0000
22.3300 796.0000 1.0000
22.3400 766.0000 1.0000
22.3500 767.0000 1.0000
22.3600 789.0000 1.0000
22.3700 788.0000 1.0000
22.3800 748.0000 1.0000
22.3900 800.0000 1.0000
22.4000 759.0000 1.0000
22.4100 724.0000 1.0000
22.4200 786.0000 1.0000
22.4300 779.0000 1.0000
22.4400 769.0000 1.0000
22.4500 757.0000 1.0000
22.4600 779.0000 1.0000
22.4700 745.0000 1.0000
22.4800 699.0000 1.0000
22.4900 742.0000 1.0000
22.5000 769.0000 1.0000
22.5100 773.0000 1.0000
22.5200 764.0000 1.0000
22.5300 768.0000 1.0000
22.5400 774.0000 1.0000
22.5500 771.0000 1.0000
22.5600 717.0000 1.0000
22.5700 777.0000 1.0000
22.5800 799.0000 1.0000
22.5900 809.0000 1.0000
22.6000 807.0000 1.0000
22.6100 774.0000 1.0000
22.6200 757.0000 1.0000
22.6300 784.0000 1.0000
22.6400 824.0000 1.0000
22.6500 813.0000 1.0000
22.6600 789.0000 1.0000
22.6700 766.0000 1.0000
22.6800 742.0000 1.0000
22.6900 723.0000 1.0000
22.7000 816.0000 1.0000
22.7100 798.0000 1.0000
22.7200 779.0000 1.0000
22.7300 781.0000 1.0000
22.7400 765.0000 1.0000
22.7500 773.0000 1.0000
22.7600 796.0000 1.0000
22.7700 749.0000 1.0000
22.7800 763.0000 1.0000
22.7900 759.0000 1.0000
22.8000 756.0000 1.0000
22.8100 739.0000 1.0000
22.8200 779.0000 1.0000
22.8300 731.0000 1.0000
22.8400 747.0000 1.0000
22.8500 804.0000 1.0000
22.8600 802.0000 1.0000
22.8700 762.0000 1.0000
22.8800 777.0000 1.0000
22.8900 746.0000 1.0000
22.9000 757.0000 1.0000
22.9100 739.0000 1.0000
22.9200 778.0000 1.0000
22.9300 783.0000 1.0000
22.9400 727.0000 1.0000
22.9500 722.0000 1.0000
22.9600 750.0000 1.0000
22.9700 784.0000 1.0000
22.9800 761.0000 1.0000
22.9900 807.0000 1.0000
23.0000 732.0000 1.0000
23.0100 787.0000 1.0000
23.0200 807.0000 1.0000
23.0300 769.0000 1.0000
23.0400 769.0000 1.0000
23.0500 767.0000 1.0000
23.0600 776.0000 1.0000
23.0700 796.0000 1.0000
23.0800 777.0000 1.0000
23.0900 782.0000 1.0000
23.1000 751.0000 1.0000
23.1100 747.0000 1.0000
23.1200 732.0000 1.0000
23.1300 760.0000 1.0000
23.1400 760.0000 1.0000
23.1500 774.0000 1.0000
23.1600 723.0000 1.0000
23.1700 778.0000 1.0000
23.1800 764.0000 1.0000
23.1900 788.0000 1.0000
23.2000 774.0000 1.0000
23.2100 767.0000 1.0000
23.2200 777.0000 1.0000
23.2300 762.0000 1.0000
23.2400 755.0000 1.0000
23.2500 754.0000 1.0000
23.2600 728.0000 1.0000
23.2700 739.0000 1.0000
23.2800 777.0000 1.0000
23.2900 746.0000 1.0000
23.3000 749.0000 1.0000
23.3100 784.0000 1.0000
23.3200 792.0000 1.0000
23.3300 761.0000 1.0000
23.3400 746.0000 1.0000
23.3500 738.0000 1.0000
23.3600 739.0000 1.0000
23.3700 753.0000 1.0000
23.3800 756.0000 1.0000
23.3900 733.0000 1.0000
23.4000 784.0000 1.0000
23.4100 791.0000 1.0000
23.4200 750.0000 1.0000
23.4300 735.0000 1.0000
23.4400 768.0000 1.0000
23.4500 790.0000 1.0000
23.4600 713.0000 1.0000
23.4700 732.0000 1.0000
23.4800 732.0000 1.0000
23.4900 763.0000 1.0000
23.5000 760.0000 1.0000
23.5100 803.0000 1.0000
23.5200 781.0000 1.0000
23.5300 770.0000 1.0000
23.5400 725.0000 1.0000
23.5500 742.0000 1.0000
23.5600 751.0000 1.0000
23.5700 789.0000 1.0000
23.5800 782.0000 1.0000
23.5900 730.0000 1.0000
23.6000 809.0000 1.0000
23.6100 785.0000 1.0000
23.6200 769.0000 1.0000
23.6300 727.0000 1.0000
23.6400 744.0000 1.0000
23.6500 799.0000 1.0000
23.6600 778.0000 1.0000
23.6700 750.0000 1.0000
23.6800 753.0000 1.0000
23.6900 737.0000 1.0000
23.7000 720.0000 1.0000
23.7100 756.0000 1.0000
23.7200 774.0000 1.0000
23.7300 791.0000 1.0000
23.7400 740.0000 1.0000
23.7500 750.0000 1.0000
23.7600 749.0000 1.0000
23.7700 761.0000 1.0000
23.7800 740.0000 1.0000
23.7900 772.0000 1.0000
23.8000 759.0000 1.0000
23.8100 753.0000 1.0000
23.8200 775.0000 1.0000
23.8300 820.0000 1.0000
23.8400 769.0000 1.0000
23.8500 760.0000 1.0000
23.8600 740.0000 1.0000
23.8700 765.0000 1.0000
23.8800 748.0000 1.0000
23.8900 743.0000 1.0000
23.9000 770.0000 1.0000
23.9100 774.0000 1.0000
23.9200 731.0000 1.0000
23.9300 726.0000 1.0000
23.9400 748.0000 1.0000
23.9500 788.0000 1.0000
23.9600 779.0000 1.0000
23.9700 768.0000 1.0000
23.9800 736.0000 1.0000
23.9900 769.0000 1.0000
24.0000 760.0000 1.0000
24.0100 753.0000 1.0000
24.0200 798.0000 1.0000
24.0300 782.0000 1.0000
24.0400 782.0000 1.0000
24.0500 746.0000 1.0000
24.0600 770.0000 1.0000
24.0700 802.0000 1.0000
24.0800 790.0000 1.0000
24.0900 771.0000 1.0000
24.1000 796.0000 1.0000
24.1100 822.0000 1.0000
24.1200 773.0000 1.0000
24.1300 797.0000 1.0000
24.1400 793.0000 1.0000
24.1500 781.0000 1.0000
24.1600 801.0000 1.0000
24.1700 834.0000 1.0000
24.1800 765.0000 1.0000
24.1900 753.0000 1.0000
24.2000 737.0000 1.0000
24.2100 768.0000 1.0000
24.2200 794.0000 1.0000
24.2300 759.0000 1.0000
24.2400 788.0000 1.0000
24.2500 798.0000 1.0000
24.2600 817.0000 1.0000
24.2700 797.0000 1.0000
24.2800 782.0000 1.0000
24.2900 795.0000 1.0000
24.3000 819.0000 1.0000
24.3100 782.0000 1.0000
24.3200 803.0000 1.0000
24.3300 812.0000 1.0000
24.3400 787.0000 1.0000
24.3500 809.0000 1.0000
24.3600 785.0000 1.0000
24.3700 766.0000 1.0000
24.3800 794.0000 1.0000
24.3900 782.0000 1.0000
24.4000 724.0000 1.0000
24.4100 824.0000 1.0000
24.4200 794.0000 1.0000
24.4300 751.0000 1.0000
24.4400 765.0000 1.0000
24.4500 783.0000 1.0000
24.4600 826.0000 1.0000
24.4700 760.0000 1.0000
24.4800 776.0000 1.0000
24.4900 797.0000 1.0000
24.5000 766.0000 1.0000
24.5100 748.0000 1.0000
24.5200 783.0000 1.0000
24.5300 807.0000 1.0000
24.5400 735.0000 1.0000
24.5500 792.0000 1.0000
24.5600 785.0000 1.0000
24.5700 791.0000 1.0000
24.5800 764.0000 1.0000
24.5900 758.0000 1.0000
24.6000 800.0000 1.0000
24.6100 765.0000 1.0000
24.6200 791.0000 1.0000
24.6300 758.0000 1.0000
24.6400 751.0000 1.0000
24.6500 744.0000 1.0000
24.6600 761.0000 1.0000
24.6700 764.0000 1.0000
24.6800 789.0000 1.0000
24.6900 751.0000 1.0000
24.7000 751.0000 1.0000
24.7100 777.0000 1.0000
24.7200 725.0000 1.0000
24.7300 781.0000 1.0000
24.7400 752.0000 1.0000
24.7500 721.0000 1.0000
24.7600 744.0000 1.0000
24.7700 708.0000 1.0000
24.7800 751.0000 1.0000
24.7900 735.0000 1.0000
24.8000 753.0000 1.0000
24.8100 786.0000 1.0000
24.8200 749.0000 1.0000
24.8300 757.0000 1.0000
24.8400 685.0000 1.0000
24.8500 746.0000 1.0000
24.8600 761.0000 1.0000
24.8700 733.0000 1.0000
24.8800 730.0000 1.0000
24.8900 711.0000 1.0000
24.9000 711.0000 1.0000
24.9100 728.0000 1.0000
24.9200 775.0000 1.0000
24.9300 784.0000 1.0000
24.9400 768.0000 1.0000
24.9500 767.0000 1.0000
24.9600 742.0000 1.0000
24.9700 746.0000 1.0000
24.9800 752.0000 1.0000
24.9900 718.0000 1.0000
25.0000 735.0000 1.0000
25.0100 751.0000 1.0000
25.0200 719.0000 1.0000
25.0300 702.0000 1.0000
25.0400 771.0000 1.0000
25.0500 784.0000 1.0000
25.0600 749.0000 1.0000
25.0700 725.0000 1.0000
25.0800 746.0000 1.0000
25.0900 722.0000 1.0000
25.1000 724.0000 1.0000
25.1100 774.0000 1.0000
25.1200 724.0000 1.0000
25.1300 758.0000 1.0000
25.1400 751.0000 1.0000
25.1500 734.0000 1.0000
25.1600 725.0000 1.0000
25.1700 748.0000 1.0000
25.1800 743.0000 1.0000
25.1900 717.0000 1.0000
25.2000 749.0000 1.0000
25.2100 701.0000 1.0000
25.2200 729.0000 1.0000
25.2300 755.0000 1.0000
25.2400 739.0000 1.0000
25.2500 706.0000 1.0000
25.2600 710.0000 1.0000
25.2700 748.0000 1.0000
25.2800 706.0000 1.0000
25.2900 758.0000 1.0000
25.3000 719.0000 1.0000
25.3100 702.0000 1.0000
25.3200 759.0000 1.0000
25.3300 734.0000 1.0000
25.3400 730.0000 1.0000
25.3500 706.0000 1.0000
25.3600 754.0000 1.0000
25.3700 727.0000 1.0000
25.3800 697.0000 1.0000
25.3900 764.0000 1.0000
25.4000 767.0000 1.0000
25.4100 742.0000 1.0000
25.4200 688.0000 1.0000
25.4300 714.0000 1.0000
25.4400 730.0000 1.0000
25.4500 760.0000 1.0000
25.4600 709.0000 1.0000
25.4700 721.0000 1.0000
25.4800 682.0000 1.0000
25.4900 726.0000 1.0000
25.5000 733.0000 1.0000
25.5100 728.0000 1.0000
25.5200 717.0000 1.0000
25.5300 746.0000 1.0000
25.5400 734.0000 1.0000
25.5500 748.0000 1.0000
25.5600 762.0000 1.0000
25.5700 742.0000 1.0000
25.5800 780.0000 1.0000
25.5900 743.0000 1.0000
25.6000 717.0000 1.0000
25.6100 698.0000 1.0000
25.6200 668.0000 1.0000
25.6300 660.0000 1.0000
25.6400 732.0000 1.0000
25.6500 732.0000 1.0000
25.6600 725.0000 1.0000
25.6700 731.0000 1.0000
25.6800 741.0000 1.0000
25.6900 767.0000 1.0000
25.7000 743.0000 1.0000
25.7100 768.0000 1.0000
25.7200 678.0000 1.0000
25.7300 794.0000 1.0000
25.7400 725.0000 1.0000
25.7500 716.0000 1.0000
25.7600 755.0000 1.0000
25.7700 740.0000 1.0000
25.7800 773.0000 1.0000
25.7900 730.0000 1.0000
25.8000 717.0000 1.0000
25.8100 716.0000 1.0000
25.8200 759.0000 1.0000
25.8300 757.0000 1.0000
25.8400 729.0000 1.0000
25.8500 757.0000 1.0000
25.8600 764.0000 1.0000
25.8700 725.0000 1.0000
25.8800 751.0000 1.0000
25.8900 717.0000 1.0000
25.9000 740.0000 1.0000
25.9100 746.0000 1.0000
25.9200 765.0000 1.0000
25.9300 760.0000 1.0000
25.9400 785.0000 1.0000
25.9500 760.0000 1.0000
25.9600 760.0000 1.0000
25.9700 804.0000 1.0000
25.9800 745.0000 1.0000
25.9900 749.0000 1.0000
26.0000 759.0000 1.0000
26.0100 742.0000 1.0000
26.0200 749.0000 1.0000
26.0300 808.0000 1.0000
26.0400 795.0000 1.0000
26.0500 754.0000 1.0000
26.0600 755.0000 1.0000
26.0700 730.0000 1.0000
26.0800 768.0000 1.0000
26.0900 771.0000 1.0000
26.1000 728.0000 1.0000
26.1100 772.0000 1.0000
26.1200 774.0000 1.0000
26.1300 764.0000 1.0000
26.1400 763.0000 1.0000
26.1500 790.0000 1.0000
26.1600 859.0000 1.0000
26.1700 784.0000 1.0000
26.1800 786.0000 1.0000
26.1900 819.0000 1.0000
26.2000 778.0000 1.0000
26.2100 801.0000 1.0000
26.2200 817.0000 1.0000
26.2300 825.0000 1.0000
26.2400 791.0000 1.0000
26.2500 797.0000 1.0000
26.2600 823.0000 1.0000
26.2700 832.0000 1.0000
26.2800 840.0000 1.0000
26.2900 807.0000 1.0000
26.3000 821.0000 1.0000
26.3100 864.0000 1.0000
26.3200 895.0000 1.0000
26.3300 888.0000 1.0000
26.3400 930.0000 1.0000
26.3500 935.0000 1.0000
26.3600 970.0000 1.0000
26.3700 935.0000 1.0000
26.3800 956.0000 1.0000
26.3900 1009.0000 1.0000
26.4000 1009.0000 1.0000
26.4100 1063.0000 1.0000
26.4200 1057.0000 1.0000
26.4300 1112.0000 1.0000
26.4400 1105.0000 1.0000
26.4500 1208.0000 1.0000
26.4600 1232.0000 1.0000
26.4700 1292.0000 1.0000
26.4800 1301.0000 1.0000
26.4900 1387.0000 1.0000
26.5000 1448.0000 1.0000
26.5100 1514.0000 1.0000
26.5200 1571.0000 1.0000
26.5300 1658.0000 1.0000
26.5400 1711.0000 1.0000
26.5500 1836.0000 1.0000
26.5600 1894.0000 1.0000
26.5700 1978.0000 1.0000
26.5800 2056.0000 1.0000
26.5900 2227.0000 1.0000
26.6000 2279.0000 1.0000
26.6100 2377.0000 1.0000
26.6200 2480.0000 1.0000
26.6300 2558.0000 1.0000
26.6400 2544.0000 1.0000
26.6500 2542.0000 1.0000
26.6600 2673.0000 1.0000
26.6700 2529.0000 1.0000
26.6800 2625.0000 1.0000
26.6900 2603.0000 1.0000
26.7000 2509.0000 1.0000
26.7100 2435.0000 1.0000
26.7200 2377.0000 1.0000
26.7300 2282.0000 1.0000
26.7400 2124.0000 1.0000
26.7500 2036.0000 1.0000
26.7600 2016.0000 1.0000
26.7700 1861.0000 1.0000
26.7800 1762.0000 1.0000
26.7900 1681.0000 1.0000
26.8000 1624.0000 1.0000
26.8100 1517.0000 1.0000
26.8200 1446.0000 1.0000
26.8300 1398.0000 1.0000
26.8400 1337.0000 1.0000
26.8500 1277.0000 1.0000
26.8600 1207.0000 1.0000
26.8700 1213.0000 1.0000
26.8800 1173.0000 1.0000
26.8900 1121.0000 1.0000
26.9000 1109.0000 1.0000
26.9100 1055.0000 1.0000
26.9200 981.0000 1.0000
26.9300 1011.0000 1.0000
26.9400 960.0000 1.0000
26.9500 947.0000 1.0000
26.9600 918.0000 1.0000
26.9700 905.0000 1.0000
26.9800 936.0000 1.0000
26.9900 874.0000 1.0000
27.0000 912.0000 1.0000
27.0100 821.0000 1.0000
27.0200 864.0000 1.0000
27.0300 877.0000 1.0000
27.0400 804.0000 1.0000
27.0500 827.0000 1.0000
27.0600 812.0000 1.0000
27.0700 795.0000 1.0000
27.0800 826.0000 1.0000
27.0900 799.0000 1.0000
27.1000 781.0000 1.0000
27.1100 780.0000 1.0000
27.1200 783.0000 1.0000
27.1300 791.0000 1.0000
27.1400 774.0000 1.0000
27.1500 770.0000 1.0000
27.1600 748.0000 1.0000
27.1700 742.0000 1.0000
27.1800 742.0000 1.0000
27.1900 732.0000 1.0000
27.2000 718.0000 1.0000
27.2100 715.0000 1.0000
27.2200 736.0000 1.0000
27.2300 777.0000 1.0000
27.2400 806.0000 1.0000
27.2500 777.0000 1.0000
27.2600 749.0000 1.0000
27.2700 695.0000 1.0000
27.2800 730.0000 1.0000
27.2900 722.0000 1.0000
27.3000 733.0000 1.0000
27.3100 775.0000 1.0000
27.3200 745.0000 1.0000
27.3300 728.0000 1.0000
27.3400 719.0000 1.0000
27.3500 704.0000 1.0000
27.3600 711.0000 1.0000
27.3700 717.0000 1.0000
27.3800 712.0000 1.0000
27.3900 704.0000 1.0000
27.4000 712.0000 1.0000
27.4100 680.0000 1.0000
27.4200 706.0000 1.0000
27.4300 716.0000 1.0000
27.4400 687.0000 1.0000
27.4500 742.0000 1.0000
27.4600 694.0000 1.0000
27.4700 730.0000 1.0000
27.4800 698.0000 1.0000
27.4900 669.0000 1.0000
27.5000 647.0000 1.0000
27.5100 672.0000 1.0000
27.5200 711.0000 1.0000
27.5300 708.0000 1.0000
27.5400 685.0000 1.0000
27.5500 675.0000 1.0000
27.5600 677.0000 1.0000
27.5700 701.0000 1.0000
27.5800 668.0000 1.0000
27.5900 683.0000 1.0000
27.6000 733.0000 1.0000
27.6100 746.0000 1.0000
27.6200 750.0000 1.0000
27.6300 701.0000 1.0000
27.6400 711.0000 1.0000
27.6500 654.0000 1.0000
27.6600 662.0000 1.0000
27.6700 672.0000 1.0000
27.6800 674.0000 1.0000
27.6900 662.0000 1.0000
27.7000 701.0000 1.0000
27.7100 703.0000 1.0000
27.7200 673.0000 1.0000
27.7300 680.0000 1.0000
27.7400 685.0000 1.0000
27.7500 689.0000 1.0000
27.7600 665.0000 1.0000
27.7700 678.0000 1.0000
27.7800 693.0000 1.0000
27.7900 696.0000 1.0000
27.8000 698.0000 1.0000
27.8100 668.0000 1.0000
27.8200 668.0000 1.0000
27.8300 677.0000 1.0000
27.8400 690.0000 1.0000
27.8500 684.0000 1.0000
27.8600 683.0000 1.0000
27.8700 704.0000 1.0000
27.8800 681.0000 1.0000
27.8900 668.0000 1.0000
27.9000 655.0000 1.0000
27.9100 691.0000 1.0000
27.9200 670.0000 1.0000
27.9300 659.0000 1.0000
27.9400 667.0000 1.0000
27.9500 682.0000 1.0000
27.9600 643.0000 1.0000
27.9700 675.0000 1.0000
27.9800 661.0000 1.0000
27.9900 632.0000 1.0000
28.0000 674.0000 1.0000
28.0100 669.0000 1.0000
28.0200 704.0000 1.0000
28.0300 660.0000 1.0000
28.0400 658.0000 1.0000
28.0500 679.0000 1.0000
28.0600 662.0000 1.0000
28.0700 650.0000 1.0000
28.0800 682.0000 1.0000
28.0900 674.0000 1.0000
28.1000 691.0000 1.0000
28.1100 683.0000 1.0000
28.1200 651.0000 1.0000
28.1300 699.0000 1.0000
28.1400 654.0000 1.0000
28.1500 671.0000 1.0000
28.1600 693.0000 1.0000
28.1700 659.0000 1.0000
28.1800 687.0000 1.0000
28.1900 688.0000 1.0000
28.2000 687.0000 1.0000
28.2100 624.0000 1.0000
28.2200 642.0000 1.0000
28.2300 650.0000 1.0000
28.2400 672.0000 1.0000
28.2500 656.0000 1.0000
28.2600 632.0000 1.0000
28.2700 634.0000 1.0000
28.2800 658.0000 1.0000
28.2900 689.0000 1.0000
28.3000 677.0000 1.0000
28.3100 671.0000 1.0000
28.3200 668.0000 1.0000
28.3300 692.0000 1.0000
28.3400 666.0000 1.0000
28.3500 639.0000 1.0000
28.3600 688.0000 1.0000
28.3700 653.0000 1.0000
28.3800 668.0000 1.0000
28.3900 684.0000 1.0000
28.4000 661.0000 1.0000
28.4100 647.0000 1.0000
28.4200 655.0000 1.0000
28.4300 667.0000 1.0000
28.4400 645.0000 1.0000
28.4500 656.0000 1.0000
28.4600 666.0000 1.0000
28.4700 646.0000 1.0000
28.4800 641.0000 1.0000
28.4900 637.0000 1.0000
28.5000 654.0000 1.0000
28.5100 711.0000 1.0000
28.5200 655.0000 1.0000
28.5300 638.0000 1.0000
28.5400 671.0000 1.0000
28.5500 661.0000 1.0000
28.5600 694.0000 1.0000
28.5700 641.0000 1.0000
28.5800 609.0000 1.0000
28.5900 652.0000 1.0000
28.6000 641.0000 1.0000
28.6100 606.0000 1.0000
28.6200 596.0000 1.0000
28.6300 651.0000 1.0000
28.6400 678.0000 1.0000
28.6500 652.0000 1.0000
28.6600 644.0000 1.0000
28.6700 635.0000 1.0000
28.6800 638.0000 1.0000
28.6900 658.0000 1.0000
28.7000 615.0000 1.0000
28.7100 634.0000 1.0000
28.7200 640.0000 1.0000
28.7300 651.0000 1.0000
28.7400 632.0000 1.0000
28.7500 645.0000 1.0000
28.7600 654.0000 1.0000
28.7700 619.0000 1.0000
28.7800 630.0000 1.0000
28.7900 593.0000 1.0000
28.8000 630.0000 1.0000
28.8100 639.0000 1.0000
28.8200 629.0000 1.0000
28.8300 626.0000 1.0000
28.8400 662.0000 1.0000
28.8500 666.0000 1.0000
28.8600 661.0000 1.0000
28.8700 646.0000 1.0000
28.8800 654.0000 1.0000
28.8900 629.0000 1.0000
28.9000 622.0000 1.0000
28.9100 602.0000 1.0000
28.9200 603.0000 1.0000
28.9300 650.0000 1.0000
28.9400 655.0000 1.0000
28.9500 637.0000 1.0000
28.9600 647.0000 1.0000
28.9700 655.0000 1.0000
28.9800 636.0000 1.0000
28.9900 648.0000 1.0000
29.0000 655.0000 1.0000
29.0100 659.0000 1.0000
29.0200 645.0000 1.0000
29.0300 665.0000 1.0000
29.0400 634.0000 1.0000
29.0500 628.0000 1.0000
29.0600 612.0000 1.0000
29.0700 637.0000 1.0000
29.0800 613.0000 1.0000
29.0900 616.0000 1.0000
29.1000 615.0000 1.0000
29.1100 665.0000 1.0000
29.1200 647.0000 1.0000
29.1300 630.0000 1.0000
29.1400 650.0000 1.0000
29.1500 626.0000 1.0000
29.1600 639.0000 1.0000
29.1700 618.0000 1.0000
29.1800 599.0000 1.0000
29.1900 618.0000 1.0000
29.2000 627.0000 1.0000
29.2100 656.0000 1.0000
29.2200 598.0000 1.0000
29.2300 622.0000 1.0000
29.2400 599.0000 1.0000
29.2500 646.0000 1.0000
29.2600 639.0000 1.0000
29.2700 606.0000 1.0000
29.2800 618.0000 1.0000
29.2900 631.0000 1.0000
29.3000 633.0000 1.0000
29.3100 603.0000 1.0000
29.3200 621.0000 1.0000
29.3300 608.0000 1.0000
29.3400 590.0000 1.0000
29.3500 643.0000 1.0000
29.3600 612.0000 1.0000
29.3700 611.0000 1.0000
29.3800 617.0000 1.0000
29.3900 577.0000 1.0000
29.4000 585.0000 1.0000
29.4100 635.0000 1.0000
29.4200 621.0000 1.0000
29.4300 635.0000 1.0000
29.4400 611.0000 1.0000
29.4500 607.0000 1.0000
29.4600 619.0000 1.0000
29.4700 636.0000 1.0000
29.4800 616.0000 1.0000
29.4900 638.0000 1.0000
29.5000 615.0000 1.0000
29.5100 573.0000 1.0000
29.5200 604.0000 1.0000
29.5300 599.0000 1.0000
29.5400 615.0000 1.0000
29.5500 614.0000 1.0000
29.5600 656.0000 1.0000
29.5700 643.0000 1.0000
29.5800 577.0000 1.0000
29.5900 635.0000 1.0000
29.6000 582.0000 1.0000
29.6100 591.0000 1.0000
29.6200 619.0000 1.0000
29.6300 633.0000 1.0000
29.6400 603.0000 1.0000
29.6500 588.0000 1.0000
29.6600 611.0000 1.0000
29.6700 620.0000 1.0000
29.6800 597.0000 1.0000
29.6900 626.0000 1.0000
29.7000 612.0000 1.0000
29.7100 621.0000 1.0000
29.7200 595.0000 1.0000
29.7300 585.0000 1.0000
29.7400 580.0000 1.0000
29.7500 607.0000 1.0000
29.7600 615.0000 1.0000
29.7700 616.0000 1.0000
29.7800 623.0000 1.0000
29.7900 611.0000 1.0000
29.8000 598.0000 1.0000
29.8100 658.0000 1.0000
29.8200 599.0000 1.0000
29.8300 596.0000 1.0000
29.8400 623.0000 1.0000
29.8500 584.0000 1.0000
29.8600 609.0000 1.0000
29.8700 613.0000 1.0000
29.8800 633.0000 1.0000
29.8900 615.0000 1.0000
29.9000 626.0000 1.0000
29.9100 612.0000 1.0000
29.9200 606.0000 1.0000
29.9300 611.0000 1.0000
29.9400 587.0000 1.0000
29.9500 578.0000 1.0000
29.9600 610.0000 1.0000
29.9700 614.0000 1.0000
29.9800 638.0000 1.0000
29.9900 619.0000 1.0000
30.0000 609.0000 1.0000
30.0100 579.0000 1.0000
30.0200 609.0000 1.0000
30.0300 577.0000 1.0000
30.0400 625.0000 1.0000
30.0500 621.0000 1.0000
30.0600 589.0000 1.0000
30.0700 619.0000 1.0000
30.0800 607.0000 1.0000
30.0900 615.0000 1.0000
30.1000 593.0000 1.0000
30.1100 640.0000 1.0000
30.1200 611.0000 1.0000
30.1300 625.0000 1.0000
30.1400 588.0000 1.0000
30.1500 592.0000 1.0000
30.1600 588.0000 1.0000
30.1700 598.0000 1.0000
30.1800 640.0000 1.0000
30.1900 619.0000 1.0000
30.2000 600.0000 1.0000
30.2100 599.0000 1.0000
30.2200 574.0000 1.0000
30.2300 602.0000 1.0000
30.2400 613.0000 1.0000
30.2500 591.0000 1.0000
30.2600 570.0000 1.0000
30.2700 609.0000 1.0000
30.2800 592.0000 1.0000
30.2900 581.0000 1.0000
30.3000 604.0000 1.0000
30.3100 577.0000 1.0000
30.3200 568.0000 1.0000
30.3300 601.0000 1.0000
30.3400 599.0000 1.0000
30.3500 556.0000 1.0000
30.3600 586.0000 1.0000
30.3700 604.0000 1.0000
30.3800 594.0000 1.0000
30.3900 561.0000 1.0000
30.4000 606.0000 1.0000
30.4100 622.0000 1.0000
30.4200 585.0000 1.0000
30.4300 585.0000 1.0000
30.4400 572.0000 1.0000
30.4500 618.0000 1.0000
30.4600 569.0000 1.0000
30.4700 590.0000 1.0000
30.4800 599.0000 1.0000
30.4900 595.0000 1.0000
30.5000 591.0000 1.0000
30.5100 613.0000 1.0000
30.5200 598.0000 1.0000
30.5300 560.0000 1.0000
30.5400 601.0000 1.0000
30.5500 581.0000 1.0000
30.5600 587.0000 1.0000
30.5700 572.0000 1.0000
30.5800 620.0000 1.0000
30.5900 628.0000 1.0000
30.6000 606.0000 1.0000
30.6100 584.0000 1.0000
30.6200 621.0000 1.0000
30.6300 554.0000 1.0000
30.6400 595.0000 1.0000
30.6500 602.0000 1.0000
30.6600 600.0000 1.0000
30.6700 546.0000 1.0000
30.6800 564.0000 1.0000
30.6900 592.0000 1.0000
30.7000 573.0000 1.0000
30.7100 641.0000 1.0000
30.7200 607.0000 1.0000
30.7300 593.0000 1.0000
30.7400 608.0000 1.0000
30.7500 603.0000 1.0000
30.7600 588.0000 1.0000
30.7700 584.0000 1.0000
30.7800 610.0000 1.0000
30.7900 608.0000 1.0000
30.8000 571.0000 1.0000
30.8100 560.0000 1.0000
30.8200 533.0000 1.0000
30.8300 584.0000 1.0000
30.8400 536.0000 1.0000
30.8500 573.0000 1.0000
30.8600 580.0000 1.0000
30.8700 592.0000 1.0000
30.8800 552.0000 1.0000
30.8900 540.0000 1.0000
30.9000 549.0000 1.0000
30.9100 556.0000 1.0000
30.9200 577.0000 1.0000
30.9300 595.0000 1.0000
30.9400 563.0000 1.0000
30.9500 577.0000 1.0000
30.9600 593.0000 1.0000
30.9700 612.0000 1.0000
30.9800 591.0000 1.0000
30.9900 553.0000 1.0000
31.0000 547.0000 1.0000
31.0100 568.0000 1.0000
31.0200 570.0000 1.0000
31.0300 600.0000 1.0000
31.0400 544.0000 1.0000
31.0500 596.0000 1.0000
31.0600 599.0000 1.0000
31.0700 555.0000 1.0000
31.0800 583.0000 1.0000
31.0900 570.0000 1.0000
31.1000 572.0000 1.0000
31.1100 582.0000 1.0000
31.1200 570.0000 1.0000
31.1300 555.0000 1.0000
31.1400 583.0000 1.0000
31.1500 600.0000 1.0000
31.1600 588.0000 1.0000
31.1700 552.0000 1.0000
31.1800 596.0000 1.0000
31.1900 571.0000 1.0000
31.2000 574.0000 1.0000
31.2100 555.0000 1.0000
31.2200 568.0000 1.0000
31.2300 593.0000 1.0000
31.2400 625.0000 1.0000
31.2500 600.0000 1.0000
31.2600 572.0000 1.0000
31.2700 592.0000 1.0000
31.2800 596.0000 1.0000
31.2900 613.0000 1.0000
31.3000 591.0000 1.0000
31.3100 635.0000 1.0000
31.3200 608.0000 1.0000
31.3300 594.0000 1.0000
31.3400 596.0000 1.0000
31.3500 599.0000 1.0000
31.3600 557.0000 1.0000
31.3700 602.0000 1.0000
31.3800 578.0000 1.0000
31.3900 580.0000 1.0000
31.4000 573.0000 1.0000
31.4100 596.0000 1.0000
31.4200 603.0000 1.0000
31.4300 603.0000 1.0000
31.4400 576.0000 1.0000
31.4500 570.0000 1.0000
31.4600 630.0000 1.0000
31.4700 591.0000 1.0000
31.4800 562.0000 1.0000
31.4900 594.0000 1.0000
31.5000 582.0000 1.0000
31.5100 588.0000 1.0000
31.5200 572.0000 1.0000
31.5300 583.0000 1.0000
31.5400 589.0000 1.0000
31.5500 592.0000 1.0000
31.5600 580.0000 1.0000
31.5700 580.0000 1.0000
31.5800 594.0000 1.0000
31.5900 560.0000 1.0000
31.6000 558.0000 1.0000
31.6100 527.0000 1.0000
31.6200 605.0000 1.0000
31.6300 551.0000 1.0000
31.6400 603.0000 1.0000
31.6500 535.0000 1.0000
31.6600 536.0000 1.0000
31.6700 584.0000 1.0000
31.6800 574.0000 1.0000
31.6900 593.0000 1.0000
31.7000 570.0000 1.0000
31.7100 558.0000 1.0000
31.7200 569.0000 1.0000
31.7300 560.0000 1.0000
31.7400 559.0000 1.0000
31.7500 573.0000 1.0000
31.7600 582.0000 1.0000
31.7700 506.0000 1.0000
31.7800 591.0000 1.0000
31.7900 563.0000 1.0000
31.8000 575.0000 1.0000
31.8100 552.0000 1.0000
31.8200 566.0000 1.0000
31.8300 552.0000 1.0000
31.8400 567.0000 1.0000
31.8500 585.0000 1.0000
31.8600 548.0000 1.0000
31.8700 580.0000 1.0000
31.8800 567.0000 1.0000
31.8900 534.0000 1.0000
31.9000 547.0000 1.0000
31.9100 555.0000 1.0000
31.9200 546.0000 1.0000
31.9300 538.0000 1.0000
31.9400 574.0000 1.0000
31.9500 508.0000 1.0000
31.9600 536.0000 1.0000
31.9700 588.0000 1.0000
31.9800 563.0000 1.0000
31.9900 547.0000 1.0000
32.0000 571.0000 1.0000
32.0100 568.0000 1.0000
32.0200 551.0000 1.0000
32.0300 505.0000 1.0000
32.0400 559.0000 1.0000
32.0500 563.0000 1.0000
32.0600 543.0000 1.0000
32.0700 557.0000 1.0000
32.0800 531.0000 1.0000
32.0900 549.0000 1.0000
32.1000 528.0000 1.0000
32.1100 527.0000 1.0000
32.1200 516.0000 1.0000
32.1300 544.0000 1.0000
32.1400 552.0000 1.0000
32.1500 539.0000 1.0000
32.1600 557.0000 1.0000
32.1700 535.0000 1.0000
32.1800 550.0000 1.0000
32.1900 592.0000 1.0000
32.2000 567.0000 1.0000
32.2100 572.0000 1.0000
32.2200 563.0000 1.0000
32.2300 564.0000 1.0000
32.2400 551.0000 1.0000
32.2500 542.0000 1.0000
32.2600 582.0000 1.0000
32.2700 560.0000 1.0000
32.2800 525.0000 1.0000
32.2900 523.0000 1.0000
32.3000 547.0000 1.0000
32.3100 564.0000 1.0000
32.3200 561.0000 1.0000
32.3300 535.0000 1.0000
32.3400 533.0000 1.0000
32.3500 518.0000 1.0000
32.3600 541.0000 1.0000
32.3700 536.0000 1.0000
32.3800 551.0000 1.0000
32.3900 532.0000 1.0000
32.4000 569.0000 1.0000
32.4100 567.0000 1.0000
32.4200 520.0000 1.0000
32.4300 518.0000 1.0000
32.4400 553.0000 1.0000
32.4500 536.0000 1.0000
32.4600 549.0000 1.0000
32.4700 508.0000 1.0000
32.4800 568.0000 1.0000
32.4900 539.0000 1.0000
32.5000 527.0000 1.0000
32.5100 525.0000 1.0000
32.5200 515.0000 1.0000
32.5300 497.0000 1.0000
32.5400 526.0000 1.0000
32.5500 533.0000 1.0000
32.5600 570.0000 1.0000
32.5700 564.0000 1.0000
32.5800 547.0000 1.0000
32.5900 521.0000 1.0000
32.6000 567.0000 1.0000
32.6100 559.0000 1.0000
32.6200 536.0000 1.0000
32.6300 528.0000 1.0000
32.6400 514.0000 1.0000
32.6500 539.0000 1.0000
32.6600 570.0000 1.0000
32.6700 580.0000 1.0000
32.6800 533.0000 1.0000
32.6900 518.0000 1.0000
32.7000 557.0000 1.0000
32.7100 560.0000 1.0000
32.7200 564.0000 1.0000
32.7300 586.0000 1.0000
32.7400 570.0000 1.0000
32.7500 541.0000 1.0000
32.7600 540.0000 1.0000
32.7700 558.0000 1.0000
32.7800 550.0000 1.0000
32.7900 522.0000 1.0000
32.8000 558.0000 1.0000
32.8100 514.0000 1.0000
32.8200 540.0000 1.0000
32.8300 522.0000 1.0000
32.8400 525.0000 1.0000
32.8500 523.0000 1.0000
32.8600 509.0000 1.0000
32.8700 500.0000 1.0000
32.8800 551.0000 1.0000
32.8900 559.0000 1.0000
32.9000 547.0000 1.0000
32.9100 552.0000 1.0000
32.9200 520.0000 1.0000
32.9300 541.0000 1.0000
32.9400 545.0000 1.0000
32.9500 569.0000 1.0000
32.9600 531.0000 1.0000
32.9700 513.0000 1.0000
32.9800 510.0000 1.0000
32.9900 544.0000 1.0000
33.0000 553.0000 1.0000
33.0100 565.0000 1.0000
33.0200 562.0000 1.0000
33.0300 560.0000 1.0000
33.0400 530.0000 1.0000
33.0500 603.0000 1.0000
33.0600 562.0000 1.0000
33.0700 588.0000 1.0000
33.0800 572.0000 1.0000
33.0900 544.0000 1.0000
33.1000 557.0000 1.0000
33.1100 556.0000 1.0000
33.1200 574.0000 1.0000
33.1300 602.0000 1.0000
33.1400 558.0000 1.0000
33.1500 577.0000 1.0000
33.1600 635.0000 1.0000
33.1700 597.0000 1.0000
33.1800 578.0000 1.0000
33.1900 659.0000 1.0000
33.2000 578.0000 1.0000
33.2100 579.0000 1.0000
33.2200 626.0000 1.0000
33.2300 601.0000 1.0000
33.2400 610.0000 1.0000
33.2500 634.0000 1.0000
33.2600 617.0000 1.0000
33.2700 655.0000 1.0000
33.2800 629.0000 1.0000
33.2900 672.0000 1.0000
33.3000 670.0000 1.0000
33.3100 656.0000 1.0000
33.3200 651.0000 1.0000
33.3300 663.0000 1.0000
33.3400 621.0000 1.0000
33.3500 646.0000 1.0000
33.3600 663.0000 1.0000
33.3700 659.0000 1.0000
33.3800 656.0000 1.0000
33.3900 647.0000 1.0000
33.4000 606.0000 1.0000
33.4100 645.0000 1.0000
33.4200 643.0000 1.0000
33.4300 647.0000 1.0000
33.4400 647.0000 1.0000
33.4500 620.0000 1.0000
33.4600 604.0000 1.0000
33.4700 603.0000 1.0000
33.4800 623.0000 1.0000
33.4900 633.0000 1.0000
33.5000 612.0000 1.0000
33.5100 640.0000 1.0000
33.5200 622.0000 1.0000
33.5300 605.0000 1.0000
33.5400 641.0000 1.0000
33.5500 614.0000 1.0000
33.5600 613.0000 1.0000
33.5700 631.0000 1.0000
33.5800 651.0000 1.0000
33.5900 622.0000 1.0000
33.6000 624.0000 1.0000
33.6100 670.0000 1.0000
33.6200 641.0000 1.0000
33.6300 742.0000 1.0000
33.6400 705.0000 1.0000
33.6500 695.0000 1.0000
33.6600 722.0000 1.0000
33.6700 720.0000 1.0000
33.6800 736.0000 1.0000
33.6900 767.0000 1.0000
33.7000 746.0000 1.0000
33.7100 782.0000 1.0000
33.7200 824.0000 1.0000
33.7300 853.0000 1.0000
33.7400 898.0000 1.0000
33.7500 915.0000 1.0000
33.7600 938.0000 1.0000
33.7700 1060.0000 1.0000
33.7800 1054.0000 1.0000
33.7900 1122.0000 1.0000
33.8000 1155.0000 1.0000
33.8100 1229.0000 1.0000
33.8200 1298.0000 1.0000
33.8300 1263.0000 1.0000
33.8400 1303.0000 1.0000
33.8500 1406.0000 1.0000
33.8600 1357.0000 1.0000
33.8700 1429.0000 1.0000
33.8800 1391.0000 1.0000
33.8900 1362.0000 1.0000
33.9000 1383.0000 1.0000
33.9100 1275.0000 1.0000
33.9200 1307.0000 1.0000
33.9300 1259.0000 1.0000
33.9400 1232.0000 1.0000
33.9500 1155.0000 1.0000
33.9600 1144.0000 1.0000
33.9700 1131.0000 1.0000
33.9800 1043.0000 1.0000
33.9900 1025.0000 1.0000
34.0000 967.0000 1.0000
34.0100 952.0000 1.0000
34.0200 896.0000 1.0000
34.0300 864.0000 1.0000
34.0400 858.0000 1.0000
34.0500 782.0000 1.0000
34.0600 782.0000 1.0000
34.0700 761.0000 1.0000
34.0800 718.0000 1.0000
34.0900 739.0000 1.0000
34.1000 695.0000 1.0000
34.1100 680.0000 1.0000
34.1200 704.0000 1.0000
34.1300 622.0000 1.0000
34.1400 648.0000 1.0000
34.1500 671.0000 1.0000
34.1600 612.0000 1.0000
34.1700 620.0000 1.0000
34.1800 609.0000 1.0000
34.1900 562.0000 1.0000
34.2000 574.0000 1.0000
34.2100 568.0000 1.0000
34.2200 576.0000 1.0000
34.2300 560.0000 1.0000
34.2400 576.0000 1.0000
34.2500 555.0000 1.0000
34.2600 546.0000 1.0000
34.2700 550.0000 1.0000
34.2800 523.0000 1.0000
34.2900 567.0000 1.0000
34.3000 531.0000 1.0000
34.3100 538.0000 1.0000
34.3200 547.0000 1.0000
34.3300 532.0000 1.0000
34.3400 529.0000 1.0000
34.3500 552.0000 1.0000
34.3600 521.0000 1.0000
34.3700 551.0000 1.0000
34.3800 531.0000 1.0000
34.3900 546.0000 1.0000
34.4000 538.0000 1.0000
34.4100 525.0000 1.0000
34.4200 541.0000 1.0000
34.4300 533.0000 1.0000
34.4400 556.0000 1.0000
34.4500 475.0000 1.0000
34.4600 494.0000 1.0000
34.4700 570.0000 1.0000
34.4800 561.0000 1.0000
34.4900 554.0000 1.0000
34.5000 514.0000 1.0000
34.5100 537.0000 1.0000
34.5200 519.0000 1.0000
34.5300 493.0000 1.0000
34.5400 517.0000 1.0000
34.5500 534.0000 1.0000
34.5600 528.0000 1.0000
34.5700 501.0000 1.0000
34.5800 518.0000 1.0000
34.5900 527.0000 1.0000
34.6000 502.0000 1.0000
34.6100 494.0000 1.0000
34.6200 459.0000 1.0000
34.6300 476.0000 1.0000
34.6400 468.0000 1.0000
34.6500 470.0000 1.0000
34.6600 496.0000 1.0000
34.6700 523.0000 1.0000
34.6800 501.0000 1.0000
34.6900 497.0000 1.0000
34.7000 458.0000 1.0000
34.7100 456.0000 1.0000
34.7200 489.0000 1.0000
34.7300 460.0000 1.0000
34.7400 482.0000 1.0000
34.7500 529.0000 1.0000
34.7600 509.0000 1.0000
34.7700 499.0000 1.0000
34.7800 510.0000 1.0000
34.7900 503.0000 1.0000
34.8000 466.0000 1.0000
34.8100 515.0000 1.0000
34.8200 487.0000 1.0000
34.8300 497.0000 1.0000
34.8400 502.0000 1.0000
34.8500 471.0000 1.0000
34.8600 465.0000 1.0000
34.8700 476.0000 1.0000
34.8800 472.0000 1.0000
34.8900 517.0000 1.0000
34.9000 493.0000 1.0000
34.9100 494.0000 1.0000
34.9200 505.0000 1.0000
34.9300 498.0000 1.0000
34.9400 458.0000 1.0000
34.9500 463.0000 1.0000
34.9600 441.0000 1.0000
34.9700 450.0000 1.0000
34.9800 492.0000 1.0000
34.9900 481.0000 1.0000
35.0000 480.0000 1.0000
35.0100 476.0000 1.0000
35.0200 498.0000 1.0000
35.0300 460.0000 1.0000
35.0400 467.0000 1.0000
35.0500 457.0000 1.0000
35.0600 453.0000 1.0000
35.0700 475.0000 1.0000
35.0800 473.0000 1.0000
35.0900 459.0000 1.0000
35.1000 453.0000 1.0000
35.1100 457.0000 1.0000
35.1200 486.0000 1.0000
35.1300 487.0000 1.0000
35.1400 464.0000 1.0000
35.1500 473.0000 1.0000
35.1600 451.0000 1.0000
35.1700 462.0000 1.0000
35.1800 460.0000 1.0000
35.1900 455.0000 1.0000
35.2000 462.0000 1.0000
35.2100 461.0000 1.0000
35.2200 459.0000 1.0000
35.2300 421.0000 1.0000
35.2400 449.0000 1.0000
35.2500 436.0000 1.0000
35.2600 443.0000 1.0000
35.2700 450.0000 1.0000
35.2800 448.0000 1.0000
35.2900 446.0000 1.0000
35.3000 437.0000 1.0000
35.3100 449.0000 1.0000
35.3200 501.0000 1.0000
35.3300 452.0000 1.0000
35.3400 454.0000 1.0000
35.3500 456.0000 1.0000
35.3600 448.0000 1.0000
35.3700 498.0000 1.0000
35.3800 469.0000 1.0000
35.3900 492.0000 1.0000
35.4000 497.0000 1.0000
35.4100 467.0000 1.0000
35.4200 440.0000 1.0000
35.4300 518.0000 1.0000
35.4400 504.0000 1.0000
35.4500 486.0000 1.0000
35.4600 506.0000 1.0000
35.4700 472.0000 1.0000
35.4800 499.0000 1.0000
35.4900 467.0000 1.0000
35.5000 494.0000 1.0000
35.5100 515.0000 1.0000
35.5200 491.0000 1.0000
35.5300 519.0000 1.0000
35.5400 491.0000 1.0000
35.5500 509.0000 1.0000
35.5600 513.0000 1.0000
35.5700 521.0000 1.0000
35.5800 524.0000 1.0000
35.5900 546.0000 1.0000
35.6000 537.0000 1.0000
35.6100 544.0000 1.0000
35.6200 561.0000 1.0000
35.6300 605.0000 1.0000
35.6400 588.0000 1.0000
35.6500 608.0000 1.0000
35.6600 659.0000 1.0000
35.6700 640.0000 1.0000
35.6800 638.0000 1.0000
35.6900 694.0000 1.0000
35.7000 695.0000 1.0000
35.7100 725.0000 1.0000
35.7200 759.0000 1.0000
35.7300 822.0000 1.0000
35.7400 828.0000 1.0000
35.7500 845.0000 1.0000
35.7600 903.0000 1.0000
35.7700 899.0000 1.0000
35.7800 955.0000 1.0000
35.7900 910.0000 1.0000
35.8000 882.0000 1.0000
35.8100 869.0000 1.0000
35.8200 848.0000 1.0000
35.8300 891.0000 1.0000
35.8400 856.0000 1.0000
35.8500 852.0000 1.0000
35.8600 752.0000 1.0000
35.8700 765.0000 1.0000
35.8800 782.0000 1.0000
35.8900 724.0000 1.0000
35.9000 719.0000 1.0000
35.9100 705.0000 1.0000
35.9200 682.0000 1.0000
35.9300 630.0000 1.0000
35.9400 591.0000 1.0000
35.9500 603.0000 1.0000
35.9600 558.0000 1.0000
35.9700 558.0000 1.0000
35.9800 611.0000 1.0000
35.9900 548.0000 1.0000
36.0000 544.0000 1.0000
36.0100 535.0000 1.0000
36.0200 497.0000 1.0000
36.0300 502.0000 1.0000
36.0400 494.0000 1.0000
36.0500 449.0000 1.0000
36.0600 496.0000 1.0000
36.0700 492.0000 1.0000
36.0800 462.0000 1.0000
36.0900 482.0000 1.0000
36.1000 477.0000 1.0000
36.1100 471.0000 1.0000
36.1200 478.0000 1.0000
36.1300 462.0000 1.0000
36.1400 428.0000 1.0000
36.1500 468.0000 1.0000
36.1600 424.0000 1.0000
36.1700 468.0000 1.0000
36.1800 440.0000 1.0000
36.1900 453.0000 1.0000
36.2000 444.0000 1.0000
36.2100 477.0000 1.0000
36.2200 451.0000 1.0000
36.2300 461.0000 1.0000
36.2400 448.0000 1.0000
36.2500 459.0000 1.0000
36.2600 440.0000 1.0000
36.2700 426.0000 1.0000
36.2800 451.0000 1.0000
36.2900 440.0000 1.0000
36.3000 432.0000 1.0000
36.3100 443.0000 1.0000
36.3200 451.0000 1.0000
36.3300 425.0000 1.0000
36.3400 408.0000 1.0000
36.3500 430.0000 1.0000
36.3600 404.0000 1.0000
36.3700 460.0000 1.0000
36.3800 417.0000 1.0000
36.3900 452.0000 1.0000
36.4000 426.0000 1.0000
36.4100 458.0000 1.0000
36.4200 422.0000 1.0000
36.4300 411.0000 1.0000
36.4400 408.0000 1.0000
36.4500 429.0000 1.0000
36.4600 393.0000 1.0000
36.4700 435.0000 1.0000
36.4800 393.0000 1.0000
36.4900 415.0000 1.0000
36.5000 413.0000 1.0000
36.5100 444.0000 1.0000
36.5200 426.0000 1.0000
36.5300 437.0000 1.0000
36.5400 444.0000 1.0000
36.5500 452.0000 1.0000
36.5600 458.0000 1.0000
36.5700 452.0000 1.0000
36.5800 419.0000 1.0000
36.5900 425.0000 1.0000
36.6000 434.0000 1.0000
36.6100 443.0000 1.0000
36.6200 456.0000 1.0000
36.6300 475.0000 1.0000
36.6400 437.0000 1.0000
36.6500 471.0000 1.0000
36.6600 470.0000 1.0000
36.6700 452.0000 1.0000
36.6800 436.0000 1.0000
36.6900 433.0000 1.0000
36.7000 412.0000 1.0000
36.7100 456.0000 1.0000
36.7200 445.0000 1.0000
36.7300 454.0000 1.0000
36.7400 464.0000 1.0000
36.7500 432.0000 1.0000
36.7600 454.0000 1.0000
36.7700 405.0000 1.0000
36.7800 405.0000 1.0000
36.7900 442.0000 1.0000
36.8000 419.0000 1.0000
36.8100 415.0000 1.0000
36.8200 392.0000 1.0000
36.8300 450.0000 1.0000
36.8400 433.0000 1.0000
36.8500 448.0000 1.0000
36.8600 416.0000 1.0000
36.8700 453.0000 1.0000
36.8800 429.0000 1.0000
36.8900 436.0000 1.0000
36.9000 446.0000 1.0000
36.9100 452.0000 1.0000
36.9200 459.0000 1.0000
36.9300 429.0000 1.0000
36.9400 432.0000 1.0000
36.9500 436.0000 1.0000
36.9600 413.0000 1.0000
36.9700 423.0000 1.0000
36.9800 460.0000 1.0000
36.9900 417.0000 1.0000
37.0000 406.0000 1.0000
37.0100 441.0000 1.0000
37.0200 437.0000 1.0000
37.0300 412.0000 1.0000
37.0400 416.0000 1.0000
37.0500 388.0000 1.0000
37.0600 437.0000 1.0000
37.0700 435.0000 1.0000
37.0800 447.0000 1.0000
37.0900 444.0000 1.0000
37.1000 435.0000 1.0000
37.1100 423.0000 1.0000
37.1200 432.0000 1.0000
37.1300 434.0000 1.0000
37.1400 445.0000 1.0000
37.1500 421.0000 1.0000
37.1600 425.0000 1.0000
37.1700 435.0000 1.0000
37.1800 443.0000 1.0000
37.1900 461.0000 1.0000
37.2000 410.0000 1.0000
37.2100 408.0000 1.0000
37.2200 415.0000 1.0000
37.2300 423.0000 1.0000
37.2400 429.0000 1.0000
37.2500 434.0000 1.0000
37.2600 413.0000 1.0000
37.2700 455.0000 1.0000
37.2800 436.0000 1.0000
37.2900 448.0000 1.0000
37.3000 439.0000 1.0000
37.3100 439.0000 1.0000
37.3200 433.0000 1.0000
37.3300 446.0000 1.0000
37.3400 456.0000 1.0000
37.3500 448.0000 1.0000
37.3600 444.0000 1.0000
37.3700 403.0000 1.0000
37.3800 424.0000 1.0000
37.3900 452.0000 1.0000
37.4000 448.0000 1.0000
37.4100 464.0000 1.0000
37.4200 453.0000 1.0000
37.4300 472.0000 1.0000
37.4400 499.0000 1.0000
37.4500 473.0000 1.0000
37.4600 470.0000 1.0000
37.4700 449.0000 1.0000
37.4800 456.0000 1.0000
37.4900 468.0000 1.0000
37.5000 453.0000 1.0000
37.5100 476.0000 1.0000
37.5200 462.0000 1.0000
37.5300 434.0000 1.0000
37.5400 485.0000 1.0000
37.5500 495.0000 1.0000
37.5600 520.0000 1.0000
37.5700 536.0000 1.0000
37.5800 505.0000 1.0000
37.5900 524.0000 1.0000
37.6000 577.0000 1.0000
37.6100 595.0000 1.0000
37.6200 545.0000 1.0000
37.6300 564.0000 1.0000
37.6400 616.0000 1.0000
37.6500 629.0000 1.0000
37.6600 588.0000 1.0000
37.6700 641.0000 1.0000
37.6800 620.0000 1.0000
37.6900 694.0000 1.0000
37.7000 742.0000 1.0000
37.7100 784.0000 1.0000
37.7200 798.0000 1.0000
37.7300 838.0000 1.0000
37.7400 892.0000 1.0000
37.7500 938.0000 1.0000
37.7600 1038.0000 1.0000
37.7700 1063.0000 1.0000
37.7800 1164.0000 1.0000
37.7900 1180.0000 1.0000
37.8000 1312.0000 1.0000
37.8100 1395.0000 1.0000
37.8200 1481.0000 1.0000
37.8300 1507.0000 1.0000
37.8400 1724.0000 1.0000
37.8500 1748.0000 1.0000
37.8600 1877.0000 1.0000
37.8700 1874.0000 1.0000
37.8800 1982.0000 1.0000
37.8900 2011.0000 1.0000
37.9000 2031.0000 1.0000
37.9100 2062.0000 1.0000
37.9200 2104.0000 1.0000
37.9300 2123.0000 1.0000
37.9400 2024.0000 1.0000
37.9500 2011.0000 1.0000
37.9600 2001.0000 1.0000
37.9700 1869.0000 1.0000
37.9800 1904.0000 1.0000
37.9900 1830.0000 1.0000
38.0000 1811.0000 1.0000
38.0100 1704.0000 1.0000
38.0200 1573.0000 1.0000
38.0300 1524.0000 1.0000
38.0400 1430.0000 1.0000
38.0500 1380.0000 1.0000
38.0600 1217.0000 1.0000
38.0700 1195.0000 1.0000
38.0800 1145.0000 1.0000
38.0900 1073.0000 1.0000
38.1000 997.0000 1.0000
38.1100 966.0000 1.0000
38.1200 946.0000 1.0000
38.1300 878.0000 1.0000
38.1400 830.0000 1.0000
38.1500 811.0000 1.0000
38.1600 750.0000 1.0000
38.1700 717.0000 1.0000
38.1800 661.0000 1.0000
38.1900 674.0000 1.0000
38.2000 638.0000 1.0000
38.2100 600.0000 1.0000
38.2200 601.0000 1.0000
38.2300 594.0000 1.0000
38.2400 599.0000 1.0000
38.2500 584.0000 1.0000
38.2600 534.0000 1.0000
38.2700 522.0000 1.0000
38.2800 515.0000 1.0000
38.2900 509.0000 1.0000
38.3000 504.0000 1.0000
38.3100 483.0000 1.0000
38.3200 495.0000 1.0000
38.3300 456.0000 1.0000
38.3400 471.0000 1.0000
38.3500 457.0000 1.0000
38.3600 466.0000 1.0000
38.3700 483.0000 1.0000
38.3800 455.0000 1.0000
38.3900 458.0000 1.0000
38.4000 454.0000 1.0000
38.4100 436.0000 1.0000
38.4200 431.0000 1.0000
38.4300 393.0000 1.0000
38.4400 415.0000 1.0000
38.4500 418.0000 1.0000
38.4600 425.0000 1.0000
38.4700 433.0000 1.0000
38.4800 405.0000 1.0000
38.4900 366.0000 1.0000
38.5000 383.0000 1.0000
38.5100 407.0000 1.0000
38.5200 388.0000 1.0000
38.5300 410.0000 1.0000
38.5400 406.0000 1.0000
38.5500 397.0000 1.0000
38.5600 401.0000 1.0000
38.5700 392.0000 1.0000
38.5800 423.0000 1.0000
38.5900 393.0000 1.0000
38.6000 410.0000 1.0000
38.6100 394.0000 1.0000
38.6200 402.0000 1.0000
38.6300 402.0000 1.0000
38.6400 385.0000 1.0000
38.6500 370.0000 1.0000
38.6600 402.0000 1.0000
38.6700 385.0000 1.0000
38.6800 399.0000 1.0000
38.6900 397.0000 1.0000
38.7000 387.0000 1.0000
38.7100 393.0000 1.0000
38.7200 382.0000 1.0000
38.7300 400.0000 1.0000
38.7400 412.0000 1.0000
38.7500 366.0000 1.0000
38.7600 357.0000 1.0000
38.7700 378.0000 1.0000
38.7800 414.0000 1.0000
38.7900 409.0000 1.0000
38.8000 386.0000 1.0000
38.8100 403.0000 1.0000
38.8200 420.0000 1.0000
38.8300 348.0000 1.0000
38.8400 401.0000 1.0000
38.8500 425.0000 1.0000
38.8600 405.0000 1.0000
38.8700 412.0000 1.0000
38.8800 381.0000 1.0000
38.8900 406.0000 1.0000
38.9000 427.0000 1.0000
38.9100 390.0000 1.0000
38.9200 393.0000 1.0000
38.9300 440.0000 1.0000
38.9400 399.0000 1.0000
38.9500 432.0000 1.0000
38.9600 434.0000 1.0000
38.9700 439.0000 1.0000
38.9800 441.0000 1.0000
38.9900 433.0000 1.0000
39.0000 421.0000 1.0000
39.0100 431.0000 1.0000
39.0200 401.0000 1.0000
39.0300 416.0000 1.0000
39.0400 411.0000 1.0000
39.0500 411.0000 1.0000
39.0600 397.0000 1.0000
39.0700 373.0000 1.0000
39.0800 402.0000 1.0000
39.0900 367.0000 1.0000
39.1000 389.0000 1.0000
39.1100 360.0000 1.0000
39.1200 389.0000 1.0000
39.1300 404.0000 1.0000
39.1400 371.0000 1.0000
39.1500 413.0000 1.0000
39.1600 424.0000 1.0000
39.1700 388.0000 1.0000
39.1800 404.0000 1.0000
39.1900 407.0000 1.0000
39.2000 357.0000 1.0000
39.2100 358.0000 1.0000
39.2200 375.0000 1.0000
39.2300 388.0000 1.0000
39.2400 414.0000 1.0000
39.2500 366.0000 1.0000
39.2600 397.0000 1.0000
39.2700 379.0000 1.0000
39.2800 392.0000 1.0000
39.2900 377.0000 1.0000
39.3000 388.0000 1.0000
39.3100 403.0000 1.0000
39.3200 370.0000 1.0000
39.3300 373.0000 1.0000
39.3400 415.0000 1.0000
39.3500 404.0000 1.0000
39.3600 380.0000 1.0000
39.3700 373.0000 1.0000
39.3800 374.0000 1.0000
39.3900 386.0000 1.0000
39.4000 389.0000 1.0000
39.4100 376.0000 1.0000
39.4200 396.0000 1.0000
39.4300 339.0000 1.0000
39.4400 367.0000 1.0000
39.4500 371.0000 1.0000
39.4600 366.0000 1.0000
39.4700 358.0000 1.0000
39.4800 383.0000 1.0000
39.4900 363.0000 1.0000
39.5000 368.0000 1.0000
39.5100 375.0000 1.0000
39.5200 350.0000 1.0000
39.5300 384.0000 1.0000
39.5400 370.0000 1.0000
39.5500 375.0000 1.0000
39.5600 372.0000 1.0000
39.5700 363.0000 1.0000
39.5800 371.0000 1.0000
39.5900 406.0000 1.0000
39.6000 391.0000 1.0000
39.6100 365.0000 1.0000
39.6200 368.0000 1.0000
39.6300 383.0000 1.0000
39.6400 357.0000 1.0000
39.6500 383.0000 1.0000
39.6600 373.0000 1.0000
39.6700 393.0000 1.0000
39.6800 367.0000 1.0000
39.6900 359.0000 1.0000
39.7000 368.0000 1.0000
39.7100 348.0000 1.0000
39.7200 376.0000 1.0000
39.7300 369.0000 1.0000
39.7400 365.0000 1.0000
39.7500 365.0000 1.0000
39.7600 332.0000 1.0000
39.7700 335.0000 1.0000
39.7800 369.0000 1.0000
39.7900 375.0000 1.0000
39.8000 359.0000 1.0000
39.8100 341.0000 1.0000
39.8200 332.0000 1.0000
39.8300 358.0000 1.0000
39.8400 422.0000 1.0000
39.8500 392.0000 1.0000
39.8600 358.0000 1.0000
39.8700 364.0000 1.0000
39.8800 351.0000 1.0000
39.8900 349.0000 1.0000
39.9000 344.0000 1.0000
39.9100 345.0000 1.0000
39.9200 367.0000 1.0000
39.9300 398.0000 1.0000
39.9400 340.0000 1.0000
39.9500 330.0000 1.0000
39.9600 335.0000 1.0000
39.9700 360.0000 1.0000
39.9800 347.0000 1.0000
39.9900 356.0000 1.0000
40.0000 375.0000 1.0000
40.0100 367.0000 1.0000
40.0200 332.0000 1.0000
40.0300 365.0000 1.0000
40.0400 330.0000 1.0000
40.0500 352.0000 1.0000
40.0600 384.0000 1.0000
40.0700 384.0000 1.0000
40.0800 363.0000 1.0000
40.0900 364.0000 1.0000
40.1000 350.0000 1.0000
40.1100 322.0000 1.0000
40.1200 380.0000 1.0000
40.1300 362.0000 1.0000
40.1400 344.0000 1.0000
40.1500 350.0000 1.0000
40.1600 343.0000 1.0000
40.1700 358.0000 1.0000
40.1800 348.0000 1.0000
40.1900 340.0000 1.0000
40.2000 351.0000 1.0000
40.2100 348.0000 1.0000
40.2200 350.0000 1.0000
40.2300 364.0000 1.0000
40.2400 354.0000 1.0000
40.2500 386.0000 1.0000
40.2600 380.0000 1.0000
40.2700 370.0000 1.0000
40.2800 329.0000 1.0000
40.2900 360.0000 1.0000
40.3000 362.0000 1.0000
40.3100 378.0000 1.0000
40.3200 364.0000 1.0000
40.3300 332.0000 1.0000
40.3400 370.0000 1.0000
40.3500 383.0000 1.0000
40.3600 368.0000 1.0000
40.3700 387.0000 1.0000
40.3800 357.0000 1.0000
40.3900 371.0000 1.0000
40.4000 354.0000 1.0000
40.4100 336.0000 1.0000
40.4200 350.0000 1.0000
40.4300 343.0000 1.0000
40.4400 346.0000 1.0000
40.4500 349.0000 1.0000
40.4600 359.0000 1.0000
40.4700 369.0000 1.0000
40.4800 381.0000 1.0000
40.4900 361.0000 1.0000
40.5000 374.0000 1.0000
40.5100 346.0000 1.0000
40.5200 351.0000 1.0000
40.5300 371.0000 1.0000
40.5400 337.0000 1.0000
40.5500 336.0000 1.0000
40.5600 354.0000 1.0000
40.5700 364.0000 1.0000
40.5800 349.0000 1.0000
40.5900 353.0000 1.0000
40.6000 364.0000 1.0000
40.6100 357.0000 1.0000
40.6200 337.0000 1.0000
40.6300 356.0000 1.0000
40.6400 377.0000 1.0000
40.6500 351.0000 1.0000
40.6600 353.0000 1.0000
40.6700 360.0000 1.0000
40.6800 374.0000 1.0000
40.6900 355.0000 1.0000
40.7000 367.0000 1.0000
40.7100 340.0000 1.0000
40.7200 367.0000 1.0000
40.7300 358.0000 1.0000
40.7400 348.0000 1.0000
40.7500 392.0000 1.0000
40.7600 344.0000 1.0000
40.7700 358.0000 1.0000
40.7800 358.0000 1.0000
40.7900 369.0000 1.0000
40.8000 345.0000 1.0000
40.8100 371.0000 1.0000
40.8200 381.0000 1.0000
40.8300 350.0000 1.0000
40.8400 363.0000 1.0000
40.8500 373.0000 1.0000
40.8600 347.0000 1.0000
40.8700 342.0000 1.0000
40.8800 354.0000 1.0000
40.8900 359.0000 1.0000
40.9000 372.0000 1.0000
40.9100 378.0000 1.0000
40.9200 383.0000 1.0000
40.9300 350.0000 1.0000
40.9400 385.0000 1.0000
40.9500 370.0000 1.0000
40.9600 388.0000 1.0000
40.9700 425.0000 1.0000
40.9800 379.0000 1.0000
40.9900 378.0000 1.0000
41.0000 403.0000 1.0000
41.0100 387.0000 1.0000
41.0200 353.0000 1.0000
41.0300 385.0000 1.0000
41.0400 392.0000 1.0000
41.0500 406.0000 1.0000
41.0600 398.0000 1.0000
41.0700 335.0000 1.0000
41.0800 360.0000 1.0000
41.0900 353.0000 1.0000
41.1000 414.0000 1.0000
41.1100 410.0000 1.0000
41.1200 352.0000 1.0000
41.1300 362.0000 1.0000
41.1400 384.0000 1.0000
41.1500 364.0000 1.0000
41.1600 365.0000 1.0000
41.1700 376.0000 1.0000
41.1800 383.0000 1.0000
41.1900 364.0000 1.0000
41.2000 368.0000 1.0000
41.2100 373.0000 1.0000
41.2200 342.0000 1.0000
41.2300 367.0000 1.0000
41.2400 372.0000 1.0000
41.2500 345.0000 1.0000
41.2600 379.0000 1.0000
41.2700 372.0000 1.0000
41.2800 327.0000 1.0000
41.2900 346.0000 1.0000
41.3000 356.0000 1.0000
41.3100 354.0000 1.0000
41.3200 341.0000 1.0000
41.3300 335.0000 1.0000
41.3400 338.0000 1.0000
41.3500 368.0000 1.0000
41.3600 377.0000 1.0000
41.3700 316.0000 1.0000
41.3800 327.0000 1.0000
41.3900 337.0000 1.0000
41.4000 381.0000 1.0000
41.4100 332.0000 1.0000
41.4200 348.0000 1.0000
41.4300 356.0000 1.0000
41.4400 343.0000 1.0000
41.4500 349.0000 1.0000
41.4600 327.0000 1.0000
41.4700 330.0000 1.0000
41.4800 352.0000 1.0000
41.4900 361.0000 1.0000
41.5000 339.0000 1.0000
41.5100 347.0000 1.0000
41.5200 341.0000 1.0000
41.5300 355.0000 1.0000
41.5400 339.0000 1.0000
41.5500 336.0000 1.0000
41.5600 352.0000 1.0000
41.5700 362.0000 1.0000
41.5800 379.0000 1.0000
41.5900 363.0000 1.0000
41.6000 311.0000 1.0000
41.6100 360.0000 1.0000
41.6200 348.0000 1.0000
41.6300 349.0000 1.0000
41.6400 371.0000 1.0000
41.6500 322.0000 1.0000
41.6600 365.0000 1.0000
41.6700 370.0000 1.0000
41.6800 311.0000 1.0000
41.6900 359.0000 1.0000
41.7000 344.0000 1.0000
41.7100 345.0000 1.0000
41.7200 328.0000 1.0000
41.7300 343.0000 1.0000
41.7400 337.0000 1.0000
41.7500 345.0000 1.0000
41.7600 337.0000 1.0000
41.7700 364.0000 1.0000
41.7800 341.0000 1.0000
41.7900 363.0000 1.0000
41.8000 345.0000 1.0000
41.8100 334.0000 1.0000
41.8200 348.0000 1.0000
41.8300 369.0000 1.0000
41.8400 351.0000 1.0000
41.8500 359.0000 1.0000
41.8600 348.0000 1.0000
41.8700 359.0000 1.0000
41.8800 359.0000 1.0000
41.8900 368.0000 1.0000
41.9000 349.0000 1.0000
41.9100 366.0000 1.0000
41.9200 353.0000 1.0000
41.9300 337.0000 1.0000
41.9400 341.0000 1.0000
41.9500 353.0000 1.0000
41.9600 352.0000 1.0000
41.9700 348.0000 1.0000
41.9800 343.0000 1.0000
41.9900 345.0000 1.0000
42.0000 331.0000 1.0000
42.0100 331.0000 1.0000
42.0200 355.0000 1.0000
42.0300 341.0000 1.0000
42.0400 321.0000 1.0000
42.0500 314.0000 1.0000
42.0600 326.0000 1.0000
42.0700 348.0000 1.0000
42.0800 348.0000 1.0000
42.0900 328.0000 1.0000
42.1000 341.0000 1.0000
42.1100 315.0000 1.0000
42.1200 349.0000 1.0000
42.1300 365.0000 1.0000
42.1400 328.0000 1.0000
42.1500 313.0000 1.0000
42.1600 349.0000 1.0000
42.1700 345.0000 1.0000
42.1800 332.0000 1.0000
42.1900 326.0000 1.0000
42.2000 348.0000 1.0000
42.2100 346.0000 1.0000
42.2200 348.0000 1.0000
42.2300 347.0000 1.0000
42.2400 346.0000 1.0000
42.2500 320.0000 1.0000
42.2600 363.0000 1.0000
42.2700 341.0000 1.0000
42.2800 348.0000 1.0000
42.2900 313.0000 1.0000
42.3000 310.0000 1.0000
42.3100 317.0000 1.0000
42.3200 360.0000 1.0000
42.3300 340.0000 1.0000
42.3400 360.0000 1.0000
42.3500 323.0000 1.0000
42.3600 354.0000 1.0000
42.3700 346.0000 1.0000
42.3800 332.0000 1.0000
42.3900 346.0000 1.0000
42.4000 360.0000 1.0000
42.4100 321.0000 1.0000
42.4200 355.0000 1.0000
42.4300 353.0000 1.0000
42.4400 337.0000 1.0000
42.4500 337.0000 1.0000
42.4600 335.0000 1.0000
42.4700 370.0000 1.0000
42.4800 367.0000 1.0000
42.4900 332.0000 1.0000
42.5000 360.0000 1.0000
42.5100 340.0000 1.0000
42.5200 380.0000 1.0000
42.5300 369.0000 1.0000
42.5400 361.0000 1.0000
42.5500 360.0000 1.0000
42.5600 357.0000 1.0000
42.5700 374.0000 1.0000
42.5800 362.0000 1.0000
42.5900 370.0000 1.0000
42.6000 387.0000 1.0000
42.6100 355.0000 1.0000
42.6200 372.0000 1.0000
42.6300 383.0000 1.0000
42.6400 401.0000 1.0000
42.6500 367.0000 1.0000
42.6600 410.0000 1.0000
42.6700 363.0000 1.0000
42.6800 367.0000 1.0000
42.6900 363.0000 1.0000
42.7000 352.0000 1.0000
42.7100 347.0000 1.0000
42.7200 322.0000 1.0000
42.7300 352.0000 1.0000
42.7400 353.0000 1.0000
42.7500 341.0000 1.0000
42.7600 368.0000 1.0000
42.7700 337.0000 1.0000
42.7800 358.0000 1.0000
42.7900 334.0000 1.0000
42.8000 367.0000 1.0000
42.8100 356.0000 1.0000
42.8200 353.0000 1.0000
42.8300 355.0000 1.0000
42.8400 336.0000 1.0000
42.8500 347.0000 1.0000
42.8600 356.0000 1.0000
42.8700 378.0000 1.0000
42.8800 371.0000 1.0000
42.8900 335.0000 1.0000
42.9000 347.0000 1.0000
42.9100 357.0000 1.0000
42.9200 333.0000 1.0000
42.9300 331.0000 1.0000
42.9400 323.0000 1.0000
42.9500 337.0000 1.0000
42.9600 328.0000 1.0000
42.9700 326.0000 1.0000
42.9800 360.0000 1.0000
42.9900 368.0000 1.0000
43.0000 315.0000 1.0000
43.0100 331.0000 1.0000
43.0200 345.0000 1.0000
43.0300 327.0000 1.0000
43.0400 330.0000 1.0000
43.0500 366.0000 1.0000
43.0600 336.0000 1.0000
43.0700 317.0000 1.0000
43.0800 324.0000 1.0000
43.0900 328.0000 1.0000
43.1000 327.0000 1.0000
43.1100 340.0000 1.0000
43.1200 326.0000 1.0000
43.1300 340.0000 1.0000
43.1400 353.0000 1.0000
43.1500 338.0000 1.0000
43.1600 345.0000 1.0000
43.1700 317.0000 1.0000
43.1800 367.0000 1.0000
43.1900 359.0000 1.0000
43.2000 323.0000 1.0000
43.2100 337.0000 1.0000
43.2200 316.0000 1.0000
43.2300 314.0000 1.0000
43.2400 345.0000 1.0000
43.2500 351.0000 1.0000
43.2600 352.0000 1.0000
43.2700 307.0000 1.0000
43.2800 326.0000 1.0000
43.2900 352.0000 1.0000
43.3000 348.0000 1.0000
43.3100 340.0000 1.0000
43.3200 337.0000 1.0000
43.3300 354.0000 1.0000
43.3400 344.0000 1.0000
43.3500 347.0000 1.0000
43.3600 347.0000 1.0000
43.3700 343.0000 1.0000
43.3800 311.0000 1.0000
43.3900 334.0000 1.0000
43.4000 350.0000 1.0000
43.4100 348.0000 1.0000
43.4200 349.0000 1.0000
43.4300 329.0000 1.0000
43.4400 335.0000 1.0000
43.4500 348.0000 1.0000
43.4600 331.0000 1.0000
43.4700 331.0000 1.0000
43.4800 360.0000 1.0000
43.4900 333.0000 1.0000
43.5000 339.0000 1.0000
43.5100 322.0000 1.0000
43.5200 347.0000 1.0000
43.5300 322.0000 1.0000
43.5400 320.0000 1.0000
43.5500 368.0000 1.0000
43.5600 375.0000 1.0000
43.5700 371.0000 1.0000
43.5800 345.0000 1.0000
43.5900 330.0000 1.0000
43.6000 341.0000 1.0000
43.6100 362.0000 1.0000
43.6200 366.0000 1.0000
43.6300 328.0000 1.0000
43.6400 342.0000 1.0000
43.6500 357.0000 1.0000
43.6600 337.0000 1.0000
43.6700 379.0000 1.0000
43.6800 351.0000 1.0000
43.6900 370.0000 1.0000
43.7000 375.0000 1.0000
43.7100 354.0000 1.0000
43.7200 332.0000 1.0000
43.7300 352.0000 1.0000
43.7400 345.0000 1.0000
43.7500 350.0000 1.0000
43.7600 332.0000 1.0000
43.7700 341.0000 1.0000
43.7800 356.0000 1.0000
43.7900 348.0000 1.0000
43.8000 331.0000 1.0000
43.8100 338.0000 1.0000
43.8200 367.0000 1.0000
43.8300 345.0000 1.0000
43.8400 354.0000 1.0000
43.8500 355.0000 1.0000
43.8600 339.0000 1.0000
43.8700 351.0000 1.0000
43.8800 348.0000 1.0000
43.8900 301.0000 1.0000
43.9000 329.0000 1.0000
43.9100 324.0000 1.0000
43.9200 306.0000 1.0000
43.9300 303.0000 1.0000
43.9400 339.0000 1.0000
43.9500 327.0000 1.0000
43.9600 342.0000 1.0000
43.9700 322.0000 1.0000
43.9800 332.0000 1.0000
43.9900 312.0000 1.0000
44.0000 305.0000 1.0000
44.0100 354.0000 1.0000
44.0200 321.0000 1.0000
44.0300 314.0000 1.0000
44.0400 312.0000 1.0000
44.0500 302.0000 1.0000
44.0600 303.0000 1.0000
44.0700 321.0000 1.0000
44.0800 282.0000 1.0000
44.0900 314.0000 1.0000
44.1000 308.0000 1.0000
44.1100 309.0000 1.0000
44.1200 313.0000 1.0000
44.1300 312.0000 1.0000
44.1400 318.0000 1.0000
44.1500 350.0000 1.0000
44.1600 358.0000 1.0000
44.1700 324.0000 1.0000
44.1800 342.0000 1.0000
44.1900 338.0000 1.0000
44.2000 308.0000 1.0000
44.2100 324.0000 1.0000
44.2200 338.0000 1.0000
44.2300 338.0000 1.0000
44.2400 341.0000 1.0000
44.2500 355.0000 1.0000
44.2600 353.0000 1.0000
44.2700 334.0000 1.0000
44.2800 310.0000 1.0000
44.2900 333.0000 1.0000
44.3000 309.0000 1.0000
44.3100 333.0000 1.0000
44.3200 334.0000 1.0000
44.3300 310.0000 1.0000
44.3400 325.0000 1.0000
44.3500 320.0000 1.0000
44.3600 319.0000 1.0000
44.3700 322.0000 1.0000
44.3800 331.0000 1.0000
44.3900 318.0000 1.0000
44.4000 307.0000 1.0000
44.4100 321.0000 1.0000
44.4200 344.0000 1.0000
44.4300 298.0000 1.0000
44.4400 330.0000 1.0000
44.4500 311.0000 1.0000
44.4600 303.0000 1.0000
44.4700 297.0000 1.0000
44.4800 314.0000 1.0000
44.4900 349.0000 1.0000
44.5000 327.0000 1.0000
44.5100 319.0000 1.0000
44.5200 356.0000 1.0000
44.5300 332.0000 1.0000
44.5400 305.0000 1.0000
44.5500 288.0000 1.0000
44.5600 325.0000 1.0000
44.5700 319.0000 1.0000
44.5800 314.0000 1.0000
44.5900 306.0000 1.0000
44.6000 281.0000 1.0000
44.6100 310.0000 1.0000
44.6200 306.0000 1.0000
44.6300 329.0000 1.0000
44.6400 323.0000 1.0000
44.6500 318.0000 1.0000
44.6600 311.0000 1.0000
44.6700 286.0000 1.0000
44.6800 310.0000 1.0000
44.6900 340.0000 1.0000
44.7000 313.0000 1.0000
44.7100 304.0000 1.0000
44.7200 321.0000 1.0000
44.7300 335.0000 1.0000
44.7400 298.0000 1.0000
44.7500 347.0000 1.0000
44.7600 336.0000 1.0000
44.7700 370.0000 1.0000
44.7800 335.0000 1.0000
44.7900 292.0000 1.0000
44.8000 324.0000 1.0000
44.8100 331.0000 1.0000
44.8200 331.0000 1.0000
44.8300 303.0000 1.0000
44.8400 313.0000 1.0000
44.8500 294.0000 1.0000
44.8600 311.0000 1.0000
44.8700 339.0000 1.0000
44.8800 359.0000 1.0000
44.8900 341.0000 1.0000
44.9000 312.0000 1.0000
44.9100 300.0000 1.0000
44.9200 328.0000 1.0000
44.9300 324.0000 1.0000
44.9400 301.0000 1.0000
44.9500 308.0000 1.0000
44.9600 329.0000 1.0000
44.9700 319.0000 1.0000
44.9800 321.0000 1.0000
44.9900 320.0000 1.0000
45.0000 306.0000 1.0000
45.0100 339.0000 1.0000
45.0200 303.0000 1.0000
45.0300 321.0000 1.0000
45.0400 321.0000 1.0000
45.0500 322.0000 1.0000
45.0600 313.0000 1.0000
45.0700 336.0000 1.0000
45.0800 321.0000 1.0000
45.0900 313.0000 1.0000
45.1000 328.0000 1.0000
45.1100 301.0000 1.0000
45.1200 318.0000 1.0000
45.1300 309.0000 1.0000
45.1400 325.0000 1.0000
45.1500 322.0000 1.0000
45.1600 320.0000 1.0000
45.1700 298.0000 1.0000
45.1800 321.0000 1.0000
45.1900 305.0000 1.0000
45.2000 292.0000 1.0000
45.2100 295.0000 1.0000
45.2200 316.0000 1.0000
45.2300 291.0000 1.0000
45.2400 307.0000 1.0000
45.2500 305.0000 1.0000
45.2600 321.0000 1.0000
45.2700 313.0000 1.0000
45.2800 304.0000 1.0000
45.2900 306.0000 1.0000
45.3000 332.0000 1.0000
45.3100 309.0000 1.0000
45.3200 329.0000 1.0000
45.3300 326.0000 1.0000
45.3400 308.0000 1.0000
45.3500 326.0000 1.0000
45.3600 294.0000 1.0000
45.3700 277.0000 1.0000
45.3800 288.0000 1.0000
45.3900 322.0000 1.0000
45.4000 293.0000 1.0000
45.4100 307.0000 1.0000
45.4200 323.0000 1.0000
45.4300 339.0000 1.0000
45.4400 296.0000 1.0000
45.4500 300.0000 1.0000
45.4600 331.0000 1.0000
45.4700 329.0000 1.0000
45.4800 309.0000 1.0000
45.4900 306.0000 1.0000
45.5000 311.0000 1.0000
45.5100 316.0000 1.0000
45.5200 320.0000 1.0000
45.5300 336.0000 1.0000
45.5400 330.0000 1.0000
45.5500 298.0000 1.0000
45.5600 329.0000 1.0000
45.5700 316.0000 1.0000
45.5800 307.0000 1.0000
45.5900 322.0000 1.0000
45.6000 297.0000 1.0000
45.6100 333.0000 1.0000
45.6200 315.0000 1.0000
45.6300 298.0000 1.0000
45.6400 338.0000 1.0000
45.6500 337.0000 1.0000
45.6600 337.0000 1.0000
45.6700 305.0000 1.0000
45.6800 310.0000 1.0000
45.6900 312.0000 1.0000
45.7000 315.0000 1.0000
45.7100 311.0000 1.0000
45.7200 298.0000 1.0000
45.7300 299.0000 1.0000
45.7400 302.0000 1.0000
45.7500 298.0000 1.0000
45.7600 286.0000 1.0000
45.7700 293.0000 1.0000
45.7800 300.0000 1.0000
45.7900 327.0000 1.0000
45.8000 334.0000 1.0000
45.8100 338.0000 1.0000
45.8200 318.0000 1.0000
45.8300 299.0000 1.0000
45.8400 305.0000 1.0000
45.8500 306.0000 1.0000
45.8600 299.0000 1.0000
45.8700 326.0000 1.0000
45.8800 317.0000 1.0000
45.8900 326.0000 1.0000
45.9000 303.0000 1.0000
45.9100 310.0000 1.0000
45.9200 299.0000 1.0000
45.9300 312.0000 1.0000
45.9400 309.0000 1.0000
45.9500 320.0000 1.0000
45.9600 316.0000 1.0000
45.9700 346.0000 1.0000
45.9800 321.0000 1.0000
45.9900 286.0000 1.0000
46.0000 321.0000 1.0000
46.0100 305.0000 1.0000
46.0200 320.0000 1.0000
46.0300 290.0000 1.0000
46.0400 318.0000 1.0000
46.0500 303.0000 1.0000
46.0600 313.0000 1.0000
46.0700 310.0000 1.0000
46.0800 308.0000 1.0000
46.0900 307.0000 1.0000
46.1000 324.0000 1.0000
46.1100 311.0000 1.0000
46.1200 305.0000 1.0000
46.1300 302.0000 1.0000
46.1400 307.0000 1.0000
46.1500 308.0000 1.0000
46.1600 314.0000 1.0000
46.1700 341.0000 1.0000
46.1800 308.0000 1.0000
46.1900 311.0000 1.0000
46.2000 328.0000 1.0000
46.2100 289.0000 1.0000
46.2200 347.0000 1.0000
46.2300 344.0000 1.0000
46.2400 306.0000 1.0000
46.2500 308.0000 1.0000
46.2600 295.0000 1.0000
46.2700 297.0000 1.0000
46.2800 316.0000 1.0000
46.2900 341.0000 1.0000
46.3000 342.0000 1.0000
46.3100 302.0000 1.0000
46.3200 322.0000 1.0000
46.3300 284.0000 1.0000
46.3400 328.0000 1.0000
46.3500 333.0000 1.0000
46.3600 327.0000 1.0000
46.3700 330.0000 1.0000
46.3800 308.0000 1.0000
46.3900 331.0000 1.0000
46.4000 315.0000 1.0000
46.4100 317.0000 1.0000
46.4200 317.0000 1.0000
46.4300 314.0000 1.0000
46.4400 317.0000 1.0000
46.4500 329.0000 1.0000
46.4600 319.0000 1.0000
46.4700 320.0000 1.0000
46.4800 334.0000 1.0000
46.4900 314.0000 1.0000
46.5000 295.0000 1.0000
46.5100 295.0000 1.0000
46.5200 355.0000 1.0000
46.5300 302.0000 1.0000
46.5400 312.0000 1.0000
46.5500 289.0000 1.0000
46.5600 301.0000 1.0000
46.5700 325.0000 1.0000
46.5800 337.0000 1.0000
46.5900 299.0000 1.0000
46.6000 308.0000 1.0000
46.6100 289.0000 1.0000
46.6200 294.0000 1.0000
46.6300 327.0000 1.0000
46.6400 322.0000 1.0000
46.6500 303.0000 1.0000
46.6600 312.0000 1.0000
46.6700 287.0000 1.0000
46.6800 306.0000 1.0000
46.6900 304.0000 1.0000
46.7000 322.0000 1.0000
46.7100 319.0000 1.0000
46.7200 298.0000 1.0000
46.7300 318.0000 1.0000
46.7400 299.0000 1.0000
46.7500 316.0000 1.0000
46.7600 306.0000 1.0000
46.7700 289.0000 1.0000
46.7800 294.0000 1.0000
46.7900 311.0000 1.0000
46.8000 298.0000 1.0000
46.8100 290.0000 1.0000
46.8200 289.0000 1.0000
46.8300 295.0000 1.0000
46.8400 324.0000 1.0000
46.8500 314.0000 1.0000
46.8600 316.0000 1.0000
46.8700 300.0000 1.0000
46.8800 294.0000 1.0000
46.8900 314.0000 1.0000
46.9000 299.0000 1.0000
46.9100 296.0000 1.0000
46.9200 286.0000 1.0000
46.9300 302.0000 1.0000
46.9400 280.0000 1.0000
46.9500 312.0000 1.0000
46.9600 314.0000 1.0000
46.9700 317.0000 1.0000
46.9800 323.0000 1.0000
46.9900 311.0000 1.0000
47.0000 309.0000 1.0000
47.0100 281.0000 1.0000
47.0200 304.0000 1.0000
47.0300 315.0000 1.0000
47.0400 299.0000 1.0000
47.0500 304.0000 1.0000
47.0600 303.0000 1.0000
47.0700 286.0000 1.0000
47.0800 290.0000 1.0000
47.0900 293.0000 1.0000
47.1000 317.0000 1.0000
47.1100 317.0000 1.0000
47.1200 300.0000 1.0000
47.1300 308.0000 1.0000
47.1400 281.0000 1.0000
47.1500 331.0000 1.0000
47.1600 292.0000 1.0000
47.1700 295.0000 1.0000
47.1800 311.0000 1.0000
47.1900 306.0000 1.0000
47.2000 294.0000 1.0000
47.2100 279.0000 1.0000
47.2200 302.0000 1.0000
47.2300 328.0000 1.0000
47.2400 287.0000 1.0000
47.2500 257.0000 1.0000
47.2600 300.0000 1.0000
47.2700 314.0000 1.0000
47.2800 302.0000 1.0000
47.2900 299.0000 1.0000
47.3000 291.0000 1.0000
47.3100 300.0000 1.0000
47.3200 288.0000 1.0000
47.3300 276.0000 1.0000
47.3400 282.0000 1.0000
47.3500 305.0000 1.0000
47.3600 328.0000 1.0000
47.3700 312.0000 1.0000
47.3800 291.0000 1.0000
47.3900 288.0000 1.0000
47.4000 302.0000 1.0000
47.4100 311.0000 1.0000
47.4200 306.0000 1.0000
47.4300 302.0000 1.0000
47.4400 308.0000 1.0000
47.4500 291.0000 1.0000
47.4600 295.0000 1.0000
47.4700 298.0000 1.0000
47.4800 281.0000 1.0000
47.4900 288.0000 1.0000
47.5000 315.0000 1.0000
47.5100 327.0000 1.0000
47.5200 315.0000 1.0000
47.5300 323.0000 1.0000
47.5400 294.0000 1.0000
47.5500 276.0000 1.0000
47.5600 296.0000 1.0000
47.5700 307.0000 1.0000
47.5800 301.0000 1.0000
47.5900 301.0000 1.0000
47.6000 288.0000 1.0000
47.6100 295.0000 1.0000
47.6200 335.0000 1.0000
47.6300 306.0000 1.0000
47.6400 258.0000 1.0000
47.6500 281.0000 1.0000
47.6600 272.0000 1.0000
47.6700 309.0000 1.0000
47.6800 299.0000 1.0000
47.6900 291.0000 1.0000
47.7000 279.0000 1.0000
47.7100 305.0000 1.0000
47.7200 292.0000 1.0000
47.7300 288.0000 1.0000
47.7400 296.0000 1.0000
47.7500 301.0000 1.0000
47.7600 305.0000 1.0000
47.7700 277.0000 1.0000
47.7800 292.0000 1.0000
47.7900 309.0000 1.0000
47.8000 302.0000 1.0000
47.8100 313.0000 1.0000
47.8200 306.0000 1.0000
47.8300 292.0000 1.0000
47.8400 283.0000 1.0000
47.8500 301.0000 1.0000
47.8600 309.0000 1.0000
47.8700 312.0000 1.0000
47.8800 303.0000 1.0000
47.8900 285.0000 1.0000
47.9000 305.0000 1.0000
47.9100 305.0000 1.0000
47.9200 290.0000 1.0000
47.9300 304.0000 1.0000
47.9400 273.0000 1.0000
47.9500 283.0000 1.0000
47.9600 284.0000 1.0000
47.9700 304.0000 1.0000
47.9800 320.0000 1.0000
47.9900 308.0000 1.0000
48.0000 259.0000 1.0000
48.0100 296.0000 1.0000
48.0200 303.0000 1.0000
48.0300 298.0000 1.0000
48.0400 298.0000 1.0000
48.0500 288.0000 1.0000
48.0600 304.0000 1.0000
48.0700 311.0000 1.0000
48.0800 291.0000 1.0000
48.0900 297.0000 1.0000
48.1000 271.0000 1.0000
48.1100 317.0000 1.0000
48.1200 291.0000 1.0000
48.1300 298.0000 1.0000
48.1400 280.0000 1.0000
48.1500 287.0000 1.0000
48.1600 310.0000 1.0000
48.1700 297.0000 1.0000
48.1800 298.0000 1.0000
48.1900 278.0000 1.0000
48.2000 276.0000 1.0000
48.2100 280.0000 1.0000
48.2200 320.0000 1.0000
48.2300 286.0000 1.0000
48.2400 281.0000 1.0000
48.2500 263.0000 1.0000
48.2600 300.0000 1.0000
48.2700 254.0000 1.0000
48.2800 263.0000 1.0000
48.2900 287.0000 1.0000
48.3000 329.0000 1.0000
48.3100 295.0000 1.0000
48.3200 299.0000 1.0000
48.3300 297.0000 1.0000
48.3400 301.0000 1.0000
48.3500 284.0000 1.0000
48.3600 283.0000 1.0000
48.3700 289.0000 1.0000
48.3800 320.0000 1.0000
48.3900 300.0000 1.0000
48.4000 301.0000 1.0000
48.4100 287.0000 1.0000
48.4200 294.0000 1.0000
48.4300 297.0000 1.0000
48.4400 325.0000 1.0000
48.4500 292.0000 1.0000
48.4600 265.0000 1.0000
48.4700 290.0000 1.0000
48.4800 312.0000 1.0000
48.4900 296.0000 1.0000
48.5000 283.0000 1.0000
48.5100 272.0000 1.0000
48.5200 286.0000 1.0000
48.5300 305.0000 1.0000
48.5400 317.0000 1.0000
48.5500 291.0000 1.0000
48.5600 312.0000 1.0000
48.5700 283.0000 1.0000
48.5800 292.0000 1.0000
48.5900 286.0000 1.0000
48.6000 292.0000 1.0000
48.6100 299.0000 1.0000
48.6200 280.0000 1.0000
48.6300 248.0000 1.0000
48.6400 268.0000 1.0000
48.6500 270.0000 1.0000
48.6600 283.0000 1.0000
48.6700 285.0000 1.0000
48.6800 294.0000 1.0000
48.6900 291.0000 1.0000
48.7000 272.0000 1.0000
48.7100 295.0000 1.0000
48.7200 311.0000 1.0000
48.7300 276.0000 1.0000
48.7400 277.0000 1.0000
48.7500 289.0000 1.0000
48.7600 297.0000 1.0000
48.7700 273.0000 1.0000
48.7800 280.0000 1.0000
48.7900 280.0000 1.0000
48.8000 262.0000 1.0000
48.8100 270.0000 1.0000
48.8200 299.0000 1.0000
48.8300 302.0000 1.0000
48.8400 313.0000 1.0000
48.8500 314.0000 1.0000
48.8600 270.0000 1.0000
48.8700 277.0000 1.0000
48.8800 271.0000 1.0000
48.8900 266.0000 1.0000
48.9000 278.0000 1.0000
48.9100 312.0000 1.0000
48.9200 296.0000 1.0000
48.9300 288.0000 1.0000
48.9400 280.0000 1.0000
48.9500 282.0000 1.0000
48.9600 273.0000 1.0000
48.9700 280.0000 1.0000
48.9800 279.0000 1.0000
48.9900 287.0000 1.0000
49.0000 289.0000 1.0000
49.0100 280.0000 1.0000
49.0200 277.0000 1.0000
49.0300 261.0000 1.0000
49.0400 303.0000 1.0000
49.0500 301.0000 1.0000
49.0600 301.0000 1.0000
49.0700 289.0000 1.0000
49.0800 283.0000 1.0000
49.0900 305.0000 1.0000
49.1000 284.0000 1.0000
49.1100 292.0000 1.0000
49.1200 273.0000 1.0000
49.1300 280.0000 1.0000
49.1400 288.0000 1.0000
49.1500 263.0000 1.0000
49.1600 285.0000 1.0000
49.1700 278.0000 1.0000
49.1800 280.0000 1.0000
49.1900 302.0000 1.0000
49.2000 301.0000 1.0000
49.2100 277.0000 1.0000
49.2200 300.0000 1.0000
49.2300 306.0000 1.0000
49.2400 317.0000 1.0000
49.2500 283.0000 1.0000
49.2600 275.0000 1.0000
49.2700 281.0000 1.0000
49.2800 274.0000 1.0000
49.2900 269.0000 1.0000
49.3000 271.0000 1.0000
49.3100 289.0000 1.0000
49.3200 292.0000 1.0000
49.3300 283.0000 1.0000
49.3400 295.0000 1.0000
49.3500 269.0000 1.0000
49.3600 293.0000 1.0000
49.3700 284.0000 1.0000
49.3800 280.0000 1.0000
49.3900 282.0000 1.0000
49.4000 328.0000 1.0000
49.4100 304.0000 1.0000
49.4200 322.0000 1.0000
49.4300 302.0000 1.0000
49.4400 279.0000 1.0000
49.4500 306.0000 1.0000
49.4600 292.0000 1.0000
49.4700 326.0000 1.0000
49.4800 295.0000 1.0000
49.4900 306.0000 1.0000
49.5000 313.0000 1.0000
49.5100 306.0000 1.0000
49.5200 298.0000 1.0000
49.5300 297.0000 1.0000
49.5400 299.0000 1.0000
49.5500 300.0000 1.0000
49.5600 334.0000 1.0000
49.5700 317.0000 1.0000
49.5800 331.0000 1.0000
49.5900 314.0000 1.0000
49.6000 339.0000 1.0000
49.6100 336.0000 1.0000
49.6200 328.0000 1.0000
49.6300 321.0000 1.0000
49.6400 332.0000 1.0000
49.6500 311.0000 1.0000
49.6600 306.0000 1.0000
49.6700 320.0000 1.0000
49.6800 312.0000 1.0000
49.6900 309.0000 1.0000
49.7000 322.0000 1.0000
49.7100 330.0000 1.0000
49.7200 329.0000 1.0000
49.7300 337.0000 1.0000
49.7400 314.0000 1.0000
49.7500 336.0000 1.0000
49.7600 287.0000 1.0000
49.7700 315.0000 1.0000
49.7800 308.0000 1.0000
49.7900 295.0000 1.0000
49.8000 315.0000 1.0000
49.8100 301.0000 1.0000
49.8200 310.0000 1.0000
49.8300 318.0000 1.0000
49.8400 318.0000 1.0000
49.8500 290.0000 1.0000
49.8600 311.0000 1.0000
49.8700 308.0000 1.0000
49.8800 310.0000 1.0000
49.8900 300.0000 1.0000
49.9000 282.0000 1.0000
49.9100 303.0000 1.0000
49.9200 325.0000 1.0000
49.9300 294.0000 1.0000
49.9400 298.0000 1.0000
49.9500 282.0000 1.0000
49.9600 282.0000 1.0000
49.9700 340.0000 1.0000
49.9800 306.0000 1.0000
49.9900 323.0000 1.0000
50.0000 283.0000 1.0000
50.0100 283.0000 1.0000
50.0200 302.0000 1.0000
50.0300 330.0000 1.0000
50.0400 309.0000 1.0000
50.0500 296.0000 1.0000
50.0600 328.0000 1.0000
50.0700 297.0000 1.0000
50.0800 275.0000 1.0000
50.0900 279.0000 1.0000
50.1000 310.0000 1.0000
50.1100 277.0000 1.0000
50.1200 298.0000 1.0000
50.1300 322.0000 1.0000
50.1400 297.0000 1.0000
50.1500 301.0000 1.0000
50.1600 298.0000 1.0000
50.1700 291.0000 1.0000
50.1800 311.0000 1.0000
50.1900 305.0000 1.0000
50.2000 286.0000 1.0000
50.2100 264.0000 1.0000
50.2200 289.0000 1.0000
50.2300 255.0000 1.0000
50.2400 272.0000 1.0000
50.2500 296.0000 1.0000
50.2600 312.0000 1.0000
50.2700 285.0000 1.0000
50.2800 284.0000 1.0000
50.2900 286.0000 1.0000
50.3000 297.0000 1.0000
50.3100 317.0000 1.0000
50.3200 289.0000 1.0000
50.3300 287.0000 1.0000
50.3400 310.0000 1.0000
50.3500 297.0000 1.0000
50.3600 275.0000 1.0000
50.3700 308.0000 1.0000
50.3800 289.0000 1.0000
50.3900 295.0000 1.0000
50.4000 282.0000 1.0000
50.4100 306.0000 1.0000
50.4200 268.0000 1.0000
50.4300 308.0000 1.0000
50.4400 301.0000 1.0000
50.4500 304.0000 1.0000
50.4600 285.0000 1.0000
50.4700 305.0000 1.0000
50.4800 317.0000 1.0000
50.4900 311.0000 1.0000
50.5000 283.0000 1.0000
50.5100 297.0000 1.0000
50.5200 294.0000 1.0000
50.5300 285.0000 1.0000
50.5400 282.0000 1.0000
50.5500 305.0000 1.0000
50.5600 266.0000 1.0000
50.5700 258.0000 1.0000
50.5800 302.0000 1.0000
50.5900 299.0000 1.0000
50.6000 287.0000 1.0000
50.6100 283.0000 1.0000
50.6200 308.0000 1.0000
50.6300 317.0000 1.0000
50.6400 305.0000 1.0000
50.6500 306.0000 1.0000
50.6600 301.0000 1.0000
50.6700 292.0000 1.0000
50.6800 318.0000 1.0000
50.6900 278.0000 1.0000
50.7000 320.0000 1.0000
50.7100 282.0000 1.0000
50.7200 295.0000 1.0000
50.7300 293.0000 1.0000
50.7400 301.0000 1.0000
50.7500 284.0000 1.0000
50.7600 292.0000 1.0000
50.7700 280.0000 1.0000
50.7800 285.0000 1.0000
50.7900 297.0000 1.0000
50.8000 293.0000 1.0000
50.8100 286.0000 1.0000
50.8200 305.0000 1.0000
50.8300 302.0000 1.0000
50.8400 306.0000 1.0000
50.8500 264.0000 1.0000
50.8600 304.0000 1.0000
50.8700 345.0000 1.0000
50.8800 330.0000 1.0000
50.8900 323.0000 1.0000
50.9000 272.0000 1.0000
50.9100 305.0000 1.0000
50.9200 324.0000 1.0000
50.9300 283.0000 1.0000
50.9400 307.0000 1.0000
50.9500 331.0000 1.0000
50.9600 314.0000 1.0000
50.9700 295.0000 1.0000
50.9800 303.0000 1.0000
50.9900 293.0000 1.0000
51.0000 344.0000 1.0000
51.0100 327.0000 1.0000
51.0200 327.0000 1.0000
51.0300 317.0000 1.0000
51.0400 301.0000 1.0000
51.0500 347.0000 1.0000
51.0600 310.0000 1.0000
51.0700 311.0000 1.0000
51.0800 293.0000 1.0000
51.0900 278.0000 1.0000
51.1000 315.0000 1.0000
51.1100 321.0000 1.0000
51.1200 313.0000 1.0000
51.1300 320.0000 1.0000
51.1400 322.0000 1.0000
51.1500 291.0000 1.0000
51.1600 306.0000 1.0000
51.1700 342.0000 1.0000
51.1800 304.0000 1.0000
51.1900 307.0000 1.0000
51.2000 330.0000 1.0000
51.2100 323.0000 1.0000
51.2200 321.0000 1.0000
51.2300 328.0000 1.0000
51.2400 316.0000 1.0000
51.2500 333.0000 1.0000
51.2600 320.0000 1.0000
51.2700 336.0000 1.0000
51.2800 340.0000 1.0000
51.2900 344.0000 1.0000
51.3000 364.0000 1.0000
51.3100 363.0000 1.0000
51.3200 361.0000 1.0000
51.3300 350.0000 1.0000
51.3400 389.0000 1.0000
51.3500 362.0000 1.0000
51.3600 393.0000 1.0000
51.3700 415.0000 1.0000
51.3800 400.0000 1.0000
51.3900 442.0000 1.0000
51.4000 431.0000 1.0000
51.4100 418.0000 1.0000
51.4200 447.0000 1.0000
51.4300 504.0000 1.0000
51.4400 517.0000 1.0000
51.4500 493.0000 1.0000
51.4600 531.0000 1.0000
51.4700 515.0000 1.0000
51.4800 576.0000 1.0000
51.4900 556.0000 1.0000
51.5000 619.0000 1.0000
51.5100 698.0000 1.0000
51.5200 690.0000 1.0000
51.5300 742.0000 1.0000
51.5400 794.0000 1.0000
51.5500 874.0000 1.0000
51.5600 918.0000 1.0000
51.5700 1002.0000 1.0000
51.5800 1062.0000 1.0000
51.5900 1199.0000 1.0000
51.6000 1275.0000 1.0000
51.6100 1434.0000 1.0000
51.6200 1543.0000 1.0000
51.6300 1611.0000 1.0000
51.6400 1698.0000 1.0000
51.6500 1864.0000 1.0000
51.6600 1951.0000 1.0000
51.6700 1970.0000 1.0000
51.6800 2100.0000 1.0000
51.6900 2127.0000 1.0000
51.7000 2076.0000 1.0000
51.7100 1950.0000 1.0000
51.7200 1981.0000 1.0000
51.7300 1846.0000 1.0000
51.7400 1820.0000 1.0000
51.7500 1789.0000 1.0000
51.7600 1787.0000 1.0000
51.7700 1651.0000 1.0000
51.7800 1609.0000 1.0000
51.7900 1563.0000 1.0000
51.8000 1589.0000 1.0000
51.8100 1522.0000 1.0000
51.8200 1485.0000 1.0000
51.8300 1394.0000 1.0000
51.8400 1384.0000 1.0000
51.8500 1308.0000 1.0000
51.8600 1203.0000 1.0000
51.8700 1116.0000 1.0000
51.8800 1052.0000 1.0000
51.8900 1000.0000 1.0000
51.9000 905.0000 1.0000
51.9100 873.0000 1.0000
51.9200 764.0000 1.0000
51.9300 760.0000 1.0000
51.9400 664.0000 1.0000
51.9500 704.0000 1.0000
51.9600 610.0000 1.0000
51.9700 618.0000 1.0000
51.9800 578.0000 1.0000
51.9900 551.0000 1.0000
52.0000 487.0000 1.0000
52.0100 539.0000 1.0000
52.0200 521.0000 1.0000
52.0300 475.0000 1.0000
52.0400 456.0000 1.0000
52.0500 437.0000 1.0000
52.0600 445.0000 1.0000
52.0700 418.0000 1.0000
52.0800 430.0000 1.0000
52.0900 431.0000 1.0000
52.1000 402.0000 1.0000
52.1100 391.0000 1.0000
52.1200 396.0000 1.0000
52.1300 390.0000 1.0000
52.1400 364.0000 1.0000
52.1500 376.0000 1.0000
52.1600 353.0000 1.0000
52.1700 368.0000 1.0000
52.1800 365.0000 1.0000
52.1900 359.0000 1.0000
52.2000 351.0000 1.0000
52.2100 329.0000 1.0000
52.2200 323.0000 1.0000
52.2300 327.0000 1.0000
52.2400 314.0000 1.0000
52.2500 328.0000 1.0000
52.2600 319.0000 1.0000
52.2700 325.0000 1.0000
52.2800 349.0000 1.0000
52.2900 315.0000 1.0000
52.3000 342.0000 1.0000
52.3100 301.0000 1.0000
52.3200 324.0000 1.0000
52.3300 347.0000 1.0000
52.3400 306.0000 1.0000
52.3500 329.0000 1.0000
52.3600 330.0000 1.0000
52.3700 330.0000 1.0000
52.3800 320.0000 1.0000
52.3900 306.0000 1.0000
52.4000 311.0000 1.0000
52.4100 330.0000 1.0000
52.4200 327.0000 1.0000
52.4300 325.0000 1.0000
52.4400 310.0000 1.0000
52.4500 313.0000 1.0000
52.4600 322.0000 1.0000
52.4700 280.0000 1.0000
52.4800 288.0000 1.0000
52.4900 287.0000 1.0000
52.5000 291.0000 1.0000
52.5100 296.0000 1.0000
52.5200 305.0000 1.0000
52.5300 322.0000 1.0000
52.5400 324.0000 1.0000
52.5500 270.0000 1.0000
52.5600 334.0000 1.0000
52.5700 310.0000 1.0000
52.5800 319.0000 1.0000
52.5900 292.0000 1.0000
52.6000 285.0000 1.0000
52.6100 291.0000 1.0000
52.6200 305.0000 1.0000
52.6300 287.0000 1.0000
52.6400 310.0000 1.0000
52.6500 297.0000 1.0000
52.6600 282.0000 1.0000
52.6700 285.0000 1.0000
52.6800 286.0000 1.0000
52.6900 291.0000 1.0000
52.7000 275.0000 1.0000
52.7100 285.0000 1.0000
52.7200 286.0000 1.0000
52.7300 294.0000 1.0000
52.7400 281.0000 1.0000
52.7500 294.0000 1.0000
52.7600 291.0000 1.0000
52.7700 296.0000 1.0000
52.7800 295.0000 1.0000
52.7900 311.0000 1.0000
52.8000 320.0000 1.0000
52.8100 294.0000 1.0000
52.8200 304.0000 1.0000
52.8300 284.0000 1.0000
52.8400 295.0000 1.0000
52.8500 274.0000 1.0000
52.8600 293.0000 1.0000
52.8700 282.0000 1.0000
52.8800 279.0000 1.0000
52.8900 286.0000 1.0000
52.9000 294.0000 1.0000
52.9100 285.0000 1.0000
52.9200 277.0000 1.0000
52.9300 291.0000 1.0000
52.9400 294.0000 1.0000
52.9500 277.0000 1.0000
52.9600 268.0000 1.0000
52.9700 261.0000 1.0000
52.9800 274.0000 1.0000
52.9900 288.0000 1.0000
53.0000 265.0000 1.0000
53.0100 290.0000 1.0000
53.0200 293.0000 1.0000
53.0300 270.0000 1.0000
53.0400 277.0000 1.0000
53.0500 295.0000 1.0000
53.0600 283.0000 1.0000
53.0700 279.0000 1.0000
53.0800 300.0000 1.0000
53.0900 265.0000 1.0000
53.1000 287.0000 1.0000
53.1100 281.0000 1.0000
53.1200 261.0000 1.0000
53.1300 298.0000 1.0000
53.1400 302.0000 1.0000
53.1500 287.0000 1.0000
53.1600 273.0000 1.0000
53.1700 266.0000 1.0000
53.1800 274.0000 1.0000
53.1900 293.0000 1.0000
53.2000 283.0000 1.0000
53.2100 305.0000 1.0000
53.2200 275.0000 1.0000
53.2300 296.0000 1.0000
53.2400 296.0000 1.0000
53.2500 299.0000 1.0000
53.2600 292.0000 1.0000
53.2700 294.0000 1.0000
53.2800 270.0000 1.0000
53.2900 279.0000 1.0000
53.3000 287.0000 1.0000
53.3100 288.0000 1.0000
53.3200 288.0000 1.0000
53.3300 290.0000 1.0000
53.3400 298.0000 1.0000
53.3500 287.0000 1.0000
53.3600 286.0000 1.0000
53.3700 298.0000 1.0000
53.3800 256.0000 1.0000
53.3900 256.0000 1.0000
53.4000 300.0000 1.0000
53.4100 288.0000 1.0000
53.4200 259.0000 1.0000
53.4300 304.0000 1.0000
53.4400 309.0000 1.0000
53.4500 280.0000 1.0000
53.4600 277.0000 1.0000
53.4700 281.0000 1.0000
53.4800 258.0000 1.0000
53.4900 281.0000 1.0000
53.5000 281.0000 1.0000
53.5100 268.0000 1.0000
53.5200 312.0000 1.0000
53.5300 293.0000 1.0000
53.5400 286.0000 1.0000
53.5500 281.0000 1.0000
53.5600 256.0000 1.0000
53.5700 288.0000 1.0000
53.5800 277.0000 1.0000
53.5900 292.0000 1.0000
53.6000 272.0000 1.0000
53.6100 249.0000 1.0000
53.6200 288.0000 1.0000
53.6300 286.0000 1.0000
53.6400 282.0000 1.0000
53.6500 276.0000 1.0000
53.6600 303.0000 1.0000
53.6700 293.0000 1.0000
53.6800 269.0000 1.0000
53.6900 262.0000 1.0000
53.7000 267.0000 1.0000
53.7100 271.0000 1.0000
53.7200 279.0000 1.0000
53.7300 272.0000 1.0000
53.7400 276.0000 1.0000
53.7500 297.0000 1.0000
53.7600 262.0000 1.0000
53.7700 285.0000 1.0000
53.7800 290.0000 1.0000
53.7900 283.0000 1.0000
53.8000 298.0000 1.0000
53.8100 304.0000 1.0000
53.8200 271.0000 1.0000
53.8300 281.0000 1.0000
53.8400 306.0000 1.0000
53.8500 289.0000 1.0000
53.8600 260.0000 1.0000
53.8700 285.0000 1.0000
53.8800 288.0000 1.0000
53.8900 287.0000 1.0000
53.9000 269.0000 1.0000
53.9100 264.0000 1.0000
53.9200 298.0000 1.0000
53.9300 286.0000 1.0000
53.9400 305.0000 1.0000
53.9500 320.0000 1.0000
53.9600 297.0000 1.0000
53.9700 299.0000 1.0000
53.9800 296.0000 1.0000
53.9900 287.0000 1.0000
54.0000 286.0000 1.0000
54.0100 288.0000 1.0000
54.0200 269.0000 1.0000
54.0300 293.0000 1.0000
54.0400 288.0000 1.0000
54.0500 306.0000 1.0000
54.0600 303.0000 1.0000
54.0700 282.0000 1.0000
54.0800 284.0000 1.0000
54.0900 333.0000 1.0000
54.1000 306.0000 1.0000
54.1100 295.0000 1.0000
54.1200 271.0000 1.0000
54.1300 310.0000 1.0000
54.1400 308.0000 1.0000
54.1500 296.0000 1.0000
54.1600 291.0000 1.0000
54.1700 306.0000 1.0000
54.1800 287.0000 1.0000
54.1900 324.0000 1.0000
54.2000 302.0000 1.0000
54.2100 324.0000 1.0000
54.2200 328.0000 1.0000
54.2300 335.0000 1.0000
54.2400 293.0000 1.0000
54.2500 317.0000 1.0000
54.2600 293.0000 1.0000
54.2700 294.0000 1.0000
54.2800 323.0000 1.0000
54.2900 329.0000 1.0000
54.3000 298.0000 1.0000
54.3100 308.0000 1.0000
54.3200 306.0000 1.0000
54.3300 306.0000 1.0000
54.3400 302.0000 1.0000
54.3500 317.0000 1.0000
54.3600 306.0000 1.0000
54.3700 315.0000 1.0000
54.3800 320.0000 1.0000
54.3900 325.0000 1.0000
54.4000 289.0000 1.0000
54.4100 315.0000 1.0000
54.4200 331.0000 1.0000
54.4300 312.0000 1.0000
54.4400 328.0000 1.0000
54.4500 305.0000 1.0000
54.4600 339.0000 1.0000
54.4700 339.0000 1.0000
54.4800 318.0000 1.0000
54.4900 336.0000 1.0000
54.5000 315.0000 1.0000
54.5100 305.0000 1.0000
54.5200 323.0000 1.0000
54.5300 316.0000 1.0000
54.5400 308.0000 1.0000
54.5500 295.0000 1.0000
54.5600 312.0000 1.0000
54.5700 312.0000 1.0000
54.5800 352.0000 1.0000
54.5900 380.0000 1.0000
54.6000 372.0000 1.0000
54.6100 384.0000 1.0000
54.6200 372.0000 1.0000
54.6300 360.0000 1.0000
54.6400 405.0000 1.0000
54.6500 419.0000 1.0000
54.6600 389.0000 1.0000
54.6700 403.0000 1.0000
54.6800 375.0000 1.0000
54.6900 388.0000 1.0000
54.7000 393.0000 1.0000
54.7100 421.0000 1.0000
54.7200 452.0000 1.0000
54.7300 435.0000 1.0000
54.7400 435.0000 1.0000
54.7500 436.0000 1.0000
54.7600 451.0000 1.0000
54.7700 405.0000 1.0000
54.7800 383.0000 1.0000
54.7900 414.0000 1.0000
54.8000 392.0000 1.0000
54.8100 371.0000 1.0000
54.8200 408.0000 1.0000
54.8300 405.0000 1.0000
54.8400 380.0000 1.0000
54.8500 382.0000 1.0000
54.8600 409.0000 1.0000
54.8700 390.0000 1.0000
54.8800 396.0000 1.0000
54.8900 385.0000 1.0000
54.9000 361.0000 1.0000
54.9100 340.0000 1.0000
54.9200 345.0000 1.0000
54.9300 320.0000 1.0000
54.9400 351.0000 1.0000
54.9500 330.0000 1.0000
54.9600 322.0000 1.0000
54.9700 306.0000 1.0000
54.9800 334.0000 1.0000
54.9900 346.0000 1.0000
55.0000 312.0000 1.0000
55.0100 344.0000 1.0000
55.0200 310.0000 1.0000
55.0300 320.0000 1.0000
55.0400 287.0000 1.0000
55.0500 307.0000 1.0000
55.0600 289.0000 1.0000
55.0700 311.0000 1.0000
55.0800 323.0000 1.0000
55.0900 309.0000 1.0000
55.1000 300.0000 1.0000
55.1100 277.0000 1.0000
55.1200 275.0000 1.0000
55.1300 280.0000 1.0000
55.1400 275.0000 1.0000
55.1500 288.0000 1.0000
55.1600 296.0000 1.0000
55.1700 289.0000 1.0000
55.1800 279.0000 1.0000
55.1900 263.0000 1.0000
55.2000 258.0000 1.0000
55.2100 290.0000 1.0000
55.2200 289.0000 1.0000
55.2300 290.0000 1.0000
55.2400 284.0000 1.0000
55.2500 267.0000 1.0000
55.2600 273.0000 1.0000
55.2700 283.0000 1.0000
55.2800 305.0000 1.0000
55.2900 262.0000 1.0000
55.3000 319.0000 1.0000
55.3100 308.0000 1.0000
55.3200 274.0000 1.0000
55.3300 261.0000 1.0000
55.3400 270.0000 1.0000
55.3500 278.0000 1.0000
55.3600 291.0000 1.0000
55.3700 281.0000 1.0000
55.3800 258.0000 1.0000
55.3900 303.0000 1.0000
55.4000 286.0000 1.0000
55.4100 262.0000 1.0000
55.4200 290.0000 1.0000
55.4300 260.0000 1.0000
55.4400 276.0000 1.0000
55.4500 263.0000 1.0000
55.4600 270.0000 1.0000
55.4700 261.0000 1.0000
55.4800 249.0000 1.0000
55.4900 276.0000 1.0000
55.5000 259.0000 1.0000
55.5100 269.0000 1.0000
55.5200 279.0000 1.0000
55.5300 258.0000 1.0000
55.5400 265.0000 1.0000
55.5500 251.0000 1.0000
55.5600 273.0000 1.0000
55.5700 287.0000 1.0000
55.5800 275.0000 1.0000
55.5900 266.0000 1.0000
55.6000 294.0000 1.0000
55.6100 267.0000 1.0000
55.6200 271.0000 1.0000
55.6300 257.0000 1.0000
55.6400 259.0000 1.0000
55.6500 284.0000 1.0000
55.6600 271.0000 1.0000
55.6700 284.0000 1.0000
55.6800 270.0000 1.0000
55.6900 244.0000 1.0000
55.7000 269.0000 1.0000
55.7100 266.0000 1.0000
55.7200 273.0000 1.0000
55.7300 266.0000 1.0000
55.7400 284.0000 1.0000
55.7500 287.0000 1.0000
55.7600 278.0000 1.0000
55.7700 292.0000 1.0000
55.7800 281.0000 1.0000
55.7900 276.0000 1.0000
55.8000 262.0000 1.0000
55.8100 274.0000 1.0000
55.8200 273.0000 1.0000
55.8300 257.0000 1.0000
55.8400 269.0000 1.0000
55.8500 270.0000 1.0000
55.8600 294.0000 1.0000
55.8700 258.0000 1.0000
55.8800 280.0000 1.0000
55.8900 302.0000 1.0000
55.9000 273.0000 1.0000
55.9100 245.0000 1.0000
55.9200 265.0000 1.0000
55.9300 254.0000 1.0000
55.9400 278.0000 1.0000
55.9500 303.0000 1.0000
55.9600 253.0000 1.0000
55.9700 266.0000 1.0000
55.9800 263.0000 1.0000
55.9900 261.0000 1.0000
56.0000 237.0000 1.0000
56.0100 270.0000 1.0000
56.0200 257.0000 1.0000
56.0300 238.0000 1.0000
56.0400 289.0000 1.0000
56.0500 274.0000 1.0000
56.0600 281.0000 1.0000
56.0700 299.0000 1.0000
56.0800 255.0000 1.0000
56.0900 265.0000 1.0000
56.1000 263.0000 1.0000
56.1100 283.0000 1.0000
56.1200 267.0000 1.0000
56.1300 264.0000 1.0000
56.1400 269.0000 1.0000
56.1500 280.0000 1.0000
56.1600 302.0000 1.0000
56.1700 264.0000 1.0000
56.1800 261.0000 1.0000
56.1900 291.0000 1.0000
56.2000 254.0000 1.0000
56.2100 266.0000 1.0000
56.2200 262.0000 1.0000
56.2300 254.0000 1.0000
56.2400 303.0000 1.0000
56.2500 287.0000 1.0000
56.2600 252.0000 1.0000
56.2700 250.0000 1.0000
56.2800 257.0000 1.0000
56.2900 281.0000 1.0000
56.3000 225.0000 1.0000
56.3100 283.0000 1.0000
56.3200 285.0000 1.0000
56.3300 267.0000 1.0000
56.3400 257.0000 1.0000
56.3500 278.0000 1.0000
56.3600 273.0000 1.0000
56.3700 255.0000 1.0000
56.3800 262.0000 1.0000
56.3900 298.0000 1.0000
56.4000 307.0000 1.0000
56.4100 280.0000 1.0000
56.4200 295.0000 1.0000
56.4300 262.0000 1.0000
56.4400 278.0000 1.0000
56.4500 262.0000 1.0000
56.4600 269.0000 1.0000
56.4700 264.0000 1.0000
56.4800 264.0000 1.0000
56.4900 268.0000 1.0000
56.5000 290.0000 1.0000
56.5100 234.0000 1.0000
56.5200 244.0000 1.0000
56.5300 261.0000 1.0000
56.5400 265.0000 1.0000
56.5500 290.0000 1.0000
56.5600 269.0000 1.0000
56.5700 277.0000 1.0000
56.5800 267.0000 1.0000
56.5900 266.0000 1.0000
56.6000 266.0000 1.0000
56.6100 257.0000 1.0000
56.6200 241.0000 1.0000
56.6300 254.0000 1.0000
56.6400 247.0000 1.0000
56.6500 241.0000 1.0000
56.6600 243.0000 1.0000
56.6700 242.0000 1.0000
56.6800 264.0000 1.0000
56.6900 274.0000 1.0000
56.7000 275.0000 1.0000
56.7100 255.0000 1.0000
56.7200 257.0000 1.0000
56.7300 267.0000 1.0000
56.7400 248.0000 1.0000
56.7500 290.0000 1.0000
56.7600 258.0000 1.0000
56.7700 265.0000 1.0000
56.7800 271.0000 1.0000
56.7900 254.0000 1.0000
56.8000 251.0000 1.0000
56.8100 253.0000 1.0000
56.8200 246.0000 1.0000
56.8300 257.0000 1.0000
56.8400 252.0000 1.0000
56.8500 267.0000 1.0000
56.8600 281.0000 1.0000
56.8700 272.0000 1.0000
56.8800 276.0000 1.0000
56.8900 258.0000 1.0000
56.9000 254.0000 1.0000
56.9100 248.0000 1.0000
56.9200 291.0000 1.0000
56.9300 238.0000 1.0000
56.9400 262.0000 1.0000
56.9500 256.0000 1.0000
56.9600 255.0000 1.0000
56.9700 246.0000 1.0000
56.9800 245.0000 1.0000
56.9900 263.0000 1.0000
57.0000 251.0000 1.0000
57.0100 261.0000 1.0000
57.0200 269.0000 1.0000
57.0300 264.0000 1.0000
57.0400 260.0000 1.0000
57.0500 258.0000 1.0000
57.0600 250.0000 1.0000
57.0700 270.0000 1.0000
57.0800 254.0000 1.0000
57.0900 256.0000 1.0000
57.1000 254.0000 1.0000
57.1100 282.0000 1.0000
57.1200 279.0000 1.0000
57.1300 266.0000 1.0000
57.1400 260.0000 1.0000
57.1500 271.0000 1.0000
57.1600 255.0000 1.0000
57.1700 238.0000 1.0000
57.1800 282.0000 1.0000
57.1900 289.0000 1.0000
57.2000 265.0000 1.0000
57.2100 280.0000 1.0000
57.2200 283.0000 1.0000
57.2300 269.0000 1.0000
57.2400 257.0000 1.0000
57.2500 286.0000 1.0000
57.2600 267.0000 1.0000
57.2700 290.0000 1.0000
57.2800 274.0000 1.0000
57.2900 272.0000 1.0000
57.3000 266.0000 1.0000
57.3100 300.0000 1.0000
57.3200 273.0000 1.0000
57.3300 285.0000 1.0000
57.3400 250.0000 1.0000
57.3500 271.0000 1.0000
57.3600 258.0000 1.0000
57.3700 259.0000 1.0000
57.3800 267.0000 1.0000
57.3900 284.0000 1.0000
57.4000 280.0000 1.0000
57.4100 256.0000 1.0000
57.4200 256.0000 1.0000
57.4300 240.0000 1.0000
57.4400 246.0000 1.0000
57.4500 277.0000 1.0000
57.4600 272.0000 1.0000
57.4700 259.0000 1.0000
57.4800 254.0000 1.0000
57.4900 267.0000 1.0000
57.5000 288.0000 1.0000
57.5100 299.0000 1.0000
57.5200 280.0000 1.0000
57.5300 247.0000 1.0000
57.5400 260.0000 1.0000
57.5500 272.0000 1.0000
57.5600 258.0000 1.0000
57.5700 252.0000 1.0000
57.5800 259.0000 1.0000
57.5900 282.0000 1.0000
57.6000 269.0000 1.0000
57.6100 277.0000 1.0000
57.6200 262.0000 1.0000
57.6300 276.0000 1.0000
57.6400 291.0000 1.0000
57.6500 281.0000 1.0000
57.6600 271.0000 1.0000
57.6700 283.0000 1.0000
57.6800 270.0000 1.0000
57.6900 257.0000 1.0000
57.7000 263.0000 1.0000
57.7100 277.0000 1.0000
57.7200 270.0000 1.0000
57.7300 279.0000 1.0000
57.7400 272.0000 1.0000
57.7500 266.0000 1.0000
57.7600 251.0000 1.0000
57.7700 271.0000 1.0000
57.7800 275.0000 1.0000
57.7900 293.0000 1.0000
57.8000 275.0000 1.0000
57.8100 262.0000 1.0000
57.8200 271.0000 1.0000
57.8300 274.0000 1.0000
57.8400 272.0000 1.0000
57.8500 283.0000 1.0000
57.8600 262.0000 1.0000
57.8700 280.0000 1.0000
57.8800 276.0000 1.0000
57.8900 268.0000 1.0000
57.9000 273.0000 1.0000
57.9100 263.0000 1.0000
57.9200 282.0000 1.0000
57.9300 281.0000 1.0000
57.9400 270.0000 1.0000
57.9500 227.0000 1.0000
57.9600 271.0000 1.0000
57.9700 266.0000 1.0000
57.9800 285.0000 1.0000
57.9900 280.0000 1.0000
58.0000 273.0000 1.0000
58.0100 244.0000 1.0000
58.0200 262.0000 1.0000
58.0300 295.0000 1.0000
58.0400 258.0000 1.0000
58.0500 240.0000 1.0000
58.0600 252.0000 1.0000
58.0700 254.0000 1.0000
58.0800 267.0000 1.0000
58.0900 271.0000 1.0000
58.1000 252.0000 1.0000
58.1100 275.0000 1.0000
58.1200 283.0000 1.0000
58.1300 253.0000 1.0000
58.1400 257.0000 1.0000
58.1500 274.0000 1.0000
58.1600 271.0000 1.0000
58.1700 262.0000 1.0000
58.1800 270.0000 1.0000
58.1900 285.0000 1.0000
58.2000 276.0000 1.0000
58.2100 257.0000 1.0000
58.2200 269.0000 1.0000
58.2300 262.0000 1.0000
58.2400 273.0000 1.0000
58.2500 257.0000 1.0000
58.2600 258.0000 1.0000
58.2700 264.0000 1.0000
58.2800 282.0000 1.0000
58.2900 262.0000 1.0000
58.3000 256.0000 1.0000
58.3100 255.0000 1.0000
58.3200 271.0000 1.0000
58.3300 263.0000 1.0000
58.3400 262.0000 1.0000
58.3500 265.0000 1.0000
58.3600 260.0000 1.0000
58.3700 235.0000 1.0000
58.3800 250.0000 1.0000
58.3900 254.0000 1.0000
58.4000 253.0000 1.0000
58.4100 269.0000 1.0000
58.4200 254.0000 1.0000
58.4300 271.0000 1.0000
58.4400 249.0000 1.0000
58.4500 271.0000 1.0000
58.4600 258.0000 1.0000
58.4700 267.0000 1.0000
58.4800 259.0000 1.0000
58.4900 258.0000 1.0000
58.5000 260.0000 1.0000
58.5100 251.0000 1.0000
58.5200 251.0000 1.0000
58.5300 277.0000 1.0000
58.5400 281.0000 1.0000
58.5500 275.0000 1.0000
58.5600 242.0000 1.0000
58.5700 282.0000 1.0000
58.5800 262.0000 1.0000
58.5900 277.0000 1.0000
58.6000 257.0000 1.0000
58.6100 250.0000 1.0000
58.6200 247.0000 1.0000
58.6300 285.0000 1.0000
58.6400 269.0000 1.0000
58.6500 251.0000 1.0000
58.6600 244.0000 1.0000
58.6700 260.0000 1.0000
58.6800 280.0000 1.0000
58.6900 266.0000 1.0000
58.7000 275.0000 1.0000
58.7100 283.0000 1.0000
58.7200 267.0000 1.0000
58.7300 260.0000 1.0000
58.7400 259.0000 1.0000
58.7500 260.0000 1.0000
58.7600 264.0000 1.0000
58.7700 259.0000 1.0000
58.7800 278.0000 1.0000
58.7900 254.0000 1.0000
58.8000 278.0000 1.0000
58.8100 274.0000 1.0000
58.8200 260.0000 1.0000
58.8300 270.0000 1.0000
58.8400 260.0000 1.0000
58.8500 259.0000 1.0000
58.8600 261.0000 1.0000
58.8700 282.0000 1.0000
58.8800 249.0000 1.0000
58.8900 271.0000 1.0000
58.9000 262.0000 1.0000
58.9100 258.0000 1.0000
58.9200 254.0000 1.0000
58.9300 296.0000 1.0000
58.9400 247.0000 1.0000
58.9500 271.0000 1.0000
58.9600 279.0000 1.0000
58.9700 290.0000 1.0000
58.9800 269.0000 1.0000
58.9900 263.0000 1.0000
59.0000 266.0000 1.0000
59.0100 244.0000 1.0000
59.0200 267.0000 1.0000
59.0300 273.0000 1.0000
59.0400 276.0000 1.0000
59.0500 268.0000 1.0000
59.0600 255.0000 1.0000
59.0700 265.0000 1.0000
59.0800 286.0000 1.0000
59.0900 259.0000 1.0000
59.1000 267.0000 1.0000
59.1100 240.0000 1.0000
59.1200 291.0000 1.0000
59.1300 266.0000 1.0000
59.1400 243.0000 1.0000
59.1500 246.0000 1.0000
59.1600 270.0000 1.0000
59.1700 261.0000 1.0000
59.1800 279.0000 1.0000
59.1900 239.0000 1.0000
59.2000 262.0000 1.0000
59.2100 269.0000 1.0000
59.2200 268.0000 1.0000
59.2300 248.0000 1.0000
59.2400 258.0000 1.0000
59.2500 244.0000 1.0000
59.2600 278.0000 1.0000
59.2700 284.0000 1.0000
59.2800 296.0000 1.0000
59.2900 262.0000 1.0000
59.3000 252.0000 1.0000
59.3100 278.0000 1.0000
59.3200 272.0000 1.0000
59.3300 287.0000 1.0000
59.3400 261.0000 1.0000
59.3500 248.0000 1.0000
59.3600 233.0000 1.0000
59.3700 233.0000 1.0000
59.3800 242.0000 1.0000
59.3900 248.0000 1.0000
59.4000 266.0000 1.0000
59.4100 267.0000 1.0000
59.4200 253.0000 1.0000
59.4300 269.0000 1.0000
59.4400 275.0000 1.0000
59.4500 260.0000 1.0000
59.4600 251.0000 1.0000
59.4700 257.0000 1.0000
59.4800 256.0000 1.0000
59.4900 239.0000 1.0000
59.5000 283.0000 1.0000
59.5100 255.0000 1.0000
59.5200 273.0000 1.0000
59.5300 268.0000 1.0000
59.5400 286.0000 1.0000
59.5500 256.0000 1.0000
59.5600 300.0000 1.0000
59.5700 269.0000 1.0000
59.5800 317.0000 1.0000
59.5900 285.0000 1.0000
59.6000 251.0000 1.0000
59.6100 270.0000 1.0000
59.6200 252.0000 1.0000
59.6300 256.0000 1.0000
59.6400 242.0000 1.0000
59.6500 263.0000 1.0000
59.6600 272.0000 1.0000
59.6700 241.0000 1.0000
59.6800 278.0000 1.0000
59.6900 258.0000 1.0000
59.7000 294.0000 1.0000
59.7100 274.0000 1.0000
59.7200 241.0000 1.0000
59.7300 289.0000 1.0000
59.7400 285.0000 1.0000
59.7500 269.0000 1.0000
59.7600 286.0000 1.0000
59.7700 295.0000 1.0000
59.7800 254.0000 1.0000
59.7900 261.0000 1.0000
59.8000 274.0000 1.0000
59.8100 273.0000 1.0000
59.8200 253.0000 1.0000
59.8300 241.0000 1.0000
59.8400 270.0000 1.0000
59.8500 259.0000 1.0000
59.8600 258.0000 1.0000
59.8700 250.0000 1.0000
59.8800 244.0000 1.0000
59.8900 265.0000 1.0000
59.9000 286.0000 1.0000
59.9100 255.0000 1.0000
59.9200 253.0000 1.0000
59.9300 275.0000 1.0000
59.9400 281.0000 1.0000
59.9500 278.0000 1.0000
59.9600 256.0000 1.0000
59.9700 268.0000 1.0000
59.9800 242.0000 1.0000
59.9900 271.0000 1.0000
60.0000 267.0000 1.0000
60.0100 292.0000 1.0000
60.0200 271.0000 1.0000
60.0300 276.0000 1.0000
60.0400 289.0000 1.0000
60.0500 259.0000 1.0000
60.0600 270.0000 1.0000
60.0700 262.0000 1.0000
60.0800 277.0000 1.0000
60.0900 274.0000 1.0000
60.1000 281.0000 1.0000
60.1100 277.0000 1.0000
60.1200 252.0000 1.0000
60.1300 262.0000 1.0000
60.1400 278.0000 1.0000
60.1500 261.0000 1.0000
60.1600 262.0000 1.0000
60.1700 257.0000 1.0000
60.1800 259.0000 1.0000
60.1900 254.0000 1.0000
60.2000 294.0000 1.0000
60.2100 283.0000 1.0000
60.2200 287.0000 1.0000
60.2300 261.0000 1.0000
60.2400 255.0000 1.0000
60.2500 254.0000 1.0000
60.2600 232.0000 1.0000
60.2700 291.0000 1.0000
60.2800 272.0000 1.0000
60.2900 275.0000 1.0000
60.3000 269.0000 1.0000
60.3100 261.0000 1.0000
60.3200 282.0000 1.0000
60.3300 242.0000 1.0000
60.3400 272.0000 1.0000
60.3500 277.0000 1.0000
60.3600 263.0000 1.0000
60.3700 250.0000 1.0000
60.3800 271.0000 1.0000
60.3900 273.0000 1.0000
60.4000 265.0000 1.0000
60.4100 263.0000 1.0000
60.4200 265.0000 1.0000
60.4300 280.0000 1.0000
60.4400 271.0000 1.0000
60.4500 228.0000 1.0000
60.4600 254.0000 1.0000
60.4700 285.0000 1.0000
60.4800 282.0000 1.0000
60.4900 266.0000 1.0000
60.5000 279.0000 1.0000
60.5100 257.0000 1.0000
60.5200 273.0000 1.0000
60.5300 287.0000 1.0000
60.5400 267.0000 1.0000
60.5500 260.0000 1.0000
60.5600 280.0000 1.0000
60.5700 262.0000 1.0000
60.5800 252.0000 1.0000
60.5900 255.0000 1.0000
60.6000 269.0000 1.0000
60.6100 237.0000 1.0000
60.6200 253.0000 1.0000
60.6300 235.0000 1.0000
60.6400 270.0000 1.0000
60.6500 264.0000 1.0000
60.6600 251.0000 1.0000
60.6700 290.0000 1.0000
60.6800 253.0000 1.0000
60.6900 245.0000 1.0000
60.7000 239.0000 1.0000
60.7100 258.0000 1.0000
60.7200 249.0000 1.0000
60.7300 283.0000 1.0000
60.7400 260.0000 1.0000
60.7500 269.0000 1.0000
60.7600 259.0000 1.0000
60.7700 258.0000 1.0000
60.7800 271.0000 1.0000
60.7900 256.0000 1.0000
60.8000 273.0000 1.0000
60.8100 252.0000 1.0000
60.8200 259.0000 1.0000
60.8300 256.0000 1.0000
60.8400 252.0000 1.0000
60.8500 238.0000 1.0000
60.8600 272.0000 1.0000
60.8700 275.0000 1.0000
60.8800 265.0000 1.0000
60.8900 250.0000 1.0000
60.9000 286.0000 1.0000
60.9100 263.0000 1.0000
60.9200 244.0000 1.0000
60.9300 245.0000 1.0000
60.9400 255.0000 1.0000
60.9500 268.0000 1.0000
60.9600 265.0000 1.0000
60.9700 247.0000 1.0000
60.9800 278.0000 1.0000
60.9900 284.0000 1.0000
61.0000 280.0000 1.0000
61.0100 272.0000 1.0000
61.0200 278.0000 1.0000
61.0300 261.0000 1.0000
61.0400 277.0000 1.0000
61.0500 274.0000 1.0000
61.0600 299.0000 1.0000
61.0700 292.0000 1.0000
61.0800 279.0000 1.0000
61.0900 271.0000 1.0000
61.1000 263.0000 1.0000
61.1100 258.0000 1.0000
61.1200 247.0000 1.0000
61.1300 240.0000 1.0000
61.1400 282.0000 1.0000
61.1500 290.0000 1.0000
61.1600 284.0000 1.0000
61.1700 277.0000 1.0000
61.1800 295.0000 1.0000
61.1900 298.0000 1.0000
61.2000 261.0000 1.0000
61.2100 272.0000 1.0000
61.2200 254.0000 1.0000
61.2300 314.0000 1.0000
61.2400 268.0000 1.0000
61.2500 292.0000 1.0000
61.2600 241.0000 1.0000
61.2700 255.0000 1.0000
61.2800 265.0000 1.0000
61.2900 265.0000 1.0000
61.3000 302.0000 1.0000
61.3100 279.0000 1.0000
61.3200 271.0000 1.0000
61.3300 301.0000 1.0000
61.3400 282.0000 1.0000
61.3500 287.0000 1.0000
61.3600 306.0000 1.0000
61.3700 305.0000 1.0000
61.3800 284.0000 1.0000
61.3900 265.0000 1.0000
61.4000 296.0000 1.0000
61.4100 317.0000 1.0000
61.4200 296.0000 1.0000
61.4300 327.0000 1.0000
61.4400 314.0000 1.0000
61.4500 331.0000 1.0000
61.4600 346.0000 1.0000
61.4700 349.0000 1.0000
61.4800 342.0000 1.0000
61.4900 340.0000 1.0000
61.5000 348.0000 1.0000
61.5100 352.0000 1.0000
61.5200 354.0000 1.0000
61.5300 330.0000 1.0000
61.5400 394.0000 1.0000
61.5500 385.0000 1.0000
61.5600 432.0000 1.0000
61.5700 452.0000 1.0000
61.5800 423.0000 1.0000
61.5900 416.0000 1.0000
61.6000 432.0000 1.0000
61.6100 453.0000 1.0000
61.6200 457.0000 1.0000
61.6300 507.0000 1.0000
61.6400 478.0000 1.0000
61.6500 512.0000 1.0000
61.6600 529.0000 1.0000
61.6700 535.0000 1.0000
61.6800 486.0000 1.0000
61.6900 494.0000 1.0000
61.7000 522.0000 1.0000
61.7100 554.0000 1.0000
61.7200 529.0000 1.0000
61.7300 543.0000 1.0000
61.7400 561.0000 1.0000
61.7500 507.0000 1.0000
61.7600 528.0000 1.0000
61.7700 573.0000 1.0000
61.7800 544.0000 1.0000
61.7900 519.0000 1.0000
61.8000 514.0000 1.0000
61.8100 531.0000 1.0000
61.8200 501.0000 1.0000
61.8300 520.0000 1.0000
61.8400 543.0000 1.0000
61.8500 523.0000 1.0000
61.8600 502.0000 1.0000
61.8700 507.0000 1.0000
61.8800 520.0000 1.0000
61.8900 470.0000 1.0000
61.9000 448.0000 1.0000
61.9100 481.0000 1.0000
61.9200 455.0000 1.0000
61.9300 452.0000 1.0000
61.9400 428.0000 1.0000
61.9500 391.0000 1.0000
61.9600 442.0000 1.0000
61.9700 436.0000 1.0000
61.9800 430.0000 1.0000
61.9900 407.0000 1.0000
62.0000 395.0000 1.0000
62.0100 362.0000 1.0000
62.0200 378.0000 1.0000
62.0300 393.0000 1.0000
62.0400 408.0000 1.0000
62.0500 349.0000 1.0000
62.0600 339.0000 1.0000
62.0700 378.0000 1.0000
62.0800 348.0000 1.0000
62.0900 369.0000 1.0000
62.1000 331.0000 1.0000
62.1100 330.0000 1.0000
62.1200 306.0000 1.0000
62.1300 334.0000 1.0000
62.1400 332.0000 1.0000
62.1500 305.0000 1.0000
62.1600 311.0000 1.0000
62.1700 310.0000 1.0000
62.1800 343.0000 1.0000
62.1900 321.0000 1.0000
62.2000 294.0000 1.0000
62.2100 312.0000 1.0000
62.2200 291.0000 1.0000
62.2300 281.0000 1.0000
62.2400 275.0000 1.0000
62.2500 304.0000 1.0000
62.2600 275.0000 1.0000
62.2700 276.0000 1.0000
62.2800 274.0000 1.0000
62.2900 288.0000 1.0000
62.3000 313.0000 1.0000
62.3100 294.0000 1.0000
62.3200 287.0000 1.0000
62.3300 286.0000 1.0000
62.3400 284.0000 1.0000
62.3500 276.0000 1.0000
62.3600 270.0000 1.0000
62.3700 291.0000 1.0000
62.3800 313.0000 1.0000
62.3900 280.0000 1.0000
62.4000 305.0000 1.0000
62.4100 304.0000 1.0000
62.4200 305.0000 1.0000
62.4300 288.0000 1.0000
62.4400 295.0000 1.0000
62.4500 291.0000 1.0000
62.4600 282.0000 1.0000
62.4700 288.0000 1.0000
62.4800 331.0000 1.0000
62.4900 289.0000 1.0000
62.5000 304.0000 1.0000
62.5100 275.0000 1.0000
62.5200 274.0000 1.0000
62.5300 308.0000 1.0000
62.5400 265.0000 1.0000
62.5500 275.0000 1.0000
62.5600 302.0000 1.0000
62.5700 288.0000 1.0000
62.5800 308.0000 1.0000
62.5900 278.0000 1.0000
62.6000 296.0000 1.0000
62.6100 284.0000 1.0000
62.6200 298.0000 1.0000
62.6300 303.0000 1.0000
62.6400 308.0000 1.0000
62.6500 277.0000 1.0000
62.6600 275.0000 1.0000
62.6700 310.0000 1.0000
62.6800 307.0000 1.0000
62.6900 284.0000 1.0000
62.7000 274.0000 1.0000
62.7100 266.0000 1.0000
62.7200 307.0000 1.0000
62.7300 261.0000 1.0000
62.7400 259.0000 1.0000
62.7500 268.0000 1.0000
62.7600 272.0000 1.0000
62.7700 297.0000 1.0000
62.7800 276.0000 1.0000
62.7900 286.0000 1.0000
62.8000 266.0000 1.0000
62.8100 257.0000 1.0000
62.8200 266.0000 1.0000
62.8300 288.0000 1.0000
62.8400 267.0000 1.0000
62.8500 283.0000 1.0000
62.8600 289.0000 1.0000
62.8700 280.0000 1.0000
62.8800 248.0000 1.0000
62.8900 257.0000 1.0000
62.9000 244.0000 1.0000
62.9100 270.0000 1.0000
62.9200 272.0000 1.0000
62.9300 265.0000 1.0000
62.9400 265.0000 1.0000
62.9500 269.0000 1.0000
62.9600 295.0000 1.0000
62.9700 278.0000 1.0000
62.9800 267.0000 1.0000
62.9900 283.0000 1.0000
63.0000 257.0000 1.0000
63.0100 263.0000 1.0000
63.0200 260.0000 1.0000
63.0300 256.0000 1.0000
63.0400 295.0000 1.0000
63.0500 261.0000 1.0000
63.0600 263.0000 1.0000
63.0700 265.0000 1.0000
63.0800 241.0000 1.0000
63.0900 273.0000 1.0000
63.1000 263.0000 1.0000
63.1100 241.0000 1.0000
63.1200 270.0000 1.0000
63.1300 272.0000 1.0000
63.1400 274.0000 1.0000
63.1500 272.0000 1.0000
63.1600 249.0000 1.0000
63.1700 288.0000 1.0000
63.1800 279.0000 1.0000
63.1900 253.0000 1.0000
63.2000 252.0000 1.0000
63.2100 249.0000 1.0000
63.2200 262.0000 1.0000
63.2300 250.0000 1.0000
63.2400 275.0000 1.0000
63.2500 272.0000 1.0000
63.2600 258.0000 1.0000
63.2700 278.0000 1.0000
63.2800 250.0000 1.0000
63.2900 243.0000 1.0000
63.3000 274.0000 1.0000
63.3100 265.0000 1.0000
63.3200 263.0000 1.0000
63.3300 255.0000 1.0000
63.3400 240.0000 1.0000
63.3500 239.0000 1.0000
63.3600 252.0000 1.0000
63.3700 267.0000 1.0000
63.3800 247.0000 1.0000
63.3900 254.0000 1.0000
63.4000 273.0000 1.0000
63.4100 265.0000 1.0000
63.4200 274.0000 1.0000
63.4300 283.0000 1.0000
63.4400 266.0000 1.0000
63.4500 268.0000 1.0000
63.4600 279.0000 1.0000
63.4700 266.0000 1.0000
63.4800 256.0000 1.0000
63.4900 252.0000 1.0000
63.5000 266.0000 1.0000
63.5100 282.0000 1.0000
63.5200 253.0000 1.0000
63.5300 245.0000 1.0000
63.5400 243.0000 1.0000
63.5500 252.0000 1.0000
63.5600 270.0000 1.0000
63.5700 255.0000 1.0000
63.5800 263.0000 1.0000
63.5900 287.0000 1.0000
63.6000 263.0000 1.0000
63.6100 261.0000 1.0000
63.6200 267.0000 1.0000
63.6300 269.0000 1.0000
63.6400 261.0000 1.0000
63.6500 281.0000 1.0000
63.6600 279.0000 1.0000
63.6700 273.0000 1.0000
63.6800 244.0000 1.0000
63.6900 255.0000 1.0000
63.7000 254.0000 1.0000
63.7100 250.0000 1.0000
63.7200 275.0000 1.0000
63.7300 255.0000 1.0000
63.7400 290.0000 1.0000
63.7500 271.0000 1.0000
63.7600 273.0000 1.0000
63.7700 262.0000 1.0000
63.7800 270.0000 1.0000
63.7900 277.0000 1.0000
63.8000 253.0000 1.0000
63.8100 292.0000 1.0000
63.8200 289.0000 1.0000
63.8300 274.0000 1.0000
63.8400 273.0000 1.0000
63.8500 287.0000 1.0000
63.8600 296.0000 1.0000
63.8700 301.0000 1.0000
63.8800 285.0000 1.0000
63.8900 310.0000 1.0000
63.9000 268.0000 1.0000
63.9100 311.0000 1.0000
63.9200 277.0000 1.0000
63.9300 290.0000 1.0000
63.9400 252.0000 1.0000
63.9500 261.0000 1.0000
63.9600 280.0000 1.0000
63.9700 334.0000 1.0000
63.9800 310.0000 1.0000
63.9900 284.0000 1.0000
64.0000 288.0000 1.0000
64.0100 326.0000 1.0000
64.0200 318.0000 1.0000
64.0300 331.0000 1.0000
64.0400 347.0000 1.0000
64.0500 384.0000 1.0000
64.0600 369.0000 1.0000
64.0700 376.0000 1.0000
64.0800 403.0000 1.0000
64.0900 393.0000 1.0000
64.1000 410.0000 1.0000
64.1100 408.0000 1.0000
64.1200 412.0000 1.0000
64.1300 437.0000 1.0000
64.1400 457.0000 1.0000
64.1500 479.0000 1.0000
64.1600 439.0000 1.0000
64.1700 408.0000 1.0000
64.1800 453.0000 1.0000
64.1900 401.0000 1.0000
64.2000 411.0000 1.0000
64.2100 434.0000 1.0000
64.2200 352.0000 1.0000
64.2300 393.0000 1.0000
64.2400 380.0000 1.0000
64.2500 389.0000 1.0000
64.2600 387.0000 1.0000
64.2700 370.0000 1.0000
64.2800 393.0000 1.0000
64.2900 337.0000 1.0000
64.3000 350.0000 1.0000
64.3100 380.0000 1.0000
64.3200 398.0000 1.0000
64.3300 393.0000 1.0000
64.3400 356.0000 1.0000
64.3500 343.0000 1.0000
64.3600 362.0000 1.0000
64.3700 344.0000 1.0000
64.3800 359.0000 1.0000
64.3900 313.0000 1.0000
64.4000 331.0000 1.0000
64.4100 310.0000 1.0000
64.4200 332.0000 1.0000
64.4300 310.0000 1.0000
64.4400 298.0000 1.0000
64.4500 297.0000 1.0000
64.4600 300.0000 1.0000
64.4700 330.0000 1.0000
64.4800 338.0000 1.0000
64.4900 319.0000 1.0000
64.5000 251.0000 1.0000
64.5100 285.0000 1.0000
64.5200 270.0000 1.0000
64.5300 295.0000 1.0000
64.5400 310.0000 1.0000
64.5500 308.0000 1.0000
64.5600 274.0000 1.0000
64.5700 289.0000 1.0000
64.5800 297.0000 1.0000
64.5900 282.0000 1.0000
64.6000 262.0000 1.0000
64.6100 261.0000 1.0000
64.6200 281.0000 1.0000
64.6300 309.0000 1.0000
64.6400 276.0000 1.0000
64.6500 285.0000 1.0000
64.6600 268.0000 1.0000
64.6700 270.0000 1.0000
64.6800 270.0000 1.0000
64.6900 270.0000 1.0000
64.7000 271.0000 1.0000
64.7100 262.0000 1.0000
64.7200 277.0000 1.0000
64.7300 270.0000 1.0000
64.7400 262.0000 1.0000
64.7500 259.0000 1.0000
64.7600 260.0000 1.0000
64.7700 295.0000 1.0000
64.7800 255.0000 1.0000
64.7900 251.0000 1.0000
64.8000 265.0000 1.0000
64.8100 283.0000 1.0000
64.8200 286.0000 1.0000
64.8300 289.0000 1.0000
64.8400 267.0000 1.0000
64.8500 288.0000 1.0000
64.8600 274.0000 1.0000
64.8700 255.0000 1.0000
64.8800 265.0000 1.0000
64.8900 262.0000 1.0000
64.9000 273.0000 1.0000
64.9100 255.0000 1.0000
64.9200 264.0000 1.0000
64.9300 286.0000 1.0000
64.9400 276.0000 1.0000
64.9500 259.0000 1.0000
64.9600 267.0000 1.0000
64.9700 258.0000 1.0000
64.9800 284.0000 1.0000
64.9900 281.0000 1.0000
65.0000 277.0000 1.0000
65.0100 269.0000 1.0000
65.0200 263.0000 1.0000
65.0300 286.0000 1.0000
65.0400 269.0000 1.0000
65.0500 259.0000 1.0000
65.0600 291.0000 1.0000
65.0700 279.0000 1.0000
65.0800 277.0000 1.0000
65.0900 271.0000 1.0000
65.1000 248.0000 1.0000
65.1100 287.0000 1.0000
65.1200 261.0000 1.0000
65.1300 274.0000 1.0000
65.1400 302.0000 1.0000
65.1500 269.0000 1.0000
65.1600 293.0000 1.0000
65.1700 296.0000 1.0000
65.1800 273.0000 1.0000
65.1900 297.0000 1.0000
65.2000 300.0000 1.0000
65.2100 277.0000 1.0000
65.2200 264.0000 1.0000
65.2300 304.0000 1.0000
65.2400 302.0000 1.0000
65.2500 287.0000 1.0000
65.2600 299.0000 1.0000
65.2700 287.0000 1.0000
65.2800 282.0000 1.0000
65.2900 291.0000 1.0000
65.3000 319.0000 1.0000
65.3100 299.0000 1.0000
65.3200 281.0000 1.0000
65.3300 301.0000 1.0000
65.3400 328.0000 1.0000
65.3500 313.0000 1.0000
65.3600 330.0000 1.0000
65.3700 329.0000 1.0000
65.3800 330.0000 1.0000
65.3900 325.0000 1.0000
65.4000 346.0000 1.0000
65.4100 336.0000 1.0000
65.4200 336.0000 1.0000
65.4300 372.0000 1.0000
65.4400 396.0000 1.0000
65.4500 381.0000 1.0000
65.4600 403.0000 1.0000
65.4700 376.0000 1.0000
65.4800 391.0000 1.0000
65.4900 382.0000 1.0000
65.5000 419.0000 1.0000
65.5100 440.0000 1.0000
65.5200 445.0000 1.0000
65.5300 456.0000 1.0000
65.5400 508.0000 1.0000
65.5500 552.0000 1.0000
65.5600 518.0000 1.0000
65.5700 551.0000 1.0000
65.5800 552.0000 1.0000
65.5900 596.0000 1.0000
65.6000 651.0000 1.0000
65.6100 736.0000 1.0000
65.6200 762.0000 1.0000
65.6300 767.0000 1.0000
65.6400 782.0000 1.0000
65.6500 835.0000 1.0000
65.6600 842.0000 1.0000
65.6700 879.0000 1.0000
65.6800 933.0000 1.0000
65.6900 948.0000 1.0000
65.7000 985.0000 1.0000
65.7100 1013.0000 1.0000
65.7200 932.0000 1.0000
65.7300 1015.0000 1.0000
65.7400 934.0000 1.0000
65.7500 941.0000 1.0000
65.7600 946.0000 1.0000
65.7700 941.0000 1.0000
65.7800 871.0000 1.0000
65.7900 891.0000 1.0000
65.8000 878.0000 1.0000
65.8100 867.0000 1.0000
65.8200 860.0000 1.0000
65.8300 845.0000 1.0000
65.8400 852.0000 1.0000
65.8500 832.0000 1.0000
65.8600 822.0000 1.0000
65.8700 798.0000 1.0000
65.8800 788.0000 1.0000
65.8900 812.0000 1.0000
65.9000 817.0000 1.0000
65.9100 806.0000 1.0000
65.9200 734.0000 1.0000
65.9300 771.0000 1.0000
65.9400 700.0000 1.0000
65.9500 643.0000 1.0000
65.9600 615.0000 1.0000
65.9700 607.0000 1.0000
65.9800 570.0000 1.0000
65.9900 552.0000 1.0000
66.0000 524.0000 1.0000
66.0100 499.0000 1.0000
66.0200 524.0000 1.0000
66.0300 477.0000 1.0000
66.0400 463.0000 1.0000
66.0500 465.0000 1.0000
66.0600 437.0000 1.0000
66.0700 424.0000 1.0000
66.0800 418.0000 1.0000
66.0900 401.0000 1.0000
66.1000 386.0000 1.0000
66.1100 393.0000 1.0000
66.1200 379.0000 1.0000
66.1300 355.0000 1.0000
66.1400 356.0000 1.0000
66.1500 332.0000 1.0000
66.1600 322.0000 1.0000
66.1700 341.0000 1.0000
66.1800 332.0000 1.0000
66.1900 337.0000 1.0000
66.2000 339.0000 1.0000
66.2100 331.0000 1.0000
66.2200 305.0000 1.0000
66.2300 316.0000 1.0000
66.2400 287.0000 1.0000
66.2500 297.0000 1.0000
66.2600 294.0000 1.0000
66.2700 276.0000 1.0000
66.2800 278.0000 1.0000
66.2900 259.0000 1.0000
66.3000 299.0000 1.0000
66.3100 309.0000 1.0000
66.3200 289.0000 1.0000
66.3300 291.0000 1.0000
66.3400 276.0000 1.0000
66.3500 268.0000 1.0000
66.3600 265.0000 1.0000
66.3700 311.0000 1.0000
66.3800 301.0000 1.0000
66.3900 268.0000 1.0000
66.4000 274.0000 1.0000
66.4100 254.0000 1.0000
66.4200 265.0000 1.0000
66.4300 263.0000 1.0000
66.4400 275.0000 1.0000
66.4500 283.0000 1.0000
66.4600 274.0000 1.0000
66.4700 264.0000 1.0000
66.4800 273.0000 1.0000
66.4900 270.0000 1.0000
66.5000 253.0000 1.0000
66.5100 256.0000 1.0000
66.5200 270.0000 1.0000
66.5300 279.0000 1.0000
66.5400 245.0000 1.0000
66.5500 261.0000 1.0000
66.5600 269.0000 1.0000
66.5700 266.0000 1.0000
66.5800 273.0000 1.0000
66.5900 258.0000 1.0000
66.6000 273.0000 1.0000
66.6100 242.0000 1.0000
66.6200 252.0000 1.0000
66.6300 246.0000 1.0000
66.6400 246.0000 1.0000
66.6500 273.0000 1.0000
66.6600 226.0000 1.0000
66.6700 260.0000 1.0000
66.6800 240.0000 1.0000
66.6900 258.0000 1.0000
66.7000 268.0000 1.0000
66.7100 239.0000 1.0000
66.7200 265.0000 1.0000
66.7300 270.0000 1.0000
66.7400 256.0000 1.0000
66.7500 284.0000 1.0000
66.7600 262.0000 1.0000
66.7700 245.0000 1.0000
66.7800 246.0000 1.0000
66.7900 238.0000 1.0000
66.8000 249.0000 1.0000
66.8100 256.0000 1.0000
66.8200 253.0000 1.0000
66.8300 251.0000 1.0000
66.8400 256.0000 1.0000
66.8500 246.0000 1.0000
66.8600 252.0000 1.0000
66.8700 256.0000 1.0000
66.8800 245.0000 1.0000
66.8900 274.0000 1.0000
66.9000 241.0000 1.0000
66.9100 255.0000 1.0000
66.9200 260.0000 1.0000
66.9300 251.0000 1.0000
66.9400 250.0000 1.0000
66.9500 229.0000 1.0000
66.9600 252.0000 1.0000
66.9700 239.0000 1.0000
66.9800 236.0000 1.0000
66.9900 249.0000 1.0000
67.0000 253.0000 1.0000
67.0100 251.0000 1.0000
67.0200 252.0000 1.0000
67.0300 257.0000 1.0000
67.0400 241.0000 1.0000
67.0500 251.0000 1.0000
67.0600 234.0000 1.0000
67.0700 240.0000 1.0000
67.0800 249.0000 1.0000
67.0900 223.0000 1.0000
67.1000 240.0000 1.0000
67.1100 250.0000 1.0000
67.1200 246.0000 1.0000
67.1300 258.0000 1.0000
67.1400 244.0000 1.0000
67.1500 250.0000 1.0000
67.1600 236.0000 1.0000
67.1700 236.0000 1.0000
67.1800 236.0000 1.0000
67.1900 245.0000 1.0000
67.2000 242.0000 1.0000
67.2100 261.0000 1.0000
67.2200 258.0000 1.0000
67.2300 258.0000 1.0000
67.2400 251.0000 1.0000
67.2500 221.0000 1.0000
67.2600 240.0000 1.0000
67.2700 232.0000 1.0000
67.2800 205.0000 1.0000
67.2900 219.0000 1.0000
67.3000 232.0000 1.0000
67.3100 226.0000 1.0000
67.3200 236.0000 1.0000
67.3300 226.0000 1.0000
67.3400 234.0000 1.0000
67.3500 249.0000 1.0000
67.3600 270.0000 1.0000
67.3700 245.0000 1.0000
67.3800 251.0000 1.0000
67.3900 241.0000 1.0000
67.4000 250.0000 1.0000
67.4100 240.0000 1.0000
67.4200 248.0000 1.0000
67.4300 249.0000 1.0000
67.4400 227.0000 1.0000
67.4500 234.0000 1.0000
67.4600 253.0000 1.0000
67.4700 244.0000 1.0000
67.4800 245.0000 1.0000
67.4900 252.0000 1.0000
67.5000 261.0000 1.0000
67.5100 273.0000 1.0000
67.5200 257.0000 1.0000
67.5300 245.0000 1.0000
67.5400 238.0000 1.0000
67.5500 229.0000 1.0000
67.5600 249.0000 1.0000
67.5700 237.0000 1.0000
67.5800 239.0000 1.0000
67.5900 243.0000 1.0000
67.6000 241.0000 1.0000
67.6100 260.0000 1.0000
67.6200 206.0000 1.0000
67.6300 236.0000 1.0000
67.6400 235.0000 1.0000
67.6500 245.0000 1.0000
67.6600 239.0000 1.0000
67.6700 228.0000 1.0000
67.6800 231.0000 1.0000
67.6900 245.0000 1.0000
67.7000 249.0000 1.0000
67.7100 250.0000 1.0000
67.7200 261.0000 1.0000
67.7300 231.0000 1.0000
67.7400 246.0000 1.0000
67.7500 273.0000 1.0000
67.7600 245.0000 1.0000
67.7700 231.0000 1.0000
67.7800 245.0000 1.0000
67.7900 241.0000 1.0000
67.8000 215.0000 1.0000
67.8100 237.0000 1.0000
67.8200 253.0000 1.0000
67.8300 238.0000 1.0000
67.8400 236.0000 1.0000
67.8500 238.0000 1.0000
67.8600 240.0000 1.0000
67.8700 265.0000 1.0000
67.8800 253.0000 1.0000
67.8900 230.0000 1.0000
67.9000 240.0000 1.0000
67.9100 232.0000 1.0000
67.9200 240.0000 1.0000
67.9300 228.0000 1.0000
67.9400 225.0000 1.0000
67.9500 242.0000 1.0000
67.9600 235.0000 1.0000
67.9700 234.0000 1.0000
67.9800 274.0000 1.0000
67.9900 234.0000 1.0000
68.0000 235.0000 1.0000
68.0100 254.0000 1.0000
68.0200 225.0000 1.0000
68.0300 210.0000 1.0000
68.0400 227.0000 1.0000
68.0500 231.0000 1.0000
68.0600 233.0000 1.0000
68.0700 248.0000 1.0000
68.0800 226.0000 1.0000
68.0900 215.0000 1.0000
68.1000 215.0000 1.0000
68.1100 199.0000 1.0000
68.1200 233.0000 1.0000
68.1300 236.0000 1.0000
68.1400 249.0000 1.0000
68.1500 239.0000 1.0000
68.1600 264.0000 1.0000
68.1700 229.0000 1.0000
68.1800 210.0000 1.0000
68.1900 234.0000 1.0000
68.2000 249.0000 1.0000
68.2100 246.0000 1.0000
68.2200 246.0000 1.0000
68.2300 234.0000 1.0000
68.2400 212.0000 1.0000
68.2500 228.0000 1.0000
68.2600 256.0000 1.0000
68.2700 227.0000 1.0000
68.2800 227.0000 1.0000
68.2900 241.0000 1.0000
68.3000 241.0000 1.0000
68.3100 231.0000 1.0000
68.3200 218.0000 1.0000
68.3300 214.0000 1.0000
68.3400 189.0000 1.0000
68.3500 226.0000 1.0000
68.3600 222.0000 1.0000
68.3700 213.0000 1.0000
68.3800 219.0000 1.0000
68.3900 227.0000 1.0000
68.4000 220.0000 1.0000
68.4100 255.0000 1.0000
68.4200 223.0000 1.0000
68.4300 238.0000 1.0000
68.4400 253.0000 1.0000
68.4500 242.0000 1.0000
68.4600 218.0000 1.0000
68.4700 246.0000 1.0000
68.4800 233.0000 1.0000
68.4900 232.0000 1.0000
68.5000 227.0000 1.0000
68.5100 226.0000 1.0000
68.5200 219.0000 1.0000
68.5300 233.0000 1.0000
68.5400 255.0000 1.0000
68.5500 239.0000 1.0000
68.5600 257.0000 1.0000
68.5700 241.0000 1.0000
68.5800 249.0000 1.0000
68.5900 229.0000 1.0000
68.6000 232.0000 1.0000
68.6100 217.0000 1.0000
68.6200 227.0000 1.0000
68.6300 266.0000 1.0000
68.6400 247.0000 1.0000
68.6500 235.0000 1.0000
68.6600 228.0000 1.0000
68.6700 211.0000 1.0000
68.6800 221.0000 1.0000
68.6900 221.0000 1.0000
68.7000 202.0000 1.0000
68.7100 233.0000 1.0000
68.7200 252.0000 1.0000
68.7300 240.0000 1.0000
68.7400 231.0000 1.0000
68.7500 245.0000 1.0000
68.7600 240.0000 1.0000
68.7700 235.0000 1.0000
68.7800 218.0000 1.0000
68.7900 209.0000 1.0000
68.8000 215.0000 1.0000
68.8100 257.0000 1.0000
68.8200 233.0000 1.0000
68.8300 218.0000 1.0000
68.8400 239.0000 1.0000
68.8500 229.0000 1.0000
68.8600 229.0000 1.0000
68.8700 248.0000 1.0000
68.8800 241.0000 1.0000
68.8900 241.0000 1.0000
68.9000 254.0000 1.0000
68.9100 234.0000 1.0000
68.9200 246.0000 1.0000
68.9300 232.0000 1.0000
68.9400 246.0000 1.0000
68.9500 241.0000 1.0000
68.9600 242.0000 1.0000
68.9700 225.0000 1.0000
68.9800 251.0000 1.0000
68.9900 224.0000 1.0000
69.0000 212.0000 1.0000
69.0100 235.0000 1.0000
69.0200 246.0000 1.0000
69.0300 230.0000 1.0000
69.0400 240.0000 1.0000
69.0500 237.0000 1.0000
69.0600 223.0000 1.0000
69.0700 227.0000 1.0000
69.0800 231.0000 1.0000
69.0900 234.0000 1.0000
69.1000 226.0000 1.0000
69.1100 242.0000 1.0000
69.1200 231.0000 1.0000
69.1300 238.0000 1.0000
69.1400 252.0000 1.0000
69.1500 229.0000 1.0000
69.1600 235.0000 1.0000
69.1700 230.0000 1.0000
69.1800 242.0000 1.0000
69.1900 232.0000 1.0000
69.2000 234.0000 1.0000
69.2100 253.0000 1.0000
69.2200 235.0000 1.0000
69.2300 227.0000 1.0000
69.2400 237.0000 1.0000
69.2500 224.0000 1.0000
69.2600 233.0000 1.0000
69.2700 234.0000 1.0000
69.2800 223.0000 1.0000
69.2900 219.0000 1.0000
69.3000 215.0000 1.0000
69.3100 250.0000 1.0000
69.3200 239.0000 1.0000
69.3300 227.0000 1.0000
69.3400 224.0000 1.0000
69.3500 219.0000 1.0000
69.3600 239.0000 1.0000
69.3700 232.0000 1.0000
69.3800 223.0000 1.0000
69.3900 229.0000 1.0000
69.4000 226.0000 1.0000
69.4100 239.0000 1.0000
69.4200 231.0000 1.0000
69.4300 247.0000 1.0000
69.4400 231.0000 1.0000
69.4500 231.0000 1.0000
69.4600 226.0000 1.0000
69.4700 258.0000 1.0000
69.4800 210.0000 1.0000
69.4900 232.0000 1.0000
69.5000 228.0000 1.0000
69.5100 227.0000 1.0000
69.5200 232.0000 1.0000
69.5300 234.0000 1.0000
69.5400 229.0000 1.0000
69.5500 228.0000 1.0000
69.5600 238.0000 1.0000
69.5700 224.0000 1.0000
69.5800 251.0000 1.0000
69.5900 245.0000 1.0000
69.6000 225.0000 1.0000
69.6100 238.0000 1.0000
69.6200 212.0000 1.0000
69.6300 225.0000 1.0000
69.6400 222.0000 1.0000
69.6500 235.0000 1.0000
69.6600 244.0000 1.0000
69.6700 241.0000 1.0000
69.6800 224.0000 1.0000
69.6900 223.0000 1.0000
69.7000 209.0000 1.0000
69.7100 219.0000 1.0000
69.7200 224.0000 1.0000
69.7300 242.0000 1.0000
69.7400 254.0000 1.0000
69.7500 234.0000 1.0000
69.7600 202.0000 1.0000
69.7700 235.0000 1.0000
69.7800 229.0000 1.0000
69.7900 223.0000 1.0000
69.8000 224.0000 1.0000
69.8100 244.0000 1.0000
69.8200 233.0000 1.0000
69.8300 247.0000 1.0000
69.8400 225.0000 1.0000
69.8500 231.0000 1.0000
69.8600 228.0000 1.0000
69.8700 218.0000 1.0000
69.8800 248.0000 1.0000
69.8900 226.0000 1.0000
69.9000 243.0000 1.0000
69.9100 238.0000 1.0000
69.9200 236.0000 1.0000
69.9300 239.0000 1.0000
69.9400 237.0000 1.0000
69.9500 227.0000 1.0000
69.9600 220.0000 1.0000
69.9700 226.0000 1.0000
69.9800 221.0000 1.0000
69.9900 224.0000 1.0000
70.0000 244.0000 1.0000
*RAS_INT_END
*RAS_TEMPERATURE_START
*RAS_TEMPERATURE_END
*RAS_DATA_END
