*RAS_DATA_START
*RAS_HEADER_START
*DISP_FMT_X "%.2f"
*DISP_FMT_Y "%.0f"
*DISP_FULLSCALE "14320.0000000000"
*DISP_LINE_COLOR "255.0000000000"
*DISP_LINE_STYLE "0.0000000000"
*DISP_LINE_WIDTH "0.2500000000"
*DISP_NOTE "測定データ-4"
*DISP_OFFSET_Y "0.0000000000"
*DISP_PEAKSEARCH_UNIT_Y "cps"
*DISP_RANGE_BOTTOM "0.0000000000"
*DISP_RANGE_LEFT "20.0000000000"
*DISP_RANGE_LOGCUTOFF "0.0100000000"
*DISP_RANGE_RIGHT "70.0000000000"
*DISP_RANGE_TOP "14320.0000000000"
*DISP_SCALE_MODE_Y "0.0000000000"
*DISP_TAB_NAME "2θ/θ"
*DISP_TITLE_Y "強度"
*DISP_UNIT_Y "cps"
*DISP_WINDOW_NAME "MSG_MACROENGINE"
*FILE_COMMENT " "
*FILE_MD5 ""
*FILE_MEMO " "
*FILE_OPERATOR "Administrator"
*FILE_SAMPLE " "
*FILE_TYPE "RAS_RAW"
*FILE_USERGROUP "システムマネージャ"
*FILE_VERSION "1.0000000000"
*HW_ATTACHMENT_ID "ATT0025"
*HW_ATTACHMENT_NAME "標準|Standard"
*HW_COUNTER_ID-0 "CUT0025"
*HW_COUNTER_ID-1 "CUT0020"
*HW_COUNTER_ID-2 "CUT0020"
*HW_COUNTER_ID-3 "CSL0021"
*HW_COUNTER_ID-4 "CMC0021"
*HW_COUNTER_NAME-0 "D/teX Ultra|D/teX Ultra"
*HW_COUNTER_NAME-1 "None|None"
*HW_COUNTER_NAME-2 "None|None"
*HW_COUNTER_NAME-3 "BBM|BBM"
*HW_COUNTER_NAME-4 "検出器モノクロメータ|Detector monochromator"
*HW_COUNTER_SELECT_NAME "D/teX Ultra|D/teX Ultra"
*HW_GONIOMETER_ID "GON0023"
*HW_GONIOMETER_NAME "SmartLab|SmartLab"
*HW_GONIOMETER_RADIUS-0 "90.0"
*HW_GONIOMETER_RADIUS-1 "114.0"
*HW_GONIOMETER_RADIUS-2 "190.0"
*HW_GONIOMETER_RADIUS-3 "300.0"
*HW_GONIOMETER_RADIUS-4 "187.0"
*HW_GONIOMETER_RADIUS-5 "300.0"
*HW_GONIOMETER_RADIUS-6 "113.0"
*HW_GONIOMETER_RADIUS-7 "331.0"
*HW_I_OPT_ID-0 "CBO0021"
*HW_I_OPT_ID-1 "ICR0023"
*HW_I_OPT_ID-2 "ISL0021"
*HW_I_OPT_ID-3 "ISO0021"
*HW_I_OPT_ID-4 "IAD0021"
*HW_I_OPT_ID-5 "IPR0001"
*HW_I_OPT_NAME-0 "CBOユニット|CBO unit"
*HW_I_OPT_NAME-1 "標準入射光学ユニット|Standard incident optical unit"
*HW_I_OPT_NAME-2 "標準入射スリットボックス|Standard incident slit box"
*HW_I_OPT_NAME-3 "入射平行スリット|Incident parallel slit"
*HW_I_OPT_NAME-4 "長手制限スリット|Length limiting slit"
*HW_I_OPT_NAME-5 "None|None"
*HW_R_ATTENUATER_AUTOMODE "0"
*HW_R_OPT_ID-0 "RSS0021"
*HW_R_OPT_ID-1 "RCR0023"
*HW_R_OPT_ID-2 "RSO0021"
*HW_R_OPT_ID-3 "RRS0021"
*HW_R_OPT_ID-4 "ATN0021"
*HW_R_OPT_ID-5 "RFL0021"
*HW_R_OPT_ID-6 "RAD0021"
*HW_R_OPT_NAME-0 "標準受光スリットボックス1|Standard receiving slit box # 1"
*HW_R_OPT_NAME-1 "標準受光光学ユニット1|Standard receiving unit # 1"
*HW_R_OPT_NAME-2 "標準受光光学ユニット2|Standard receiving optical unit # 2"
*HW_R_OPT_NAME-3 "標準受光スリットボックス2|Standard receiving slit box # 2"
*HW_R_OPT_NAME-4 "標準アッテネータ|Standard Attenuator"
*HW_R_OPT_NAME-5 "Cu Kβ|Cu K-beta"
*HW_R_OPT_NAME-6 "調整用受光スリット|Alignment receiving slit"
*HW_SAMPLE_HOLDER_ID "SMP0023"
*HW_SAMPLE_HOLDER_NAME "標準Zステージ|Standard Z stage"
*HW_XG_CURRENT_MAX "50"
*HW_XG_CURRENT_MIN "2"
*HW_XG_CURRENT_RESOLUTION "1"
*HW_XG_CURRENT_UNIT "mA"
*HW_XG_FOCUS "1mm x 10mm"
*HW_XG_FOCUS_TYPE "Normal"
*HW_XG_ID ""
*HW_XG_NAME "3kW 封入管(ID:1200)|3kW Sealed tube(ID:1200)"
*HW_XG_TARGET_ATOMIC_NUMBER "29.0000000000"
*HW_XG_TARGET_NAME "Cu"
*HW_XG_TYPE "Hermetic"
*HW_XG_VOLTAGE_MAX "60"
*HW_XG_VOLTAGE_MIN "20"
*HW_XG_VOLTAGE_RESOLUTION "1"
*HW_XG_VOLTAGE_UNIT "kV"
*HW_XG_WATT_MAX "1.500"
*HW_XG_WATT_UNIT "kW"
*HW_XG_WAVE_LENGTH_ALPHA1 "1.540593"
*HW_XG_WAVE_LENGTH_ALPHA2 "1.544414"
*HW_XG_WAVE_LENGTH_BETA "1.392250"
*MEAS_COND_AXIS_NAME-0 "2θ/θ"
*MEAS_COND_AXIS_NAME-1 "2θ"
*MEAS_COND_AXIS_NAME-2 "ω"
*MEAS_COND_AXIS_NAME-3 "Z"
*MEAS_COND_AXIS_NAME-4 "2θ/ω"
*MEAS_COND_AXIS_NAME-5 "θs"
*MEAS_COND_AXIS_NAME-6 "θd"
*MEAS_COND_AXIS_NAME-7 "Ts"
*MEAS_COND_AXIS_NAME-8 "CBO選択スリット"
*MEAS_COND_AXIS_NAME-9 "M"
*MEAS_COND_AXIS_NAME-10 "入射平行スリット"
*MEAS_COND_AXIS_NAME-11 "入射スリット"
*MEAS_COND_AXIS_NAME-12 ""
*MEAS_COND_AXIS_NAME-13 "Zs"
*MEAS_COND_AXIS_NAME-14 "入射光学素子"
*MEAS_COND_AXIS_NAME-15 "長手制限スリット"
*MEAS_COND_AXIS_NAME-16 "センタースリット"
*MEAS_COND_AXIS_NAME-17 "フィルター"
*MEAS_COND_AXIS_NAME-18 "受光スリット1"
*MEAS_COND_AXIS_NAME-19 "受光スリット2"
*MEAS_COND_AXIS_NAME-20 "受光光学素子"
*MEAS_COND_AXIS_NAME-21 "受光平行スリット"
*MEAS_COND_AXIS_NAME-22 "調整用受光スリット"
*MEAS_COND_AXIS_NAME-23 ""
*MEAS_COND_AXIS_NAME-24 ""
*MEAS_COND_AXIS_NAME-25 "Zd"
*MEAS_COND_AXIS_NAME-26 "アッテネータ"
*MEAS_COND_AXIS_NAME-27 "検出器モノクロメータ"
*MEAS_COND_AXIS_NAME-28 "モノクロメータスリット"
*MEAS_COND_AXIS_NAME-29 "プライマリビーム"
*MEAS_COND_AXIS_NAME-30 "PHA"
*MEAS_COND_AXIS_NAME_INTERNAL-0 "TwoThetaTheta"
*MEAS_COND_AXIS_NAME_INTERNAL-1 "TwoTheta"
*MEAS_COND_AXIS_NAME_INTERNAL-2 "Omega"
*MEAS_COND_AXIS_NAME_INTERNAL-3 "Z"
*MEAS_COND_AXIS_NAME_INTERNAL-4 "TwoThetaOmega"
*MEAS_COND_AXIS_NAME_INTERNAL-5 "ThetaS"
*MEAS_COND_AXIS_NAME_INTERNAL-6 "ThetaD"
*MEAS_COND_AXIS_NAME_INTERNAL-7 "Ts"
*MEAS_COND_AXIS_NAME_INTERNAL-8 "CBO"
*MEAS_COND_AXIS_NAME_INTERNAL-9 "CBO-M"
*MEAS_COND_AXIS_NAME_INTERNAL-10 "IncidentSollerSlit"
*MEAS_COND_AXIS_NAME_INTERNAL-11 "IncidentSlitBox"
*MEAS_COND_AXIS_NAME_INTERNAL-12 "IncidentSlitBox-_Axis"
*MEAS_COND_AXIS_NAME_INTERNAL-13 "Zs"
*MEAS_COND_AXIS_NAME_INTERNAL-14 "IncidentMonochromator"
*MEAS_COND_AXIS_NAME_INTERNAL-15 "IncidentAxdSlit"
*MEAS_COND_AXIS_NAME_INTERNAL-16 "CenterSlit"
*MEAS_COND_AXIS_NAME_INTERNAL-17 "Filter"
*MEAS_COND_AXIS_NAME_INTERNAL-18 "ReceivingSlitBox1"
*MEAS_COND_AXIS_NAME_INTERNAL-19 "ReceivingSlitBox2"
*MEAS_COND_AXIS_NAME_INTERNAL-20 "ReceivingOptics"
*MEAS_COND_AXIS_NAME_INTERNAL-21 "ReceivingSollerSlit"
*MEAS_COND_AXIS_NAME_INTERNAL-22 "ReceivingAxdSlit"
*MEAS_COND_AXIS_NAME_INTERNAL-23 "ReceivingSlitBox1-_Axis"
*MEAS_COND_AXIS_NAME_INTERNAL-24 "ReceivingSlitBox2-_Axis"
*MEAS_COND_AXIS_NAME_INTERNAL-25 "ReceivingSlitBox2-Zd"
*MEAS_COND_AXIS_NAME_INTERNAL-26 "Attenuator"
*MEAS_COND_AXIS_NAME_INTERNAL-27 "CounterMonochromator"
*MEAS_COND_AXIS_NAME_INTERNAL-28 "CounterSlit"
*MEAS_COND_AXIS_NAME_INTERNAL-29 "IncidentPrimary"
*MEAS_COND_AXIS_NAME_INTERNAL-30 "PHA"
*MEAS_COND_AXIS_NAME_MAGICNO-0 "83951616.0000000000"
*MEAS_COND_AXIS_NAME_MAGICNO-1 "268632064.0000000000"
*MEAS_COND_AXIS_NAME_MAGICNO-2 "268500992.0000000000"
*MEAS_COND_AXIS_NAME_MAGICNO-3 "285278208.0000000000"
*MEAS_COND_AXIS_NAME_MAGICNO-4 "83951616.0000000000"
*MEAS_COND_AXIS_NAME_MAGICNO-5 "131072.0000000000"
*MEAS_COND_AXIS_NAME_MAGICNO-6 "131072.0000000000"
*MEAS_COND_AXIS_NAME_MAGICNO-7 "318898176.0000000000"
*MEAS_COND_AXIS_NAME_MAGICNO-8 "20971521.0000000000"
*MEAS_COND_AXIS_NAME_MAGICNO-9 "285343744.0000000000"
*MEAS_COND_AXIS_NAME_MAGICNO-10 "20971521.0000000000"
*MEAS_COND_AXIS_NAME_MAGICNO-11 "22020097.0000000000"
*MEAS_COND_AXIS_NAME_MAGICNO-12 "25165824.0000000000"
*MEAS_COND_AXIS_NAME_MAGICNO-13 "318898176.0000000000"
*MEAS_COND_AXIS_NAME_MAGICNO-14 "1.0000000000"
*MEAS_COND_AXIS_NAME_MAGICNO-15 "20971521.0000000000"
*MEAS_COND_AXIS_NAME_MAGICNO-16 "20971521.0000000000"
*MEAS_COND_AXIS_NAME_MAGICNO-17 "20971521.0000000000"
*MEAS_COND_AXIS_NAME_MAGICNO-18 "23068673.0000000000"
*MEAS_COND_AXIS_NAME_MAGICNO-19 "23068673.0000000000"
*MEAS_COND_AXIS_NAME_MAGICNO-20 "20971521.0000000000"
*MEAS_COND_AXIS_NAME_MAGICNO-21 "20971521.0000000000"
*MEAS_COND_AXIS_NAME_MAGICNO-22 "20971521.0000000000"
*MEAS_COND_AXIS_NAME_MAGICNO-23 "25165824.0000000000"
*MEAS_COND_AXIS_NAME_MAGICNO-24 "25165824.0000000000"
*MEAS_COND_AXIS_NAME_MAGICNO-25 "285343744.0000000000"
*MEAS_COND_AXIS_NAME_MAGICNO-26 "17301505.0000000000"
*MEAS_COND_AXIS_NAME_MAGICNO-27 "20971521.0000000000"
*MEAS_COND_AXIS_NAME_MAGICNO-28 "20971521.0000000000"
*MEAS_COND_AXIS_NAME_MAGICNO-29 "20971521.0000000000"
*MEAS_COND_AXIS_NAME_MAGICNO-30 "0.0000000000"
*MEAS_COND_AXIS_OFFSET-0 "-"
*MEAS_COND_AXIS_OFFSET-1 "-0.0310000000"
*MEAS_COND_AXIS_OFFSET-2 "0.1589000000"
*MEAS_COND_AXIS_OFFSET-3 "-"
*MEAS_COND_AXIS_OFFSET-4 "-"
*MEAS_COND_AXIS_OFFSET-5 "0.1589000000"
*MEAS_COND_AXIS_OFFSET-6 "-0.1899000000"
*MEAS_COND_AXIS_OFFSET-7 "-"
*MEAS_COND_AXIS_OFFSET-8 "-"
*MEAS_COND_AXIS_OFFSET-9 "-"
*MEAS_COND_AXIS_OFFSET-10 "-"
*MEAS_COND_AXIS_OFFSET-11 "-"
*MEAS_COND_AXIS_OFFSET-12 "-"
*MEAS_COND_AXIS_OFFSET-13 "-"
*MEAS_COND_AXIS_OFFSET-14 "-"
*MEAS_COND_AXIS_OFFSET-15 "-"
*MEAS_COND_AXIS_OFFSET-16 "-"
*MEAS_COND_AXIS_OFFSET-17 "-"
*MEAS_COND_AXIS_OFFSET-18 "-"
*MEAS_COND_AXIS_OFFSET-19 "-"
*MEAS_COND_AXIS_OFFSET-20 "-"
*MEAS_COND_AXIS_OFFSET-21 "-"
*MEAS_COND_AXIS_OFFSET-22 "-"
*MEAS_COND_AXIS_OFFSET-23 "-"
*MEAS_COND_AXIS_OFFSET-24 "-"
*MEAS_COND_AXIS_OFFSET-25 "-"
*MEAS_COND_AXIS_OFFSET-26 "-"
*MEAS_COND_AXIS_OFFSET-27 "-"
*MEAS_COND_AXIS_OFFSET-28 "-"
*MEAS_COND_AXIS_OFFSET-29 "-"
*MEAS_COND_AXIS_OFFSET-30 "-"
*MEAS_COND_AXIS_POSITION-0 "0.0000000000"
*MEAS_COND_AXIS_POSITION-1 "0.0000000000"
*MEAS_COND_AXIS_POSITION-2 "0.0000000000"
*MEAS_COND_AXIS_POSITION-3 "-2.9326600000"
*MEAS_COND_AXIS_POSITION-4 "0.0000000000"
*MEAS_COND_AXIS_POSITION-5 "0.0000000000"
*MEAS_COND_AXIS_POSITION-6 "0.0000000000"
*MEAS_COND_AXIS_POSITION-7 "-0.7498700000"
*MEAS_COND_AXIS_POSITION-8 "BB"
*MEAS_COND_AXIS_POSITION-9 "0.0000000000"
*MEAS_COND_AXIS_POSITION-10 "Soller_slit_5.0deg"
*MEAS_COND_AXIS_POSITION-11 "2/3deg"
*MEAS_COND_AXIS_POSITION-12 "2.2088000000"
*MEAS_COND_AXIS_POSITION-13 "-0.6412500000"
*MEAS_COND_AXIS_POSITION-14 "0.0000000000"
*MEAS_COND_AXIS_POSITION-15 "10.0mm"
*MEAS_COND_AXIS_POSITION-16 "None"
*MEAS_COND_AXIS_POSITION-17 "Cu_K-beta"
*MEAS_COND_AXIS_POSITION-18 "13.000mm"
*MEAS_COND_AXIS_POSITION-19 "13.000mm"
*MEAS_COND_AXIS_POSITION-20 "No_unit"
*MEAS_COND_AXIS_POSITION-21 "Soller_slit_5.0deg"
*MEAS_COND_AXIS_POSITION-22 "None"
*MEAS_COND_AXIS_POSITION-23 "13.0000000000"
*MEAS_COND_AXIS_POSITION-24 "13.0000000000"
*MEAS_COND_AXIS_POSITION-25 "0.0281300000"
*MEAS_COND_AXIS_POSITION-26 "Open"
*MEAS_COND_AXIS_POSITION-27 "None"
*MEAS_COND_AXIS_POSITION-28 "None"
*MEAS_COND_AXIS_POSITION-29 "None"
*MEAS_COND_AXIS_POSITION-30 "38.0000000000"
*MEAS_COND_AXIS_UNIT-0 "deg"
*MEAS_COND_AXIS_UNIT-1 "deg"
*MEAS_COND_AXIS_UNIT-2 "deg"
*MEAS_COND_AXIS_UNIT-3 "mm"
*MEAS_COND_AXIS_UNIT-4 "deg"
*MEAS_COND_AXIS_UNIT-5 "deg"
*MEAS_COND_AXIS_UNIT-6 "deg"
*MEAS_COND_AXIS_UNIT-7 "mm"
*MEAS_COND_AXIS_UNIT-8 ""
*MEAS_COND_AXIS_UNIT-9 "pulse"
*MEAS_COND_AXIS_UNIT-10 ""
*MEAS_COND_AXIS_UNIT-11 ""
*MEAS_COND_AXIS_UNIT-12 "mm"
*MEAS_COND_AXIS_UNIT-13 "mm"
*MEAS_COND_AXIS_UNIT-14 ""
*MEAS_COND_AXIS_UNIT-15 ""
*MEAS_COND_AXIS_UNIT-16 ""
*MEAS_COND_AXIS_UNIT-17 ""
*MEAS_COND_AXIS_UNIT-18 ""
*MEAS_COND_AXIS_UNIT-19 ""
*MEAS_COND_AXIS_UNIT-20 ""
*MEAS_COND_AXIS_UNIT-21 ""
*MEAS_COND_AXIS_UNIT-22 ""
*MEAS_COND_AXIS_UNIT-23 "mm"
*MEAS_COND_AXIS_UNIT-24 "mm"
*MEAS_COND_AXIS_UNIT-25 "mm"
*MEAS_COND_AXIS_UNIT-26 ""
*MEAS_COND_AXIS_UNIT-27 ""
*MEAS_COND_AXIS_UNIT-28 ""
*MEAS_COND_AXIS_UNIT-29 ""
*MEAS_COND_AXIS_UNIT-30 "div"
*MEAS_COND_COUNTER_CNTLOSS_CORR "0.0000000000"
*MEAS_COND_COUNTER_PHABASE "38.0000000000"
*MEAS_COND_COUNTER_PHAWINDOW "16.0000000000"
*MEAS_COND_COUNTER_PHA_UNIT "div"
*MEAS_COND_COUNTER_TAUDIFF "30.0000000000"
*MEAS_COND_COUNTER_TAUINT "0.0000000000"
*MEAS_COND_IRRADIATION_MODE "OFF"
*MEAS_COND_IRRADIATION_WIDTH ""
*MEAS_COND_OPT_ATTR "集中法"
*MEAS_COND_OPT_NAME "@集中法"
*MEAS_COND_UNSYMMETRIC_MODE "OFF"
*MEAS_COND_XG_CURRENT "30.0000000000"
*MEAS_COND_XG_VOLTAGE "40.0000000000"
*MEAS_COND_XG_WAVE_TYPE "Ka"
*MEAS_DATA_COUNT "5001.0000000000"
*MEAS_SCAN_AXIS_X "2θ/θ"
*MEAS_SCAN_AXIS_X_INTERNAL "TwoThetaTheta"
*MEAS_SCAN_END_TIME "12/13/22 11:47:33"
*MEAS_SCAN_MODE "CONTINUOUS"
*MEAS_SCAN_MONITOR "0"
*MEAS_SCAN_RESOLUTION_X "0.0002"
*MEAS_SCAN_SPEED "2.5"
*MEAS_SCAN_SPEED_UNIT "deg/min"
*MEAS_SCAN_START "20.0000000000"
*MEAS_SCAN_START_TIME "12/13/22 11:26:09"
*MEAS_SCAN_STEP "0.0100000000"
*MEAS_SCAN_STOP "70.0000000000"
*MEAS_SCAN_UNIT_X "deg"
*MEAS_SCAN_UNIT_Y "counts"
*RAS_HEADER_END
*RAS_INT_START
20.0000 854.0000 1.0000
20.0100 859.0000 1.0000
20.0200 845.0000 1.0000
20.0300 824.0000 1.0000
20.0400 805.0000 1.0000
20.0500 821.0000 1.0000
20.0600 782.0000 1.0000
20.0700 803.0000 1.0000
20.0800 827.0000 1.0000
20.0900 842.0000 1.0000
20.1000 835.0000 1.0000
20.1100 812.0000 1.0000
20.1200 796.0000 1.0000
20.1300 832.0000 1.0000
20.1400 830.0000 1.0000
20.1500 844.0000 1.0000
20.1600 818.0000 1.0000
20.1700 840.0000 1.0000
20.1800 837.0000 1.0000
20.1900 832.0000 1.0000
20.2000 795.0000 1.0000
20.2100 825.0000 1.0000
20.2200 789.0000 1.0000
20.2300 822.0000 1.0000
20.2400 836.0000 1.0000
20.2500 820.0000 1.0000
20.2600 808.0000 1.0000
20.2700 828.0000 1.0000
20.2800 827.0000 1.0000
20.2900 817.0000 1.0000
20.3000 843.0000 1.0000
20.3100 836.0000 1.0000
20.3200 785.0000 1.0000
20.3300 817.0000 1.0000
20.3400 830.0000 1.0000
20.3500 852.0000 1.0000
20.3600 781.0000 1.0000
20.3700 780.0000 1.0000
20.3800 786.0000 1.0000
20.3900 797.0000 1.0000
20.4000 802.0000 1.0000
20.4100 826.0000 1.0000
20.4200 801.0000 1.0000
20.4300 786.0000 1.0000
20.4400 815.0000 1.0000
20.4500 829.0000 1.0000
20.4600 796.0000 1.0000
20.4700 842.0000 1.0000
20.4800 819.0000 1.0000
20.4900 846.0000 1.0000
20.5000 855.0000 1.0000
20.5100 829.0000 1.0000
20.5200 844.0000 1.0000
20.5300 747.0000 1.0000
20.5400 819.0000 1.0000
20.5500 832.0000 1.0000
20.5600 821.0000 1.0000
20.5700 825.0000 1.0000
20.5800 827.0000 1.0000
20.5900 800.0000 1.0000
20.6000 800.0000 1.0000
20.6100 807.0000 1.0000
20.6200 825.0000 1.0000
20.6300 819.0000 1.0000
20.6400 845.0000 1.0000
20.6500 834.0000 1.0000
20.6600 778.0000 1.0000
20.6700 803.0000 1.0000
20.6800 866.0000 1.0000
20.6900 831.0000 1.0000
20.7000 811.0000 1.0000
20.7100 794.0000 1.0000
20.7200 827.0000 1.0000
20.7300 840.0000 1.0000
20.7400 818.0000 1.0000
20.7500 804.0000 1.0000
20.7600 777.0000 1.0000
20.7700 792.0000 1.0000
20.7800 789.0000 1.0000
20.7900 856.0000 1.0000
20.8000 869.0000 1.0000
20.8100 827.0000 1.0000
20.8200 825.0000 1.0000
20.8300 798.0000 1.0000
20.8400 842.0000 1.0000
20.8500 816.0000 1.0000
20.8600 847.0000 1.0000
20.8700 823.0000 1.0000
20.8800 826.0000 1.0000
20.8900 807.0000 1.0000
20.9000 797.0000 1.0000
20.9100 783.0000 1.0000
20.9200 827.0000 1.0000
20.9300 746.0000 1.0000
20.9400 800.0000 1.0000
20.9500 802.0000 1.0000
20.9600 814.0000 1.0000
20.9700 804.0000 1.0000
20.9800 796.0000 1.0000
20.9900 831.0000 1.0000
21.0000 810.0000 1.0000
21.0100 791.0000 1.0000
21.0200 807.0000 1.0000
21.0300 861.0000 1.0000
21.0400 792.0000 1.0000
21.0500 820.0000 1.0000
21.0600 816.0000 1.0000
21.0700 858.0000 1.0000
21.0800 808.0000 1.0000
21.0900 854.0000 1.0000
21.1000 829.0000 1.0000
21.1100 815.0000 1.0000
21.1200 810.0000 1.0000
21.1300 817.0000 1.0000
21.1400 802.0000 1.0000
21.1500 804.0000 1.0000
21.1600 854.0000 1.0000
21.1700 808.0000 1.0000
21.1800 786.0000 1.0000
21.1900 832.0000 1.0000
21.2000 859.0000 1.0000
21.2100 830.0000 1.0000
21.2200 847.0000 1.0000
21.2300 826.0000 1.0000
21.2400 817.0000 1.0000
21.2500 866.0000 1.0000
21.2600 819.0000 1.0000
21.2700 911.0000 1.0000
21.2800 818.0000 1.0000
21.2900 830.0000 1.0000
21.3000 876.0000 1.0000
21.3100 819.0000 1.0000
21.3200 806.0000 1.0000
21.3300 820.0000 1.0000
21.3400 807.0000 1.0000
21.3500 801.0000 1.0000
21.3600 847.0000 1.0000
21.3700 827.0000 1.0000
21.3800 849.0000 1.0000
21.3900 848.0000 1.0000
21.4000 821.0000 1.0000
21.4100 822.0000 1.0000
21.4200 828.0000 1.0000
21.4300 818.0000 1.0000
21.4400 810.0000 1.0000
21.4500 808.0000 1.0000
21.4600 811.0000 1.0000
21.4700 798.0000 1.0000
21.4800 832.0000 1.0000
21.4900 799.0000 1.0000
21.5000 822.0000 1.0000
21.5100 865.0000 1.0000
21.5200 865.0000 1.0000
21.5300 855.0000 1.0000
21.5400 848.0000 1.0000
21.5500 807.0000 1.0000
21.5600 836.0000 1.0000
21.5700 828.0000 1.0000
21.5800 865.0000 1.0000
21.5900 831.0000 1.0000
21.6000 812.0000 1.0000
21.6100 799.0000 1.0000
21.6200 821.0000 1.0000
21.6300 862.0000 1.0000
21.6400 793.0000 1.0000
21.6500 785.0000 1.0000
21.6600 829.0000 1.0000
21.6700 796.0000 1.0000
21.6800 847.0000 1.0000
21.6900 825.0000 1.0000
21.7000 796.0000 1.0000
21.7100 783.0000 1.0000
21.7200 813.0000 1.0000
21.7300 821.0000 1.0000
21.7400 823.0000 1.0000
21.7500 808.0000 1.0000
21.7600 813.0000 1.0000
21.7700 832.0000 1.0000
21.7800 852.0000 1.0000
21.7900 818.0000 1.0000
21.8000 812.0000 1.0000
21.8100 782.0000 1.0000
21.8200 802.0000 1.0000
21.8300 853.0000 1.0000
21.8400 833.0000 1.0000
21.8500 829.0000 1.0000
21.8600 842.0000 1.0000
21.8700 812.0000 1.0000
21.8800 826.0000 1.0000
21.8900 826.0000 1.0000
21.9000 750.0000 1.0000
21.9100 796.0000 1.0000
21.9200 832.0000 1.0000
21.9300 788.0000 1.0000
21.9400 811.0000 1.0000
21.9500 789.0000 1.0000
21.9600 810.0000 1.0000
21.9700 797.0000 1.0000
21.9800 819.0000 1.0000
21.9900 806.0000 1.0000
22.0000 797.0000 1.0000
22.0100 791.0000 1.0000
22.0200 817.0000 1.0000
22.0300 782.0000 1.0000
22.0400 810.0000 1.0000
22.0500 815.0000 1.0000
22.0600 790.0000 1.0000
22.0700 850.0000 1.0000
22.0800 819.0000 1.0000
22.0900 782.0000 1.0000
22.1000 821.0000 1.0000
22.1100 827.0000 1.0000
22.1200 833.0000 1.0000
22.1300 866.0000 1.0000
22.1400 829.0000 1.0000
22.1500 832.0000 1.0000
22.1600 856.0000 1.0000
22.1700 830.0000 1.0000
22.1800 828.0000 1.0000
22.1900 852.0000 1.0000
22.2000 772.0000 1.0000
22.2100 838.0000 1.0000
22.2200 805.0000 1.0000
22.2300 816.0000 1.0000
22.2400 776.0000 1.0000
22.2500 829.0000 1.0000
22.2600 777.0000 1.0000
22.2700 788.0000 1.0000
22.2800 801.0000 1.0000
22.2900 821.0000 1.0000
22.3000 808.0000 1.0000
22.3100 811.0000 1.0000
22.3200 833.0000 1.0000
22.3300 794.0000 1.0000
22.3400 822.0000 1.0000
22.3500 830.0000 1.0000
22.3600 835.0000 1.0000
22.3700 762.0000 1.0000
22.3800 825.0000 1.0000
22.3900 856.0000 1.0000
22.4000 811.0000 1.0000
22.4100 774.0000 1.0000
22.4200 832.0000 1.0000
22.4300 835.0000 1.0000
22.4400 798.0000 1.0000
22.4500 820.0000 1.0000
22.4600 812.0000 1.0000
22.4700 823.0000 1.0000
22.4800 825.0000 1.0000
22.4900 772.0000 1.0000
22.5000 819.0000 1.0000
22.5100 830.0000 1.0000
22.5200 836.0000 1.0000
22.5300 857.0000 1.0000
22.5400 794.0000 1.0000
22.5500 806.0000 1.0000
22.5600 802.0000 1.0000
22.5700 860.0000 1.0000
22.5800 854.0000 1.0000
22.5900 845.0000 1.0000
22.6000 811.0000 1.0000
22.6100 791.0000 1.0000
22.6200 803.0000 1.0000
22.6300 791.0000 1.0000
22.6400 815.0000 1.0000
22.6500 811.0000 1.0000
22.6600 807.0000 1.0000
22.6700 867.0000 1.0000
22.6800 790.0000 1.0000
22.6900 853.0000 1.0000
22.7000 835.0000 1.0000
22.7100 780.0000 1.0000
22.7200 820.0000 1.0000
22.7300 797.0000 1.0000
22.7400 828.0000 1.0000
22.7500 822.0000 1.0000
22.7600 801.0000 1.0000
22.7700 845.0000 1.0000
22.7800 831.0000 1.0000
22.7900 857.0000 1.0000
22.8000 805.0000 1.0000
22.8100 807.0000 1.0000
22.8200 801.0000 1.0000
22.8300 830.0000 1.0000
22.8400 779.0000 1.0000
22.8500 795.0000 1.0000
22.8600 791.0000 1.0000
22.8700 802.0000 1.0000
22.8800 807.0000 1.0000
22.8900 804.0000 1.0000
22.9000 796.0000 1.0000
22.9100 784.0000 1.0000
22.9200 769.0000 1.0000
22.9300 805.0000 1.0000
22.9400 794.0000 1.0000
22.9500 802.0000 1.0000
22.9600 784.0000 1.0000
22.9700 838.0000 1.0000
22.9800 819.0000 1.0000
22.9900 784.0000 1.0000
23.0000 815.0000 1.0000
23.0100 807.0000 1.0000
23.0200 860.0000 1.0000
23.0300 823.0000 1.0000
23.0400 800.0000 1.0000
23.0500 790.0000 1.0000
23.0600 853.0000 1.0000
23.0700 786.0000 1.0000
23.0800 809.0000 1.0000
23.0900 869.0000 1.0000
23.1000 787.0000 1.0000
23.1100 804.0000 1.0000
23.1200 838.0000 1.0000
23.1300 822.0000 1.0000
23.1400 818.0000 1.0000
23.1500 852.0000 1.0000
23.1600 850.0000 1.0000
23.1700 793.0000 1.0000
23.1800 751.0000 1.0000
23.1900 789.0000 1.0000
23.2000 800.0000 1.0000
23.2100 782.0000 1.0000
23.2200 815.0000 1.0000
23.2300 791.0000 1.0000
23.2400 806.0000 1.0000
23.2500 830.0000 1.0000
23.2600 780.0000 1.0000
23.2700 843.0000 1.0000
23.2800 752.0000 1.0000
23.2900 807.0000 1.0000
23.3000 785.0000 1.0000
23.3100 764.0000 1.0000
23.3200 833.0000 1.0000
23.3300 826.0000 1.0000
23.3400 818.0000 1.0000
23.3500 770.0000 1.0000
23.3600 829.0000 1.0000
23.3700 829.0000 1.0000
23.3800 823.0000 1.0000
23.3900 815.0000 1.0000
23.4000 823.0000 1.0000
23.4100 812.0000 1.0000
23.4200 789.0000 1.0000
23.4300 805.0000 1.0000
23.4400 785.0000 1.0000
23.4500 812.0000 1.0000
23.4600 816.0000 1.0000
23.4700 810.0000 1.0000
23.4800 821.0000 1.0000
23.4900 803.0000 1.0000
23.5000 835.0000 1.0000
23.5100 807.0000 1.0000
23.5200 837.0000 1.0000
23.5300 836.0000 1.0000
23.5400 808.0000 1.0000
23.5500 764.0000 1.0000
23.5600 821.0000 1.0000
23.5700 826.0000 1.0000
23.5800 835.0000 1.0000
23.5900 831.0000 1.0000
23.6000 773.0000 1.0000
23.6100 800.0000 1.0000
23.6200 827.0000 1.0000
23.6300 812.0000 1.0000
23.6400 801.0000 1.0000
23.6500 771.0000 1.0000
23.6600 797.0000 1.0000
23.6700 783.0000 1.0000
23.6800 779.0000 1.0000
23.6900 807.0000 1.0000
23.7000 832.0000 1.0000
23.7100 794.0000 1.0000
23.7200 853.0000 1.0000
23.7300 778.0000 1.0000
23.7400 826.0000 1.0000
23.7500 858.0000 1.0000
23.7600 869.0000 1.0000
23.7700 773.0000 1.0000
23.7800 815.0000 1.0000
23.7900 822.0000 1.0000
23.8000 814.0000 1.0000
23.8100 808.0000 1.0000
23.8200 818.0000 1.0000
23.8300 831.0000 1.0000
23.8400 821.0000 1.0000
23.8500 813.0000 1.0000
23.8600 858.0000 1.0000
23.8700 765.0000 1.0000
23.8800 816.0000 1.0000
23.8900 804.0000 1.0000
23.9000 816.0000 1.0000
23.9100 820.0000 1.0000
23.9200 779.0000 1.0000
23.9300 868.0000 1.0000
23.9400 870.0000 1.0000
23.9500 866.0000 1.0000
23.9600 834.0000 1.0000
23.9700 824.0000 1.0000
23.9800 806.0000 1.0000
23.9900 788.0000 1.0000
24.0000 861.0000 1.0000
24.0100 854.0000 1.0000
24.0200 827.0000 1.0000
24.0300 816.0000 1.0000
24.0400 863.0000 1.0000
24.0500 846.0000 1.0000
24.0600 892.0000 1.0000
24.0700 903.0000 1.0000
24.0800 865.0000 1.0000
24.0900 879.0000 1.0000
24.1000 878.0000 1.0000
24.1100 886.0000 1.0000
24.1200 860.0000 1.0000
24.1300 855.0000 1.0000
24.1400 897.0000 1.0000
24.1500 903.0000 1.0000
24.1600 882.0000 1.0000
24.1700 949.0000 1.0000
24.1800 938.0000 1.0000
24.1900 922.0000 1.0000
24.2000 900.0000 1.0000
24.2100 900.0000 1.0000
24.2200 866.0000 1.0000
24.2300 863.0000 1.0000
24.2400 858.0000 1.0000
24.2500 866.0000 1.0000
24.2600 825.0000 1.0000
24.2700 803.0000 1.0000
24.2800 763.0000 1.0000
24.2900 814.0000 1.0000
24.3000 808.0000 1.0000
24.3100 791.0000 1.0000
24.3200 814.0000 1.0000
24.3300 841.0000 1.0000
24.3400 819.0000 1.0000
24.3500 811.0000 1.0000
24.3600 828.0000 1.0000
24.3700 831.0000 1.0000
24.3800 838.0000 1.0000
24.3900 834.0000 1.0000
24.4000 833.0000 1.0000
24.4100 813.0000 1.0000
24.4200 814.0000 1.0000
24.4300 839.0000 1.0000
24.4400 805.0000 1.0000
24.4500 840.0000 1.0000
24.4600 778.0000 1.0000
24.4700 861.0000 1.0000
24.4800 822.0000 1.0000
24.4900 756.0000 1.0000
24.5000 820.0000 1.0000
24.5100 798.0000 1.0000
24.5200 838.0000 1.0000
24.5300 814.0000 1.0000
24.5400 802.0000 1.0000
24.5500 791.0000 1.0000
24.5600 804.0000 1.0000
24.5700 783.0000 1.0000
24.5800 779.0000 1.0000
24.5900 782.0000 1.0000
24.6000 858.0000 1.0000
24.6100 798.0000 1.0000
24.6200 805.0000 1.0000
24.6300 779.0000 1.0000
24.6400 808.0000 1.0000
24.6500 788.0000 1.0000
24.6600 817.0000 1.0000
24.6700 761.0000 1.0000
24.6800 809.0000 1.0000
24.6900 840.0000 1.0000
24.7000 799.0000 1.0000
24.7100 765.0000 1.0000
24.7200 772.0000 1.0000
24.7300 784.0000 1.0000
24.7400 737.0000 1.0000
24.7500 855.0000 1.0000
24.7600 836.0000 1.0000
24.7700 873.0000 1.0000
24.7800 804.0000 1.0000
24.7900 764.0000 1.0000
24.8000 770.0000 1.0000
24.8100 784.0000 1.0000
24.8200 832.0000 1.0000
24.8300 760.0000 1.0000
24.8400 790.0000 1.0000
24.8500 798.0000 1.0000
24.8600 831.0000 1.0000
24.8700 781.0000 1.0000
24.8800 766.0000 1.0000
24.8900 812.0000 1.0000
24.9000 759.0000 1.0000
24.9100 806.0000 1.0000
24.9200 773.0000 1.0000
24.9300 782.0000 1.0000
24.9400 821.0000 1.0000
24.9500 792.0000 1.0000
24.9600 776.0000 1.0000
24.9700 787.0000 1.0000
24.9800 797.0000 1.0000
24.9900 773.0000 1.0000
25.0000 784.0000 1.0000
25.0100 784.0000 1.0000
25.0200 791.0000 1.0000
25.0300 802.0000 1.0000
25.0400 784.0000 1.0000
25.0500 763.0000 1.0000
25.0600 834.0000 1.0000
25.0700 748.0000 1.0000
25.0800 788.0000 1.0000
25.0900 805.0000 1.0000
25.1000 808.0000 1.0000
25.1100 777.0000 1.0000
25.1200 757.0000 1.0000
25.1300 764.0000 1.0000
25.1400 798.0000 1.0000
25.1500 799.0000 1.0000
25.1600 782.0000 1.0000
25.1700 790.0000 1.0000
25.1800 779.0000 1.0000
25.1900 752.0000 1.0000
25.2000 778.0000 1.0000
25.2100 804.0000 1.0000
25.2200 809.0000 1.0000
25.2300 768.0000 1.0000
25.2400 769.0000 1.0000
25.2500 794.0000 1.0000
25.2600 791.0000 1.0000
25.2700 811.0000 1.0000
25.2800 767.0000 1.0000
25.2900 755.0000 1.0000
25.3000 805.0000 1.0000
25.3100 785.0000 1.0000
25.3200 806.0000 1.0000
25.3300 776.0000 1.0000
25.3400 769.0000 1.0000
25.3500 752.0000 1.0000
25.3600 784.0000 1.0000
25.3700 797.0000 1.0000
25.3800 770.0000 1.0000
25.3900 815.0000 1.0000
25.4000 790.0000 1.0000
25.4100 759.0000 1.0000
25.4200 805.0000 1.0000
25.4300 781.0000 1.0000
25.4400 798.0000 1.0000
25.4500 771.0000 1.0000
25.4600 817.0000 1.0000
25.4700 787.0000 1.0000
25.4800 752.0000 1.0000
25.4900 773.0000 1.0000
25.5000 782.0000 1.0000
25.5100 778.0000 1.0000
25.5200 761.0000 1.0000
25.5300 760.0000 1.0000
25.5400 793.0000 1.0000
25.5500 793.0000 1.0000
25.5600 782.0000 1.0000
25.5700 781.0000 1.0000
25.5800 812.0000 1.0000
25.5900 841.0000 1.0000
25.6000 852.0000 1.0000
25.6100 796.0000 1.0000
25.6200 791.0000 1.0000
25.6300 824.0000 1.0000
25.6400 782.0000 1.0000
25.6500 775.0000 1.0000
25.6600 808.0000 1.0000
25.6700 816.0000 1.0000
25.6800 804.0000 1.0000
25.6900 779.0000 1.0000
25.7000 818.0000 1.0000
25.7100 779.0000 1.0000
25.7200 811.0000 1.0000
25.7300 846.0000 1.0000
25.7400 815.0000 1.0000
25.7500 778.0000 1.0000
25.7600 818.0000 1.0000
25.7700 825.0000 1.0000
25.7800 824.0000 1.0000
25.7900 818.0000 1.0000
25.8000 803.0000 1.0000
25.8100 800.0000 1.0000
25.8200 819.0000 1.0000
25.8300 822.0000 1.0000
25.8400 796.0000 1.0000
25.8500 825.0000 1.0000
25.8600 805.0000 1.0000
25.8700 816.0000 1.0000
25.8800 832.0000 1.0000
25.8900 793.0000 1.0000
25.9000 827.0000 1.0000
25.9100 772.0000 1.0000
25.9200 817.0000 1.0000
25.9300 849.0000 1.0000
25.9400 835.0000 1.0000
25.9500 842.0000 1.0000
25.9600 861.0000 1.0000
25.9700 858.0000 1.0000
25.9800 853.0000 1.0000
25.9900 849.0000 1.0000
26.0000 855.0000 1.0000
26.0100 836.0000 1.0000
26.0200 893.0000 1.0000
26.0300 827.0000 1.0000
26.0400 834.0000 1.0000
26.0500 873.0000 1.0000
26.0600 879.0000 1.0000
26.0700 867.0000 1.0000
26.0800 882.0000 1.0000
26.0900 844.0000 1.0000
26.1000 902.0000 1.0000
26.1100 874.0000 1.0000
26.1200 938.0000 1.0000
26.1300 873.0000 1.0000
26.1400 902.0000 1.0000
26.1500 912.0000 1.0000
26.1600 951.0000 1.0000
26.1700 959.0000 1.0000
26.1800 967.0000 1.0000
26.1900 983.0000 1.0000
26.2000 1026.0000 1.0000
26.2100 965.0000 1.0000
26.2200 1091.0000 1.0000
26.2300 1058.0000 1.0000
26.2400 1079.0000 1.0000
26.2500 1114.0000 1.0000
26.2600 1164.0000 1.0000
26.2700 1240.0000 1.0000
26.2800 1203.0000 1.0000
26.2900 1244.0000 1.0000
26.3000 1282.0000 1.0000
26.3100 1344.0000 1.0000
26.3200 1406.0000 1.0000
26.3300 1427.0000 1.0000
26.3400 1500.0000 1.0000
26.3500 1619.0000 1.0000
26.3600 1679.0000 1.0000
26.3700 1663.0000 1.0000
26.3800 1796.0000 1.0000
26.3900 1902.0000 1.0000
26.4000 2068.0000 1.0000
26.4100 2159.0000 1.0000
26.4200 2310.0000 1.0000
26.4300 2475.0000 1.0000
26.4400 2508.0000 1.0000
26.4500 2672.0000 1.0000
26.4600 2764.0000 1.0000
26.4700 2853.0000 1.0000
26.4800 2839.0000 1.0000
26.4900 2864.0000 1.0000
26.5000 2859.0000 1.0000
26.5100 2738.0000 1.0000
26.5200 2691.0000 1.0000
26.5300 2637.0000 1.0000
26.5400 2628.0000 1.0000
26.5500 2395.0000 1.0000
26.5600 2360.0000 1.0000
26.5700 2251.0000 1.0000
26.5800 2117.0000 1.0000
26.5900 1959.0000 1.0000
26.6000 1870.0000 1.0000
26.6100 1798.0000 1.0000
26.6200 1764.0000 1.0000
26.6300 1595.0000 1.0000
26.6400 1504.0000 1.0000
26.6500 1514.0000 1.0000
26.6600 1425.0000 1.0000
26.6700 1361.0000 1.0000
26.6800 1330.0000 1.0000
26.6900 1245.0000 1.0000
26.7000 1207.0000 1.0000
26.7100 1155.0000 1.0000
26.7200 1145.0000 1.0000
26.7300 1150.0000 1.0000
26.7400 1135.0000 1.0000
26.7500 1078.0000 1.0000
26.7600 1052.0000 1.0000
26.7700 1044.0000 1.0000
26.7800 1034.0000 1.0000
26.7900 953.0000 1.0000
26.8000 1035.0000 1.0000
26.8100 964.0000 1.0000
26.8200 941.0000 1.0000
26.8300 908.0000 1.0000
26.8400 915.0000 1.0000
26.8500 881.0000 1.0000
26.8600 926.0000 1.0000
26.8700 894.0000 1.0000
26.8800 882.0000 1.0000
26.8900 887.0000 1.0000
26.9000 892.0000 1.0000
26.9100 875.0000 1.0000
26.9200 904.0000 1.0000
26.9300 899.0000 1.0000
26.9400 836.0000 1.0000
26.9500 823.0000 1.0000
26.9600 796.0000 1.0000
26.9700 798.0000 1.0000
26.9800 804.0000 1.0000
26.9900 804.0000 1.0000
27.0000 791.0000 1.0000
27.0100 820.0000 1.0000
27.0200 814.0000 1.0000
27.0300 762.0000 1.0000
27.0400 768.0000 1.0000
27.0500 823.0000 1.0000
27.0600 742.0000 1.0000
27.0700 799.0000 1.0000
27.0800 799.0000 1.0000
27.0900 744.0000 1.0000
27.1000 811.0000 1.0000
27.1100 759.0000 1.0000
27.1200 733.0000 1.0000
27.1300 756.0000 1.0000
27.1400 738.0000 1.0000
27.1500 786.0000 1.0000
27.1600 765.0000 1.0000
27.1700 759.0000 1.0000
27.1800 744.0000 1.0000
27.1900 775.0000 1.0000
27.2000 761.0000 1.0000
27.2100 760.0000 1.0000
27.2200 779.0000 1.0000
27.2300 773.0000 1.0000
27.2400 769.0000 1.0000
27.2500 727.0000 1.0000
27.2600 732.0000 1.0000
27.2700 745.0000 1.0000
27.2800 771.0000 1.0000
27.2900 778.0000 1.0000
27.3000 788.0000 1.0000
27.3100 768.0000 1.0000
27.3200 741.0000 1.0000
27.3300 816.0000 1.0000
27.3400 745.0000 1.0000
27.3500 722.0000 1.0000
27.3600 702.0000 1.0000
27.3700 735.0000 1.0000
27.3800 733.0000 1.0000
27.3900 771.0000 1.0000
27.4000 726.0000 1.0000
27.4100 747.0000 1.0000
27.4200 701.0000 1.0000
27.4300 756.0000 1.0000
27.4400 772.0000 1.0000
27.4500 767.0000 1.0000
27.4600 720.0000 1.0000
27.4700 685.0000 1.0000
27.4800 708.0000 1.0000
27.4900 748.0000 1.0000
27.5000 704.0000 1.0000
27.5100 708.0000 1.0000
27.5200 691.0000 1.0000
27.5300 711.0000 1.0000
27.5400 713.0000 1.0000
27.5500 689.0000 1.0000
27.5600 708.0000 1.0000
27.5700 739.0000 1.0000
27.5800 726.0000 1.0000
27.5900 719.0000 1.0000
27.6000 737.0000 1.0000
27.6100 687.0000 1.0000
27.6200 734.0000 1.0000
27.6300 700.0000 1.0000
27.6400 703.0000 1.0000
27.6500 702.0000 1.0000
27.6600 678.0000 1.0000
27.6700 709.0000 1.0000
27.6800 717.0000 1.0000
27.6900 730.0000 1.0000
27.7000 720.0000 1.0000
27.7100 700.0000 1.0000
27.7200 680.0000 1.0000
27.7300 717.0000 1.0000
27.7400 699.0000 1.0000
27.7500 704.0000 1.0000
27.7600 660.0000 1.0000
27.7700 699.0000 1.0000
27.7800 693.0000 1.0000
27.7900 740.0000 1.0000
27.8000 709.0000 1.0000
27.8100 715.0000 1.0000
27.8200 706.0000 1.0000
27.8300 694.0000 1.0000
27.8400 673.0000 1.0000
27.8500 707.0000 1.0000
27.8600 740.0000 1.0000
27.8700 768.0000 1.0000
27.8800 736.0000 1.0000
27.8900 694.0000 1.0000
27.9000 674.0000 1.0000
27.9100 733.0000 1.0000
27.9200 693.0000 1.0000
27.9300 689.0000 1.0000
27.9400 680.0000 1.0000
27.9500 733.0000 1.0000
27.9600 704.0000 1.0000
27.9700 704.0000 1.0000
27.9800 699.0000 1.0000
27.9900 696.0000 1.0000
28.0000 681.0000 1.0000
28.0100 703.0000 1.0000
28.0200 697.0000 1.0000
28.0300 712.0000 1.0000
28.0400 712.0000 1.0000
28.0500 725.0000 1.0000
28.0600 716.0000 1.0000
28.0700 709.0000 1.0000
28.0800 717.0000 1.0000
28.0900 705.0000 1.0000
28.1000 709.0000 1.0000
28.1100 704.0000 1.0000
28.1200 681.0000 1.0000
28.1300 685.0000 1.0000
28.1400 701.0000 1.0000
28.1500 709.0000 1.0000
28.1600 682.0000 1.0000
28.1700 710.0000 1.0000
28.1800 688.0000 1.0000
28.1900 690.0000 1.0000
28.2000 697.0000 1.0000
28.2100 724.0000 1.0000
28.2200 755.0000 1.0000
28.2300 713.0000 1.0000
28.2400 685.0000 1.0000
28.2500 676.0000 1.0000
28.2600 685.0000 1.0000
28.2700 694.0000 1.0000
28.2800 684.0000 1.0000
28.2900 668.0000 1.0000
28.3000 661.0000 1.0000
28.3100 672.0000 1.0000
28.3200 707.0000 1.0000
28.3300 688.0000 1.0000
28.3400 672.0000 1.0000
28.3500 660.0000 1.0000
28.3600 669.0000 1.0000
28.3700 629.0000 1.0000
28.3800 709.0000 1.0000
28.3900 676.0000 1.0000
28.4000 691.0000 1.0000
28.4100 709.0000 1.0000
28.4200 710.0000 1.0000
28.4300 644.0000 1.0000
28.4400 659.0000 1.0000
28.4500 699.0000 1.0000
28.4600 697.0000 1.0000
28.4700 681.0000 1.0000
28.4800 655.0000 1.0000
28.4900 730.0000 1.0000
28.5000 689.0000 1.0000
28.5100 693.0000 1.0000
28.5200 694.0000 1.0000
28.5300 698.0000 1.0000
28.5400 686.0000 1.0000
28.5500 673.0000 1.0000
28.5600 667.0000 1.0000
28.5700 675.0000 1.0000
28.5800 647.0000 1.0000
28.5900 681.0000 1.0000
28.6000 718.0000 1.0000
28.6100 682.0000 1.0000
28.6200 648.0000 1.0000
28.6300 693.0000 1.0000
28.6400 687.0000 1.0000
28.6500 676.0000 1.0000
28.6600 662.0000 1.0000
28.6700 677.0000 1.0000
28.6800 648.0000 1.0000
28.6900 693.0000 1.0000
28.7000 683.0000 1.0000
28.7100 701.0000 1.0000
28.7200 664.0000 1.0000
28.7300 669.0000 1.0000
28.7400 692.0000 1.0000
28.7500 688.0000 1.0000
28.7600 716.0000 1.0000
28.7700 688.0000 1.0000
28.7800 701.0000 1.0000
28.7900 663.0000 1.0000
28.8000 695.0000 1.0000
28.8100 710.0000 1.0000
28.8200 697.0000 1.0000
28.8300 679.0000 1.0000
28.8400 691.0000 1.0000
28.8500 673.0000 1.0000
28.8600 704.0000 1.0000
28.8700 685.0000 1.0000
28.8800 681.0000 1.0000
28.8900 681.0000 1.0000
28.9000 681.0000 1.0000
28.9100 677.0000 1.0000
28.9200 645.0000 1.0000
28.9300 633.0000 1.0000
28.9400 673.0000 1.0000
28.9500 695.0000 1.0000
28.9600 654.0000 1.0000
28.9700 645.0000 1.0000
28.9800 635.0000 1.0000
28.9900 652.0000 1.0000
29.0000 680.0000 1.0000
29.0100 659.0000 1.0000
29.0200 687.0000 1.0000
29.0300 657.0000 1.0000
29.0400 697.0000 1.0000
29.0500 685.0000 1.0000
29.0600 647.0000 1.0000
29.0700 646.0000 1.0000
29.0800 668.0000 1.0000
29.0900 711.0000 1.0000
29.1000 666.0000 1.0000
29.1100 657.0000 1.0000
29.1200 653.0000 1.0000
29.1300 676.0000 1.0000
29.1400 650.0000 1.0000
29.1500 616.0000 1.0000
29.1600 592.0000 1.0000
29.1700 653.0000 1.0000
29.1800 670.0000 1.0000
29.1900 625.0000 1.0000
29.2000 653.0000 1.0000
29.2100 674.0000 1.0000
29.2200 619.0000 1.0000
29.2300 636.0000 1.0000
29.2400 644.0000 1.0000
29.2500 673.0000 1.0000
29.2600 671.0000 1.0000
29.2700 685.0000 1.0000
29.2800 616.0000 1.0000
29.2900 593.0000 1.0000
29.3000 643.0000 1.0000
29.3100 686.0000 1.0000
29.3200 656.0000 1.0000
29.3300 643.0000 1.0000
29.3400 637.0000 1.0000
29.3500 629.0000 1.0000
29.3600 660.0000 1.0000
29.3700 645.0000 1.0000
29.3800 655.0000 1.0000
29.3900 659.0000 1.0000
29.4000 669.0000 1.0000
29.4100 664.0000 1.0000
29.4200 687.0000 1.0000
29.4300 659.0000 1.0000
29.4400 640.0000 1.0000
29.4500 651.0000 1.0000
29.4600 622.0000 1.0000
29.4700 644.0000 1.0000
29.4800 624.0000 1.0000
29.4900 675.0000 1.0000
29.5000 665.0000 1.0000
29.5100 674.0000 1.0000
29.5200 636.0000 1.0000
29.5300 653.0000 1.0000
29.5400 671.0000 1.0000
29.5500 627.0000 1.0000
29.5600 637.0000 1.0000
29.5700 640.0000 1.0000
29.5800 684.0000 1.0000
29.5900 662.0000 1.0000
29.6000 656.0000 1.0000
29.6100 672.0000 1.0000
29.6200 653.0000 1.0000
29.6300 649.0000 1.0000
29.6400 670.0000 1.0000
29.6500 681.0000 1.0000
29.6600 661.0000 1.0000
29.6700 626.0000 1.0000
29.6800 623.0000 1.0000
29.6900 611.0000 1.0000
29.7000 618.0000 1.0000
29.7100 651.0000 1.0000
29.7200 643.0000 1.0000
29.7300 646.0000 1.0000
29.7400 659.0000 1.0000
29.7500 651.0000 1.0000
29.7600 638.0000 1.0000
29.7700 666.0000 1.0000
29.7800 618.0000 1.0000
29.7900 638.0000 1.0000
29.8000 669.0000 1.0000
29.8100 661.0000 1.0000
29.8200 656.0000 1.0000
29.8300 643.0000 1.0000
29.8400 653.0000 1.0000
29.8500 629.0000 1.0000
29.8600 633.0000 1.0000
29.8700 638.0000 1.0000
29.8800 592.0000 1.0000
29.8900 602.0000 1.0000
29.9000 626.0000 1.0000
29.9100 619.0000 1.0000
29.9200 598.0000 1.0000
29.9300 602.0000 1.0000
29.9400 645.0000 1.0000
29.9500 618.0000 1.0000
29.9600 641.0000 1.0000
29.9700 639.0000 1.0000
29.9800 659.0000 1.0000
29.9900 583.0000 1.0000
30.0000 585.0000 1.0000
30.0100 622.0000 1.0000
30.0200 641.0000 1.0000
30.0300 641.0000 1.0000
30.0400 652.0000 1.0000
30.0500 611.0000 1.0000
30.0600 619.0000 1.0000
30.0700 654.0000 1.0000
30.0800 648.0000 1.0000
30.0900 601.0000 1.0000
30.1000 573.0000 1.0000
30.1100 581.0000 1.0000
30.1200 626.0000 1.0000
30.1300 630.0000 1.0000
30.1400 614.0000 1.0000
30.1500 635.0000 1.0000
30.1600 638.0000 1.0000
30.1700 602.0000 1.0000
30.1800 621.0000 1.0000
30.1900 624.0000 1.0000
30.2000 662.0000 1.0000
30.2100 634.0000 1.0000
30.2200 650.0000 1.0000
30.2300 592.0000 1.0000
30.2400 599.0000 1.0000
30.2500 659.0000 1.0000
30.2600 649.0000 1.0000
30.2700 660.0000 1.0000
30.2800 647.0000 1.0000
30.2900 643.0000 1.0000
30.3000 627.0000 1.0000
30.3100 651.0000 1.0000
30.3200 633.0000 1.0000
30.3300 639.0000 1.0000
30.3400 634.0000 1.0000
30.3500 615.0000 1.0000
30.3600 660.0000 1.0000
30.3700 615.0000 1.0000
30.3800 600.0000 1.0000
30.3900 628.0000 1.0000
30.4000 655.0000 1.0000
30.4100 601.0000 1.0000
30.4200 612.0000 1.0000
30.4300 587.0000 1.0000
30.4400 584.0000 1.0000
30.4500 589.0000 1.0000
30.4600 607.0000 1.0000
30.4700 624.0000 1.0000
30.4800 614.0000 1.0000
30.4900 638.0000 1.0000
30.5000 637.0000 1.0000
30.5100 605.0000 1.0000
30.5200 616.0000 1.0000
30.5300 642.0000 1.0000
30.5400 622.0000 1.0000
30.5500 611.0000 1.0000
30.5600 620.0000 1.0000
30.5700 635.0000 1.0000
30.5800 608.0000 1.0000
30.5900 610.0000 1.0000
30.6000 608.0000 1.0000
30.6100 581.0000 1.0000
30.6200 612.0000 1.0000
30.6300 617.0000 1.0000
30.6400 589.0000 1.0000
30.6500 621.0000 1.0000
30.6600 623.0000 1.0000
30.6700 583.0000 1.0000
30.6800 608.0000 1.0000
30.6900 614.0000 1.0000
30.7000 602.0000 1.0000
30.7100 607.0000 1.0000
30.7200 592.0000 1.0000
30.7300 625.0000 1.0000
30.7400 606.0000 1.0000
30.7500 589.0000 1.0000
30.7600 618.0000 1.0000
30.7700 647.0000 1.0000
30.7800 613.0000 1.0000
30.7900 618.0000 1.0000
30.8000 597.0000 1.0000
30.8100 639.0000 1.0000
30.8200 606.0000 1.0000
30.8300 611.0000 1.0000
30.8400 608.0000 1.0000
30.8500 590.0000 1.0000
30.8600 622.0000 1.0000
30.8700 626.0000 1.0000
30.8800 599.0000 1.0000
30.8900 604.0000 1.0000
30.9000 608.0000 1.0000
30.9100 616.0000 1.0000
30.9200 600.0000 1.0000
30.9300 571.0000 1.0000
30.9400 643.0000 1.0000
30.9500 579.0000 1.0000
30.9600 591.0000 1.0000
30.9700 609.0000 1.0000
30.9800 604.0000 1.0000
30.9900 565.0000 1.0000
31.0000 622.0000 1.0000
31.0100 594.0000 1.0000
31.0200 573.0000 1.0000
31.0300 597.0000 1.0000
31.0400 628.0000 1.0000
31.0500 608.0000 1.0000
31.0600 630.0000 1.0000
31.0700 624.0000 1.0000
31.0800 628.0000 1.0000
31.0900 645.0000 1.0000
31.1000 588.0000 1.0000
31.1100 626.0000 1.0000
31.1200 602.0000 1.0000
31.1300 623.0000 1.0000
31.1400 626.0000 1.0000
31.1500 611.0000 1.0000
31.1600 639.0000 1.0000
31.1700 672.0000 1.0000
31.1800 626.0000 1.0000
31.1900 633.0000 1.0000
31.2000 598.0000 1.0000
31.2100 651.0000 1.0000
31.2200 639.0000 1.0000
31.2300 635.0000 1.0000
31.2400 596.0000 1.0000
31.2500 595.0000 1.0000
31.2600 620.0000 1.0000
31.2700 609.0000 1.0000
31.2800 603.0000 1.0000
31.2900 562.0000 1.0000
31.3000 563.0000 1.0000
31.3100 595.0000 1.0000
31.3200 613.0000 1.0000
31.3300 627.0000 1.0000
31.3400 674.0000 1.0000
31.3500 591.0000 1.0000
31.3600 594.0000 1.0000
31.3700 576.0000 1.0000
31.3800 617.0000 1.0000
31.3900 597.0000 1.0000
31.4000 593.0000 1.0000
31.4100 607.0000 1.0000
31.4200 624.0000 1.0000
31.4300 587.0000 1.0000
31.4400 593.0000 1.0000
31.4500 588.0000 1.0000
31.4600 601.0000 1.0000
31.4700 597.0000 1.0000
31.4800 613.0000 1.0000
31.4900 606.0000 1.0000
31.5000 574.0000 1.0000
31.5100 602.0000 1.0000
31.5200 604.0000 1.0000
31.5300 606.0000 1.0000
31.5400 586.0000 1.0000
31.5500 605.0000 1.0000
31.5600 587.0000 1.0000
31.5700 602.0000 1.0000
31.5800 610.0000 1.0000
31.5900 603.0000 1.0000
31.6000 633.0000 1.0000
31.6100 606.0000 1.0000
31.6200 600.0000 1.0000
31.6300 580.0000 1.0000
31.6400 571.0000 1.0000
31.6500 596.0000 1.0000
31.6600 554.0000 1.0000
31.6700 580.0000 1.0000
31.6800 595.0000 1.0000
31.6900 564.0000 1.0000
31.7000 595.0000 1.0000
31.7100 610.0000 1.0000
31.7200 573.0000 1.0000
31.7300 583.0000 1.0000
31.7400 590.0000 1.0000
31.7500 602.0000 1.0000
31.7600 615.0000 1.0000
31.7700 585.0000 1.0000
31.7800 573.0000 1.0000
31.7900 581.0000 1.0000
31.8000 573.0000 1.0000
31.8100 583.0000 1.0000
31.8200 594.0000 1.0000
31.8300 614.0000 1.0000
31.8400 560.0000 1.0000
31.8500 561.0000 1.0000
31.8600 556.0000 1.0000
31.8700 583.0000 1.0000
31.8800 612.0000 1.0000
31.8900 609.0000 1.0000
31.9000 567.0000 1.0000
31.9100 588.0000 1.0000
31.9200 546.0000 1.0000
31.9300 556.0000 1.0000
31.9400 568.0000 1.0000
31.9500 601.0000 1.0000
31.9600 598.0000 1.0000
31.9700 577.0000 1.0000
31.9800 586.0000 1.0000
31.9900 562.0000 1.0000
32.0000 565.0000 1.0000
32.0100 528.0000 1.0000
32.0200 577.0000 1.0000
32.0300 615.0000 1.0000
32.0400 614.0000 1.0000
32.0500 579.0000 1.0000
32.0600 562.0000 1.0000
32.0700 563.0000 1.0000
32.0800 606.0000 1.0000
32.0900 576.0000 1.0000
32.1000 586.0000 1.0000
32.1100 586.0000 1.0000
32.1200 597.0000 1.0000
32.1300 572.0000 1.0000
32.1400 544.0000 1.0000
32.1500 566.0000 1.0000
32.1600 553.0000 1.0000
32.1700 568.0000 1.0000
32.1800 574.0000 1.0000
32.1900 560.0000 1.0000
32.2000 567.0000 1.0000
32.2100 569.0000 1.0000
32.2200 574.0000 1.0000
32.2300 586.0000 1.0000
32.2400 549.0000 1.0000
32.2500 535.0000 1.0000
32.2600 542.0000 1.0000
32.2700 569.0000 1.0000
32.2800 587.0000 1.0000
32.2900 562.0000 1.0000
32.3000 525.0000 1.0000
32.3100 563.0000 1.0000
32.3200 556.0000 1.0000
32.3300 595.0000 1.0000
32.3400 578.0000 1.0000
32.3500 558.0000 1.0000
32.3600 537.0000 1.0000
32.3700 544.0000 1.0000
32.3800 557.0000 1.0000
32.3900 564.0000 1.0000
32.4000 558.0000 1.0000
32.4100 556.0000 1.0000
32.4200 540.0000 1.0000
32.4300 598.0000 1.0000
32.4400 592.0000 1.0000
32.4500 571.0000 1.0000
32.4600 555.0000 1.0000
32.4700 566.0000 1.0000
32.4800 581.0000 1.0000
32.4900 559.0000 1.0000
32.5000 579.0000 1.0000
32.5100 585.0000 1.0000
32.5200 599.0000 1.0000
32.5300 558.0000 1.0000
32.5400 566.0000 1.0000
32.5500 577.0000 1.0000
32.5600 574.0000 1.0000
32.5700 578.0000 1.0000
32.5800 581.0000 1.0000
32.5900 574.0000 1.0000
32.6000 546.0000 1.0000
32.6100 573.0000 1.0000
32.6200 600.0000 1.0000
32.6300 576.0000 1.0000
32.6400 585.0000 1.0000
32.6500 597.0000 1.0000
32.6600 585.0000 1.0000
32.6700 536.0000 1.0000
32.6800 573.0000 1.0000
32.6900 554.0000 1.0000
32.7000 521.0000 1.0000
32.7100 577.0000 1.0000
32.7200 591.0000 1.0000
32.7300 583.0000 1.0000
32.7400 594.0000 1.0000
32.7500 580.0000 1.0000
32.7600 557.0000 1.0000
32.7700 575.0000 1.0000
32.7800 541.0000 1.0000
32.7900 545.0000 1.0000
32.8000 558.0000 1.0000
32.8100 590.0000 1.0000
32.8200 568.0000 1.0000
32.8300 576.0000 1.0000
32.8400 578.0000 1.0000
32.8500 595.0000 1.0000
32.8600 607.0000 1.0000
32.8700 564.0000 1.0000
32.8800 600.0000 1.0000
32.8900 586.0000 1.0000
32.9000 561.0000 1.0000
32.9100 578.0000 1.0000
32.9200 612.0000 1.0000
32.9300 563.0000 1.0000
32.9400 605.0000 1.0000
32.9500 592.0000 1.0000
32.9600 638.0000 1.0000
32.9700 603.0000 1.0000
32.9800 630.0000 1.0000
32.9900 607.0000 1.0000
33.0000 595.0000 1.0000
33.0100 581.0000 1.0000
33.0200 630.0000 1.0000
33.0300 624.0000 1.0000
33.0400 615.0000 1.0000
33.0500 623.0000 1.0000
33.0600 666.0000 1.0000
33.0700 653.0000 1.0000
33.0800 670.0000 1.0000
33.0900 713.0000 1.0000
33.1000 730.0000 1.0000
33.1100 704.0000 1.0000
33.1200 717.0000 1.0000
33.1300 741.0000 1.0000
33.1400 731.0000 1.0000
33.1500 722.0000 1.0000
33.1600 715.0000 1.0000
33.1700 728.0000 1.0000
33.1800 728.0000 1.0000
33.1900 684.0000 1.0000
33.2000 674.0000 1.0000
33.2100 702.0000 1.0000
33.2200 715.0000 1.0000
33.2300 711.0000 1.0000
33.2400 666.0000 1.0000
33.2500 672.0000 1.0000
33.2600 656.0000 1.0000
33.2700 606.0000 1.0000
33.2800 658.0000 1.0000
33.2900 662.0000 1.0000
33.3000 634.0000 1.0000
33.3100 674.0000 1.0000
33.3200 623.0000 1.0000
33.3300 635.0000 1.0000
33.3400 625.0000 1.0000
33.3500 624.0000 1.0000
33.3600 671.0000 1.0000
33.3700 654.0000 1.0000
33.3800 579.0000 1.0000
33.3900 578.0000 1.0000
33.4000 640.0000 1.0000
33.4100 656.0000 1.0000
33.4200 637.0000 1.0000
33.4300 685.0000 1.0000
33.4400 666.0000 1.0000
33.4500 646.0000 1.0000
33.4600 706.0000 1.0000
33.4700 737.0000 1.0000
33.4800 717.0000 1.0000
33.4900 719.0000 1.0000
33.5000 737.0000 1.0000
33.5100 736.0000 1.0000
33.5200 804.0000 1.0000
33.5300 826.0000 1.0000
33.5400 842.0000 1.0000
33.5500 875.0000 1.0000
33.5600 896.0000 1.0000
33.5700 922.0000 1.0000
33.5800 943.0000 1.0000
33.5900 977.0000 1.0000
33.6000 1010.0000 1.0000
33.6100 1038.0000 1.0000
33.6200 1113.0000 1.0000
33.6300 1165.0000 1.0000
33.6400 1209.0000 1.0000
33.6500 1294.0000 1.0000
33.6600 1263.0000 1.0000
33.6700 1344.0000 1.0000
33.6800 1361.0000 1.0000
33.6900 1364.0000 1.0000
33.7000 1370.0000 1.0000
33.7100 1391.0000 1.0000
33.7200 1339.0000 1.0000
33.7300 1310.0000 1.0000
33.7400 1295.0000 1.0000
33.7500 1272.0000 1.0000
33.7600 1233.0000 1.0000
33.7700 1240.0000 1.0000
33.7800 1129.0000 1.0000
33.7900 1138.0000 1.0000
33.8000 1096.0000 1.0000
33.8100 1041.0000 1.0000
33.8200 1035.0000 1.0000
33.8300 963.0000 1.0000
33.8400 894.0000 1.0000
33.8500 908.0000 1.0000
33.8600 870.0000 1.0000
33.8700 767.0000 1.0000
33.8800 754.0000 1.0000
33.8900 798.0000 1.0000
33.9000 774.0000 1.0000
33.9100 730.0000 1.0000
33.9200 752.0000 1.0000
33.9300 727.0000 1.0000
33.9400 680.0000 1.0000
33.9500 720.0000 1.0000
33.9600 675.0000 1.0000
33.9700 666.0000 1.0000
33.9800 680.0000 1.0000
33.9900 661.0000 1.0000
34.0000 608.0000 1.0000
34.0100 667.0000 1.0000
34.0200 595.0000 1.0000
34.0300 597.0000 1.0000
34.0400 625.0000 1.0000
34.0500 600.0000 1.0000
34.0600 603.0000 1.0000
34.0700 624.0000 1.0000
34.0800 605.0000 1.0000
34.0900 619.0000 1.0000
34.1000 562.0000 1.0000
34.1100 556.0000 1.0000
34.1200 566.0000 1.0000
34.1300 576.0000 1.0000
34.1400 590.0000 1.0000
34.1500 566.0000 1.0000
34.1600 552.0000 1.0000
34.1700 543.0000 1.0000
34.1800 552.0000 1.0000
34.1900 563.0000 1.0000
34.2000 569.0000 1.0000
34.2100 591.0000 1.0000
34.2200 528.0000 1.0000
34.2300 563.0000 1.0000
34.2400 529.0000 1.0000
34.2500 523.0000 1.0000
34.2600 519.0000 1.0000
34.2700 566.0000 1.0000
34.2800 548.0000 1.0000
34.2900 533.0000 1.0000
34.3000 551.0000 1.0000
34.3100 532.0000 1.0000
34.3200 521.0000 1.0000
34.3300 525.0000 1.0000
34.3400 544.0000 1.0000
34.3500 534.0000 1.0000
34.3600 504.0000 1.0000
34.3700 511.0000 1.0000
34.3800 536.0000 1.0000
34.3900 543.0000 1.0000
34.4000 482.0000 1.0000
34.4100 519.0000 1.0000
34.4200 504.0000 1.0000
34.4300 523.0000 1.0000
34.4400 508.0000 1.0000
34.4500 529.0000 1.0000
34.4600 507.0000 1.0000
34.4700 503.0000 1.0000
34.4800 521.0000 1.0000
34.4900 496.0000 1.0000
34.5000 491.0000 1.0000
34.5100 508.0000 1.0000
34.5200 503.0000 1.0000
34.5300 505.0000 1.0000
34.5400 527.0000 1.0000
34.5500 527.0000 1.0000
34.5600 516.0000 1.0000
34.5700 523.0000 1.0000
34.5800 503.0000 1.0000
34.5900 518.0000 1.0000
34.6000 539.0000 1.0000
34.6100 486.0000 1.0000
34.6200 504.0000 1.0000
34.6300 499.0000 1.0000
34.6400 499.0000 1.0000
34.6500 494.0000 1.0000
34.6600 534.0000 1.0000
34.6700 506.0000 1.0000
34.6800 489.0000 1.0000
34.6900 501.0000 1.0000
34.7000 523.0000 1.0000
34.7100 523.0000 1.0000
34.7200 508.0000 1.0000
34.7300 491.0000 1.0000
34.7400 475.0000 1.0000
34.7500 511.0000 1.0000
34.7600 512.0000 1.0000
34.7700 511.0000 1.0000
34.7800 492.0000 1.0000
34.7900 468.0000 1.0000
34.8000 515.0000 1.0000
34.8100 496.0000 1.0000
34.8200 528.0000 1.0000
34.8300 499.0000 1.0000
34.8400 493.0000 1.0000
34.8500 506.0000 1.0000
34.8600 474.0000 1.0000
34.8700 462.0000 1.0000
34.8800 475.0000 1.0000
34.8900 520.0000 1.0000
34.9000 449.0000 1.0000
34.9100 504.0000 1.0000
34.9200 533.0000 1.0000
34.9300 453.0000 1.0000
34.9400 498.0000 1.0000
34.9500 508.0000 1.0000
34.9600 520.0000 1.0000
34.9700 517.0000 1.0000
34.9800 484.0000 1.0000
34.9900 475.0000 1.0000
35.0000 509.0000 1.0000
35.0100 476.0000 1.0000
35.0200 474.0000 1.0000
35.0300 511.0000 1.0000
35.0400 504.0000 1.0000
35.0500 467.0000 1.0000
35.0600 480.0000 1.0000
35.0700 492.0000 1.0000
35.0800 521.0000 1.0000
35.0900 495.0000 1.0000
35.1000 486.0000 1.0000
35.1100 527.0000 1.0000
35.1200 474.0000 1.0000
35.1300 503.0000 1.0000
35.1400 465.0000 1.0000
35.1500 492.0000 1.0000
35.1600 507.0000 1.0000
35.1700 492.0000 1.0000
35.1800 503.0000 1.0000
35.1900 496.0000 1.0000
35.2000 449.0000 1.0000
35.2100 479.0000 1.0000
35.2200 475.0000 1.0000
35.2300 476.0000 1.0000
35.2400 447.0000 1.0000
35.2500 471.0000 1.0000
35.2600 518.0000 1.0000
35.2700 488.0000 1.0000
35.2800 503.0000 1.0000
35.2900 468.0000 1.0000
35.3000 540.0000 1.0000
35.3100 497.0000 1.0000
35.3200 520.0000 1.0000
35.3300 519.0000 1.0000
35.3400 522.0000 1.0000
35.3500 494.0000 1.0000
35.3600 486.0000 1.0000
35.3700 480.0000 1.0000
35.3800 523.0000 1.0000
35.3900 542.0000 1.0000
35.4000 556.0000 1.0000
35.4100 552.0000 1.0000
35.4200 536.0000 1.0000
35.4300 558.0000 1.0000
35.4400 581.0000 1.0000
35.4500 564.0000 1.0000
35.4600 578.0000 1.0000
35.4700 579.0000 1.0000
35.4800 599.0000 1.0000
35.4900 634.0000 1.0000
35.5000 617.0000 1.0000
35.5100 683.0000 1.0000
35.5200 714.0000 1.0000
35.5300 711.0000 1.0000
35.5400 737.0000 1.0000
35.5500 759.0000 1.0000
35.5600 796.0000 1.0000
35.5700 841.0000 1.0000
35.5800 904.0000 1.0000
35.5900 912.0000 1.0000
35.6000 932.0000 1.0000
35.6100 992.0000 1.0000
35.6200 929.0000 1.0000
35.6300 939.0000 1.0000
35.6400 909.0000 1.0000
35.6500 904.0000 1.0000
35.6600 864.0000 1.0000
35.6700 876.0000 1.0000
35.6800 856.0000 1.0000
35.6900 799.0000 1.0000
35.7000 765.0000 1.0000
35.7100 800.0000 1.0000
35.7200 735.0000 1.0000
35.7300 720.0000 1.0000
35.7400 679.0000 1.0000
35.7500 647.0000 1.0000
35.7600 614.0000 1.0000
35.7700 627.0000 1.0000
35.7800 588.0000 1.0000
35.7900 537.0000 1.0000
35.8000 518.0000 1.0000
35.8100 508.0000 1.0000
35.8200 515.0000 1.0000
35.8300 546.0000 1.0000
35.8400 531.0000 1.0000
35.8500 517.0000 1.0000
35.8600 490.0000 1.0000
35.8700 521.0000 1.0000
35.8800 496.0000 1.0000
35.8900 490.0000 1.0000
35.9000 473.0000 1.0000
35.9100 475.0000 1.0000
35.9200 507.0000 1.0000
35.9300 447.0000 1.0000
35.9400 469.0000 1.0000
35.9500 476.0000 1.0000
35.9600 482.0000 1.0000
35.9700 491.0000 1.0000
35.9800 483.0000 1.0000
35.9900 453.0000 1.0000
36.0000 469.0000 1.0000
36.0100 450.0000 1.0000
36.0200 501.0000 1.0000
36.0300 482.0000 1.0000
36.0400 480.0000 1.0000
36.0500 448.0000 1.0000
36.0600 464.0000 1.0000
36.0700 429.0000 1.0000
36.0800 463.0000 1.0000
36.0900 479.0000 1.0000
36.1000 457.0000 1.0000
36.1100 454.0000 1.0000
36.1200 459.0000 1.0000
36.1300 469.0000 1.0000
36.1400 493.0000 1.0000
36.1500 450.0000 1.0000
36.1600 461.0000 1.0000
36.1700 492.0000 1.0000
36.1800 477.0000 1.0000
36.1900 459.0000 1.0000
36.2000 435.0000 1.0000
36.2100 453.0000 1.0000
36.2200 455.0000 1.0000
36.2300 492.0000 1.0000
36.2400 456.0000 1.0000
36.2500 462.0000 1.0000
36.2600 416.0000 1.0000
36.2700 482.0000 1.0000
36.2800 489.0000 1.0000
36.2900 476.0000 1.0000
36.3000 433.0000 1.0000
36.3100 445.0000 1.0000
36.3200 465.0000 1.0000
36.3300 420.0000 1.0000
36.3400 452.0000 1.0000
36.3500 473.0000 1.0000
36.3600 424.0000 1.0000
36.3700 433.0000 1.0000
36.3800 446.0000 1.0000
36.3900 435.0000 1.0000
36.4000 413.0000 1.0000
36.4100 477.0000 1.0000
36.4200 449.0000 1.0000
36.4300 440.0000 1.0000
36.4400 453.0000 1.0000
36.4500 430.0000 1.0000
36.4600 440.0000 1.0000
36.4700 430.0000 1.0000
36.4800 461.0000 1.0000
36.4900 455.0000 1.0000
36.5000 504.0000 1.0000
36.5100 439.0000 1.0000
36.5200 465.0000 1.0000
36.5300 464.0000 1.0000
36.5400 456.0000 1.0000
36.5500 433.0000 1.0000
36.5600 438.0000 1.0000
36.5700 438.0000 1.0000
36.5800 419.0000 1.0000
36.5900 479.0000 1.0000
36.6000 477.0000 1.0000
36.6100 478.0000 1.0000
36.6200 432.0000 1.0000
36.6300 423.0000 1.0000
36.6400 449.0000 1.0000
36.6500 452.0000 1.0000
36.6600 484.0000 1.0000
36.6700 490.0000 1.0000
36.6800 456.0000 1.0000
36.6900 469.0000 1.0000
36.7000 461.0000 1.0000
36.7100 410.0000 1.0000
36.7200 461.0000 1.0000
36.7300 478.0000 1.0000
36.7400 439.0000 1.0000
36.7500 453.0000 1.0000
36.7600 452.0000 1.0000
36.7700 447.0000 1.0000
36.7800 440.0000 1.0000
36.7900 470.0000 1.0000
36.8000 474.0000 1.0000
36.8100 453.0000 1.0000
36.8200 439.0000 1.0000
36.8300 456.0000 1.0000
36.8400 469.0000 1.0000
36.8500 504.0000 1.0000
36.8600 465.0000 1.0000
36.8700 431.0000 1.0000
36.8800 466.0000 1.0000
36.8900 480.0000 1.0000
36.9000 432.0000 1.0000
36.9100 416.0000 1.0000
36.9200 467.0000 1.0000
36.9300 496.0000 1.0000
36.9400 444.0000 1.0000
36.9500 448.0000 1.0000
36.9600 486.0000 1.0000
36.9700 441.0000 1.0000
36.9800 432.0000 1.0000
36.9900 434.0000 1.0000
37.0000 481.0000 1.0000
37.0100 477.0000 1.0000
37.0200 454.0000 1.0000
37.0300 425.0000 1.0000
37.0400 459.0000 1.0000
37.0500 437.0000 1.0000
37.0600 428.0000 1.0000
37.0700 441.0000 1.0000
37.0800 473.0000 1.0000
37.0900 487.0000 1.0000
37.1000 426.0000 1.0000
37.1100 484.0000 1.0000
37.1200 497.0000 1.0000
37.1300 472.0000 1.0000
37.1400 455.0000 1.0000
37.1500 442.0000 1.0000
37.1600 450.0000 1.0000
37.1700 467.0000 1.0000
37.1800 456.0000 1.0000
37.1900 497.0000 1.0000
37.2000 473.0000 1.0000
37.2100 483.0000 1.0000
37.2200 477.0000 1.0000
37.2300 455.0000 1.0000
37.2400 483.0000 1.0000
37.2500 498.0000 1.0000
37.2600 479.0000 1.0000
37.2700 467.0000 1.0000
37.2800 483.0000 1.0000
37.2900 477.0000 1.0000
37.3000 510.0000 1.0000
37.3100 523.0000 1.0000
37.3200 465.0000 1.0000
37.3300 509.0000 1.0000
37.3400 525.0000 1.0000
37.3500 553.0000 1.0000
37.3600 502.0000 1.0000
37.3700 523.0000 1.0000
37.3800 514.0000 1.0000
37.3900 549.0000 1.0000
37.4000 552.0000 1.0000
37.4100 542.0000 1.0000
37.4200 584.0000 1.0000
37.4300 593.0000 1.0000
37.4400 588.0000 1.0000
37.4500 599.0000 1.0000
37.4600 608.0000 1.0000
37.4700 637.0000 1.0000
37.4800 688.0000 1.0000
37.4900 689.0000 1.0000
37.5000 716.0000 1.0000
37.5100 751.0000 1.0000
37.5200 765.0000 1.0000
37.5300 836.0000 1.0000
37.5400 836.0000 1.0000
37.5500 909.0000 1.0000
37.5600 895.0000 1.0000
37.5700 978.0000 1.0000
37.5800 1072.0000 1.0000
37.5900 1125.0000 1.0000
37.6000 1213.0000 1.0000
37.6100 1275.0000 1.0000
37.6200 1313.0000 1.0000
37.6300 1405.0000 1.0000
37.6400 1552.0000 1.0000
37.6500 1571.0000 1.0000
37.6600 1673.0000 1.0000
37.6700 1881.0000 1.0000
37.6800 1924.0000 1.0000
37.6900 2134.0000 1.0000
37.7000 2147.0000 1.0000
37.7100 2159.0000 1.0000
37.7200 2264.0000 1.0000
37.7300 2397.0000 1.0000
37.7400 2397.0000 1.0000
37.7500 2422.0000 1.0000
37.7600 2436.0000 1.0000
37.7700 2346.0000 1.0000
37.7800 2379.0000 1.0000
37.7900 2350.0000 1.0000
37.8000 2196.0000 1.0000
37.8100 2205.0000 1.0000
37.8200 2156.0000 1.0000
37.8300 2118.0000 1.0000
37.8400 1992.0000 1.0000
37.8500 1911.0000 1.0000
37.8600 1811.0000 1.0000
37.8700 1711.0000 1.0000
37.8800 1604.0000 1.0000
37.8900 1475.0000 1.0000
37.9000 1461.0000 1.0000
37.9100 1398.0000 1.0000
37.9200 1269.0000 1.0000
37.9300 1204.0000 1.0000
37.9400 1082.0000 1.0000
37.9500 1064.0000 1.0000
37.9600 986.0000 1.0000
37.9700 930.0000 1.0000
37.9800 896.0000 1.0000
37.9900 840.0000 1.0000
38.0000 818.0000 1.0000
38.0100 777.0000 1.0000
38.0200 740.0000 1.0000
38.0300 698.0000 1.0000
38.0400 692.0000 1.0000
38.0500 665.0000 1.0000
38.0600 656.0000 1.0000
38.0700 609.0000 1.0000
38.0800 573.0000 1.0000
38.0900 573.0000 1.0000
38.1000 531.0000 1.0000
38.1100 547.0000 1.0000
38.1200 526.0000 1.0000
38.1300 503.0000 1.0000
38.1400 517.0000 1.0000
38.1500 475.0000 1.0000
38.1600 493.0000 1.0000
38.1700 514.0000 1.0000
38.1800 459.0000 1.0000
38.1900 483.0000 1.0000
38.2000 463.0000 1.0000
38.2100 487.0000 1.0000
38.2200 469.0000 1.0000
38.2300 454.0000 1.0000
38.2400 452.0000 1.0000
38.2500 454.0000 1.0000
38.2600 434.0000 1.0000
38.2700 423.0000 1.0000
38.2800 482.0000 1.0000
38.2900 459.0000 1.0000
38.3000 470.0000 1.0000
38.3100 420.0000 1.0000
38.3200 427.0000 1.0000
38.3300 415.0000 1.0000
38.3400 413.0000 1.0000
38.3500 425.0000 1.0000
38.3600 411.0000 1.0000
38.3700 401.0000 1.0000
38.3800 434.0000 1.0000
38.3900 431.0000 1.0000
38.4000 431.0000 1.0000
38.4100 456.0000 1.0000
38.4200 410.0000 1.0000
38.4300 406.0000 1.0000
38.4400 361.0000 1.0000
38.4500 403.0000 1.0000
38.4600 398.0000 1.0000
38.4700 422.0000 1.0000
38.4800 437.0000 1.0000
38.4900 419.0000 1.0000
38.5000 449.0000 1.0000
38.5100 411.0000 1.0000
38.5200 412.0000 1.0000
38.5300 420.0000 1.0000
38.5400 446.0000 1.0000
38.5500 446.0000 1.0000
38.5600 433.0000 1.0000
38.5700 394.0000 1.0000
38.5800 424.0000 1.0000
38.5900 428.0000 1.0000
38.6000 418.0000 1.0000
38.6100 426.0000 1.0000
38.6200 387.0000 1.0000
38.6300 405.0000 1.0000
38.6400 409.0000 1.0000
38.6500 414.0000 1.0000
38.6600 405.0000 1.0000
38.6700 433.0000 1.0000
38.6800 452.0000 1.0000
38.6900 440.0000 1.0000
38.7000 429.0000 1.0000
38.7100 435.0000 1.0000
38.7200 433.0000 1.0000
38.7300 443.0000 1.0000
38.7400 468.0000 1.0000
38.7500 456.0000 1.0000
38.7600 444.0000 1.0000
38.7700 424.0000 1.0000
38.7800 417.0000 1.0000
38.7900 445.0000 1.0000
38.8000 429.0000 1.0000
38.8100 405.0000 1.0000
38.8200 429.0000 1.0000
38.8300 437.0000 1.0000
38.8400 421.0000 1.0000
38.8500 432.0000 1.0000
38.8600 415.0000 1.0000
38.8700 414.0000 1.0000
38.8800 438.0000 1.0000
38.8900 452.0000 1.0000
38.9000 416.0000 1.0000
38.9100 435.0000 1.0000
38.9200 438.0000 1.0000
38.9300 427.0000 1.0000
38.9400 397.0000 1.0000
38.9500 427.0000 1.0000
38.9600 419.0000 1.0000
38.9700 407.0000 1.0000
38.9800 408.0000 1.0000
38.9900 412.0000 1.0000
39.0000 399.0000 1.0000
39.0100 385.0000 1.0000
39.0200 397.0000 1.0000
39.0300 410.0000 1.0000
39.0400 392.0000 1.0000
39.0500 395.0000 1.0000
39.0600 399.0000 1.0000
39.0700 396.0000 1.0000
39.0800 418.0000 1.0000
39.0900 399.0000 1.0000
39.1000 397.0000 1.0000
39.1100 404.0000 1.0000
39.1200 431.0000 1.0000
39.1300 390.0000 1.0000
39.1400 367.0000 1.0000
39.1500 368.0000 1.0000
39.1600 387.0000 1.0000
39.1700 384.0000 1.0000
39.1800 384.0000 1.0000
39.1900 415.0000 1.0000
39.2000 405.0000 1.0000
39.2100 405.0000 1.0000
39.2200 383.0000 1.0000
39.2300 389.0000 1.0000
39.2400 348.0000 1.0000
39.2500 369.0000 1.0000
39.2600 396.0000 1.0000
39.2700 378.0000 1.0000
39.2800 368.0000 1.0000
39.2900 376.0000 1.0000
39.3000 377.0000 1.0000
39.3100 369.0000 1.0000
39.3200 358.0000 1.0000
39.3300 407.0000 1.0000
39.3400 406.0000 1.0000
39.3500 380.0000 1.0000
39.3600 375.0000 1.0000
39.3700 392.0000 1.0000
39.3800 390.0000 1.0000
39.3900 395.0000 1.0000
39.4000 417.0000 1.0000
39.4100 382.0000 1.0000
39.4200 416.0000 1.0000
39.4300 389.0000 1.0000
39.4400 403.0000 1.0000
39.4500 412.0000 1.0000
39.4600 381.0000 1.0000
39.4700 375.0000 1.0000
39.4800 352.0000 1.0000
39.4900 371.0000 1.0000
39.5000 367.0000 1.0000
39.5100 370.0000 1.0000
39.5200 381.0000 1.0000
39.5300 384.0000 1.0000
39.5400 399.0000 1.0000
39.5500 387.0000 1.0000
39.5600 386.0000 1.0000
39.5700 396.0000 1.0000
39.5800 389.0000 1.0000
39.5900 405.0000 1.0000
39.6000 378.0000 1.0000
39.6100 364.0000 1.0000
39.6200 365.0000 1.0000
39.6300 378.0000 1.0000
39.6400 411.0000 1.0000
39.6500 397.0000 1.0000
39.6600 375.0000 1.0000
39.6700 405.0000 1.0000
39.6800 395.0000 1.0000
39.6900 393.0000 1.0000
39.7000 361.0000 1.0000
39.7100 397.0000 1.0000
39.7200 392.0000 1.0000
39.7300 363.0000 1.0000
39.7400 378.0000 1.0000
39.7500 377.0000 1.0000
39.7600 369.0000 1.0000
39.7700 356.0000 1.0000
39.7800 345.0000 1.0000
39.7900 381.0000 1.0000
39.8000 363.0000 1.0000
39.8100 380.0000 1.0000
39.8200 385.0000 1.0000
39.8300 400.0000 1.0000
39.8400 373.0000 1.0000
39.8500 409.0000 1.0000
39.8600 372.0000 1.0000
39.8700 373.0000 1.0000
39.8800 385.0000 1.0000
39.8900 372.0000 1.0000
39.9000 408.0000 1.0000
39.9100 404.0000 1.0000
39.9200 377.0000 1.0000
39.9300 367.0000 1.0000
39.9400 380.0000 1.0000
39.9500 344.0000 1.0000
39.9600 351.0000 1.0000
39.9700 363.0000 1.0000
39.9800 348.0000 1.0000
39.9900 354.0000 1.0000
40.0000 365.0000 1.0000
40.0100 386.0000 1.0000
40.0200 364.0000 1.0000
40.0300 395.0000 1.0000
40.0400 387.0000 1.0000
40.0500 374.0000 1.0000
40.0600 384.0000 1.0000
40.0700 371.0000 1.0000
40.0800 402.0000 1.0000
40.0900 378.0000 1.0000
40.1000 405.0000 1.0000
40.1100 380.0000 1.0000
40.1200 380.0000 1.0000
40.1300 366.0000 1.0000
40.1400 381.0000 1.0000
40.1500 365.0000 1.0000
40.1600 365.0000 1.0000
40.1700 374.0000 1.0000
40.1800 366.0000 1.0000
40.1900 353.0000 1.0000
40.2000 355.0000 1.0000
40.2100 379.0000 1.0000
40.2200 370.0000 1.0000
40.2300 375.0000 1.0000
40.2400 376.0000 1.0000
40.2500 364.0000 1.0000
40.2600 355.0000 1.0000
40.2700 382.0000 1.0000
40.2800 393.0000 1.0000
40.2900 362.0000 1.0000
40.3000 356.0000 1.0000
40.3100 392.0000 1.0000
40.3200 381.0000 1.0000
40.3300 402.0000 1.0000
40.3400 387.0000 1.0000
40.3500 367.0000 1.0000
40.3600 358.0000 1.0000
40.3700 373.0000 1.0000
40.3800 364.0000 1.0000
40.3900 395.0000 1.0000
40.4000 413.0000 1.0000
40.4100 367.0000 1.0000
40.4200 355.0000 1.0000
40.4300 373.0000 1.0000
40.4400 355.0000 1.0000
40.4500 385.0000 1.0000
40.4600 393.0000 1.0000
40.4700 365.0000 1.0000
40.4800 397.0000 1.0000
40.4900 376.0000 1.0000
40.5000 376.0000 1.0000
40.5100 374.0000 1.0000
40.5200 357.0000 1.0000
40.5300 350.0000 1.0000
40.5400 360.0000 1.0000
40.5500 375.0000 1.0000
40.5600 346.0000 1.0000
40.5700 362.0000 1.0000
40.5800 365.0000 1.0000
40.5900 350.0000 1.0000
40.6000 366.0000 1.0000
40.6100 380.0000 1.0000
40.6200 386.0000 1.0000
40.6300 404.0000 1.0000
40.6400 372.0000 1.0000
40.6500 357.0000 1.0000
40.6600 410.0000 1.0000
40.6700 374.0000 1.0000
40.6800 366.0000 1.0000
40.6900 368.0000 1.0000
40.7000 392.0000 1.0000
40.7100 368.0000 1.0000
40.7200 358.0000 1.0000
40.7300 400.0000 1.0000
40.7400 392.0000 1.0000
40.7500 414.0000 1.0000
40.7600 388.0000 1.0000
40.7700 395.0000 1.0000
40.7800 397.0000 1.0000
40.7900 417.0000 1.0000
40.8000 397.0000 1.0000
40.8100 383.0000 1.0000
40.8200 402.0000 1.0000
40.8300 408.0000 1.0000
40.8400 404.0000 1.0000
40.8500 416.0000 1.0000
40.8600 394.0000 1.0000
40.8700 405.0000 1.0000
40.8800 393.0000 1.0000
40.8900 385.0000 1.0000
40.9000 394.0000 1.0000
40.9100 387.0000 1.0000
40.9200 394.0000 1.0000
40.9300 391.0000 1.0000
40.9400 391.0000 1.0000
40.9500 410.0000 1.0000
40.9600 394.0000 1.0000
40.9700 363.0000 1.0000
40.9800 344.0000 1.0000
40.9900 389.0000 1.0000
41.0000 392.0000 1.0000
41.0100 367.0000 1.0000
41.0200 373.0000 1.0000
41.0300 383.0000 1.0000
41.0400 387.0000 1.0000
41.0500 368.0000 1.0000
41.0600 350.0000 1.0000
41.0700 366.0000 1.0000
41.0800 380.0000 1.0000
41.0900 389.0000 1.0000
41.1000 359.0000 1.0000
41.1100 391.0000 1.0000
41.1200 377.0000 1.0000
41.1300 352.0000 1.0000
41.1400 365.0000 1.0000
41.1500 401.0000 1.0000
41.1600 401.0000 1.0000
41.1700 391.0000 1.0000
41.1800 344.0000 1.0000
41.1900 391.0000 1.0000
41.2000 401.0000 1.0000
41.2100 363.0000 1.0000
41.2200 340.0000 1.0000
41.2300 335.0000 1.0000
41.2400 359.0000 1.0000
41.2500 380.0000 1.0000
41.2600 340.0000 1.0000
41.2700 385.0000 1.0000
41.2800 354.0000 1.0000
41.2900 354.0000 1.0000
41.3000 361.0000 1.0000
41.3100 351.0000 1.0000
41.3200 387.0000 1.0000
41.3300 381.0000 1.0000
41.3400 411.0000 1.0000
41.3500 394.0000 1.0000
41.3600 340.0000 1.0000
41.3700 353.0000 1.0000
41.3800 369.0000 1.0000
41.3900 368.0000 1.0000
41.4000 357.0000 1.0000
41.4100 349.0000 1.0000
41.4200 364.0000 1.0000
41.4300 415.0000 1.0000
41.4400 356.0000 1.0000
41.4500 381.0000 1.0000
41.4600 356.0000 1.0000
41.4700 363.0000 1.0000
41.4800 378.0000 1.0000
41.4900 343.0000 1.0000
41.5000 348.0000 1.0000
41.5100 357.0000 1.0000
41.5200 401.0000 1.0000
41.5300 378.0000 1.0000
41.5400 348.0000 1.0000
41.5500 361.0000 1.0000
41.5600 382.0000 1.0000
41.5700 389.0000 1.0000
41.5800 380.0000 1.0000
41.5900 351.0000 1.0000
41.6000 369.0000 1.0000
41.6100 379.0000 1.0000
41.6200 372.0000 1.0000
41.6300 355.0000 1.0000
41.6400 358.0000 1.0000
41.6500 360.0000 1.0000
41.6600 380.0000 1.0000
41.6700 354.0000 1.0000
41.6800 362.0000 1.0000
41.6900 373.0000 1.0000
41.7000 352.0000 1.0000
41.7100 383.0000 1.0000
41.7200 357.0000 1.0000
41.7300 367.0000 1.0000
41.7400 365.0000 1.0000
41.7500 344.0000 1.0000
41.7600 331.0000 1.0000
41.7700 344.0000 1.0000
41.7800 375.0000 1.0000
41.7900 360.0000 1.0000
41.8000 377.0000 1.0000
41.8100 359.0000 1.0000
41.8200 338.0000 1.0000
41.8300 330.0000 1.0000
41.8400 364.0000 1.0000
41.8500 370.0000 1.0000
41.8600 347.0000 1.0000
41.8700 369.0000 1.0000
41.8800 366.0000 1.0000
41.8900 358.0000 1.0000
41.9000 335.0000 1.0000
41.9100 376.0000 1.0000
41.9200 354.0000 1.0000
41.9300 351.0000 1.0000
41.9400 347.0000 1.0000
41.9500 343.0000 1.0000
41.9600 378.0000 1.0000
41.9700 339.0000 1.0000
41.9800 349.0000 1.0000
41.9900 364.0000 1.0000
42.0000 344.0000 1.0000
42.0100 373.0000 1.0000
42.0200 370.0000 1.0000
42.0300 371.0000 1.0000
42.0400 333.0000 1.0000
42.0500 355.0000 1.0000
42.0600 348.0000 1.0000
42.0700 359.0000 1.0000
42.0800 340.0000 1.0000
42.0900 366.0000 1.0000
42.1000 384.0000 1.0000
42.1100 389.0000 1.0000
42.1200 345.0000 1.0000
42.1300 356.0000 1.0000
42.1400 342.0000 1.0000
42.1500 339.0000 1.0000
42.1600 368.0000 1.0000
42.1700 367.0000 1.0000
42.1800 333.0000 1.0000
42.1900 356.0000 1.0000
42.2000 365.0000 1.0000
42.2100 361.0000 1.0000
42.2200 345.0000 1.0000
42.2300 377.0000 1.0000
42.2400 415.0000 1.0000
42.2500 363.0000 1.0000
42.2600 367.0000 1.0000
42.2700 357.0000 1.0000
42.2800 384.0000 1.0000
42.2900 347.0000 1.0000
42.3000 380.0000 1.0000
42.3100 379.0000 1.0000
42.3200 388.0000 1.0000
42.3300 364.0000 1.0000
42.3400 379.0000 1.0000
42.3500 383.0000 1.0000
42.3600 378.0000 1.0000
42.3700 390.0000 1.0000
42.3800 408.0000 1.0000
42.3900 408.0000 1.0000
42.4000 413.0000 1.0000
42.4100 399.0000 1.0000
42.4200 398.0000 1.0000
42.4300 423.0000 1.0000
42.4400 396.0000 1.0000
42.4500 381.0000 1.0000
42.4600 385.0000 1.0000
42.4700 359.0000 1.0000
42.4800 401.0000 1.0000
42.4900 363.0000 1.0000
42.5000 391.0000 1.0000
42.5100 362.0000 1.0000
42.5200 383.0000 1.0000
42.5300 406.0000 1.0000
42.5400 371.0000 1.0000
42.5500 402.0000 1.0000
42.5600 381.0000 1.0000
42.5700 363.0000 1.0000
42.5800 393.0000 1.0000
42.5900 360.0000 1.0000
42.6000 353.0000 1.0000
42.6100 388.0000 1.0000
42.6200 391.0000 1.0000
42.6300 358.0000 1.0000
42.6400 381.0000 1.0000
42.6500 366.0000 1.0000
42.6600 379.0000 1.0000
42.6700 367.0000 1.0000
42.6800 350.0000 1.0000
42.6900 354.0000 1.0000
42.7000 354.0000 1.0000
42.7100 378.0000 1.0000
42.7200 370.0000 1.0000
42.7300 373.0000 1.0000
42.7400 357.0000 1.0000
42.7500 363.0000 1.0000
42.7600 346.0000 1.0000
42.7700 378.0000 1.0000
42.7800 375.0000 1.0000
42.7900 351.0000 1.0000
42.8000 359.0000 1.0000
42.8100 390.0000 1.0000
42.8200 352.0000 1.0000
42.8300 350.0000 1.0000
42.8400 353.0000 1.0000
42.8500 378.0000 1.0000
42.8600 358.0000 1.0000
42.8700 341.0000 1.0000
42.8800 376.0000 1.0000
42.8900 342.0000 1.0000
42.9000 390.0000 1.0000
42.9100 355.0000 1.0000
42.9200 362.0000 1.0000
42.9300 338.0000 1.0000
42.9400 335.0000 1.0000
42.9500 359.0000 1.0000
42.9600 323.0000 1.0000
42.9700 334.0000 1.0000
42.9800 340.0000 1.0000
42.9900 348.0000 1.0000
43.0000 354.0000 1.0000
43.0100 347.0000 1.0000
43.0200 359.0000 1.0000
43.0300 364.0000 1.0000
43.0400 347.0000 1.0000
43.0500 379.0000 1.0000
43.0600 367.0000 1.0000
43.0700 367.0000 1.0000
43.0800 357.0000 1.0000
43.0900 362.0000 1.0000
43.1000 377.0000 1.0000
43.1100 365.0000 1.0000
43.1200 341.0000 1.0000
43.1300 364.0000 1.0000
43.1400 356.0000 1.0000
43.1500 341.0000 1.0000
43.1600 338.0000 1.0000
43.1700 338.0000 1.0000
43.1800 349.0000 1.0000
43.1900 349.0000 1.0000
43.2000 348.0000 1.0000
43.2100 353.0000 1.0000
43.2200 360.0000 1.0000
43.2300 378.0000 1.0000
43.2400 358.0000 1.0000
43.2500 362.0000 1.0000
43.2600 330.0000 1.0000
43.2700 362.0000 1.0000
43.2800 351.0000 1.0000
43.2900 360.0000 1.0000
43.3000 345.0000 1.0000
43.3100 367.0000 1.0000
43.3200 344.0000 1.0000
43.3300 349.0000 1.0000
43.3400 349.0000 1.0000
43.3500 346.0000 1.0000
43.3600 336.0000 1.0000
43.3700 325.0000 1.0000
43.3800 351.0000 1.0000
43.3900 371.0000 1.0000
43.4000 327.0000 1.0000
43.4100 324.0000 1.0000
43.4200 344.0000 1.0000
43.4300 352.0000 1.0000
43.4400 352.0000 1.0000
43.4500 373.0000 1.0000
43.4600 356.0000 1.0000
43.4700 364.0000 1.0000
43.4800 361.0000 1.0000
43.4900 355.0000 1.0000
43.5000 355.0000 1.0000
43.5100 329.0000 1.0000
43.5200 349.0000 1.0000
43.5300 328.0000 1.0000
43.5400 354.0000 1.0000
43.5500 340.0000 1.0000
43.5600 346.0000 1.0000
43.5700 392.0000 1.0000
43.5800 351.0000 1.0000
43.5900 337.0000 1.0000
43.6000 343.0000 1.0000
43.6100 352.0000 1.0000
43.6200 354.0000 1.0000
43.6300 356.0000 1.0000
43.6400 362.0000 1.0000
43.6500 366.0000 1.0000
43.6600 356.0000 1.0000
43.6700 340.0000 1.0000
43.6800 366.0000 1.0000
43.6900 357.0000 1.0000
43.7000 332.0000 1.0000
43.7100 340.0000 1.0000
43.7200 328.0000 1.0000
43.7300 350.0000 1.0000
43.7400 342.0000 1.0000
43.7500 352.0000 1.0000
43.7600 335.0000 1.0000
43.7700 359.0000 1.0000
43.7800 342.0000 1.0000
43.7900 320.0000 1.0000
43.8000 347.0000 1.0000
43.8100 350.0000 1.0000
43.8200 338.0000 1.0000
43.8300 329.0000 1.0000
43.8400 339.0000 1.0000
43.8500 339.0000 1.0000
43.8600 383.0000 1.0000
43.8700 361.0000 1.0000
43.8800 349.0000 1.0000
43.8900 331.0000 1.0000
43.9000 313.0000 1.0000
43.9100 325.0000 1.0000
43.9200 385.0000 1.0000
43.9300 332.0000 1.0000
43.9400 334.0000 1.0000
43.9500 346.0000 1.0000
43.9600 342.0000 1.0000
43.9700 343.0000 1.0000
43.9800 316.0000 1.0000
43.9900 324.0000 1.0000
44.0000 338.0000 1.0000
44.0100 338.0000 1.0000
44.0200 356.0000 1.0000
44.0300 327.0000 1.0000
44.0400 345.0000 1.0000
44.0500 329.0000 1.0000
44.0600 315.0000 1.0000
44.0700 345.0000 1.0000
44.0800 363.0000 1.0000
44.0900 319.0000 1.0000
44.1000 351.0000 1.0000
44.1100 342.0000 1.0000
44.1200 362.0000 1.0000
44.1300 338.0000 1.0000
44.1400 346.0000 1.0000
44.1500 337.0000 1.0000
44.1600 344.0000 1.0000
44.1700 337.0000 1.0000
44.1800 327.0000 1.0000
44.1900 300.0000 1.0000
44.2000 324.0000 1.0000
44.2100 348.0000 1.0000
44.2200 340.0000 1.0000
44.2300 343.0000 1.0000
44.2400 315.0000 1.0000
44.2500 338.0000 1.0000
44.2600 302.0000 1.0000
44.2700 310.0000 1.0000
44.2800 348.0000 1.0000
44.2900 365.0000 1.0000
44.3000 337.0000 1.0000
44.3100 337.0000 1.0000
44.3200 335.0000 1.0000
44.3300 311.0000 1.0000
44.3400 342.0000 1.0000
44.3500 349.0000 1.0000
44.3600 354.0000 1.0000
44.3700 340.0000 1.0000
44.3800 331.0000 1.0000
44.3900 348.0000 1.0000
44.4000 316.0000 1.0000
44.4100 376.0000 1.0000
44.4200 354.0000 1.0000
44.4300 326.0000 1.0000
44.4400 333.0000 1.0000
44.4500 334.0000 1.0000
44.4600 320.0000 1.0000
44.4700 319.0000 1.0000
44.4800 319.0000 1.0000
44.4900 345.0000 1.0000
44.5000 356.0000 1.0000
44.5100 343.0000 1.0000
44.5200 330.0000 1.0000
44.5300 321.0000 1.0000
44.5400 289.0000 1.0000
44.5500 295.0000 1.0000
44.5600 332.0000 1.0000
44.5700 311.0000 1.0000
44.5800 368.0000 1.0000
44.5900 333.0000 1.0000
44.6000 326.0000 1.0000
44.6100 341.0000 1.0000
44.6200 303.0000 1.0000
44.6300 322.0000 1.0000
44.6400 354.0000 1.0000
44.6500 343.0000 1.0000
44.6600 340.0000 1.0000
44.6700 316.0000 1.0000
44.6800 354.0000 1.0000
44.6900 346.0000 1.0000
44.7000 340.0000 1.0000
44.7100 397.0000 1.0000
44.7200 338.0000 1.0000
44.7300 337.0000 1.0000
44.7400 353.0000 1.0000
44.7500 347.0000 1.0000
44.7600 330.0000 1.0000
44.7700 346.0000 1.0000
44.7800 357.0000 1.0000
44.7900 335.0000 1.0000
44.8000 329.0000 1.0000
44.8100 323.0000 1.0000
44.8200 318.0000 1.0000
44.8300 335.0000 1.0000
44.8400 327.0000 1.0000
44.8500 323.0000 1.0000
44.8600 337.0000 1.0000
44.8700 330.0000 1.0000
44.8800 311.0000 1.0000
44.8900 323.0000 1.0000
44.9000 358.0000 1.0000
44.9100 336.0000 1.0000
44.9200 328.0000 1.0000
44.9300 331.0000 1.0000
44.9400 315.0000 1.0000
44.9500 301.0000 1.0000
44.9600 328.0000 1.0000
44.9700 326.0000 1.0000
44.9800 369.0000 1.0000
44.9900 337.0000 1.0000
45.0000 322.0000 1.0000
45.0100 336.0000 1.0000
45.0200 338.0000 1.0000
45.0300 348.0000 1.0000
45.0400 348.0000 1.0000
45.0500 334.0000 1.0000
45.0600 328.0000 1.0000
45.0700 325.0000 1.0000
45.0800 340.0000 1.0000
45.0900 327.0000 1.0000
45.1000 370.0000 1.0000
45.1100 311.0000 1.0000
45.1200 307.0000 1.0000
45.1300 323.0000 1.0000
45.1400 306.0000 1.0000
45.1500 316.0000 1.0000
45.1600 303.0000 1.0000
45.1700 341.0000 1.0000
45.1800 321.0000 1.0000
45.1900 357.0000 1.0000
45.2000 302.0000 1.0000
45.2100 358.0000 1.0000
45.2200 324.0000 1.0000
45.2300 336.0000 1.0000
45.2400 359.0000 1.0000
45.2500 314.0000 1.0000
45.2600 313.0000 1.0000
45.2700 329.0000 1.0000
45.2800 329.0000 1.0000
45.2900 343.0000 1.0000
45.3000 353.0000 1.0000
45.3100 357.0000 1.0000
45.3200 352.0000 1.0000
45.3300 328.0000 1.0000
45.3400 338.0000 1.0000
45.3500 357.0000 1.0000
45.3600 338.0000 1.0000
45.3700 320.0000 1.0000
45.3800 301.0000 1.0000
45.3900 341.0000 1.0000
45.4000 316.0000 1.0000
45.4100 327.0000 1.0000
45.4200 305.0000 1.0000
45.4300 324.0000 1.0000
45.4400 307.0000 1.0000
45.4500 322.0000 1.0000
45.4600 339.0000 1.0000
45.4700 317.0000 1.0000
45.4800 335.0000 1.0000
45.4900 317.0000 1.0000
45.5000 314.0000 1.0000
45.5100 298.0000 1.0000
45.5200 335.0000 1.0000
45.5300 357.0000 1.0000
45.5400 340.0000 1.0000
45.5500 324.0000 1.0000
45.5600 337.0000 1.0000
45.5700 310.0000 1.0000
45.5800 330.0000 1.0000
45.5900 337.0000 1.0000
45.6000 350.0000 1.0000
45.6100 320.0000 1.0000
45.6200 326.0000 1.0000
45.6300 317.0000 1.0000
45.6400 321.0000 1.0000
45.6500 316.0000 1.0000
45.6600 343.0000 1.0000
45.6700 326.0000 1.0000
45.6800 322.0000 1.0000
45.6900 329.0000 1.0000
45.7000 338.0000 1.0000
45.7100 344.0000 1.0000
45.7200 331.0000 1.0000
45.7300 323.0000 1.0000
45.7400 304.0000 1.0000
45.7500 336.0000 1.0000
45.7600 331.0000 1.0000
45.7700 341.0000 1.0000
45.7800 347.0000 1.0000
45.7900 331.0000 1.0000
45.8000 334.0000 1.0000
45.8100 321.0000 1.0000
45.8200 358.0000 1.0000
45.8300 341.0000 1.0000
45.8400 341.0000 1.0000
45.8500 312.0000 1.0000
45.8600 335.0000 1.0000
45.8700 340.0000 1.0000
45.8800 315.0000 1.0000
45.8900 334.0000 1.0000
45.9000 336.0000 1.0000
45.9100 317.0000 1.0000
45.9200 309.0000 1.0000
45.9300 334.0000 1.0000
45.9400 328.0000 1.0000
45.9500 318.0000 1.0000
45.9600 327.0000 1.0000
45.9700 326.0000 1.0000
45.9800 331.0000 1.0000
45.9900 319.0000 1.0000
46.0000 344.0000 1.0000
46.0100 325.0000 1.0000
46.0200 305.0000 1.0000
46.0300 336.0000 1.0000
46.0400 338.0000 1.0000
46.0500 329.0000 1.0000
46.0600 323.0000 1.0000
46.0700 330.0000 1.0000
46.0800 340.0000 1.0000
46.0900 349.0000 1.0000
46.1000 311.0000 1.0000
46.1100 322.0000 1.0000
46.1200 315.0000 1.0000
46.1300 323.0000 1.0000
46.1400 306.0000 1.0000
46.1500 346.0000 1.0000
46.1600 327.0000 1.0000
46.1700 315.0000 1.0000
46.1800 329.0000 1.0000
46.1900 334.0000 1.0000
46.2000 337.0000 1.0000
46.2100 330.0000 1.0000
46.2200 335.0000 1.0000
46.2300 294.0000 1.0000
46.2400 308.0000 1.0000
46.2500 338.0000 1.0000
46.2600 323.0000 1.0000
46.2700 366.0000 1.0000
46.2800 313.0000 1.0000
46.2900 350.0000 1.0000
46.3000 367.0000 1.0000
46.3100 353.0000 1.0000
46.3200 311.0000 1.0000
46.3300 328.0000 1.0000
46.3400 327.0000 1.0000
46.3500 341.0000 1.0000
46.3600 309.0000 1.0000
46.3700 325.0000 1.0000
46.3800 336.0000 1.0000
46.3900 336.0000 1.0000
46.4000 345.0000 1.0000
46.4100 310.0000 1.0000
46.4200 291.0000 1.0000
46.4300 288.0000 1.0000
46.4400 329.0000 1.0000
46.4500 339.0000 1.0000
46.4600 325.0000 1.0000
46.4700 311.0000 1.0000
46.4800 315.0000 1.0000
46.4900 325.0000 1.0000
46.5000 332.0000 1.0000
46.5100 316.0000 1.0000
46.5200 320.0000 1.0000
46.5300 308.0000 1.0000
46.5400 335.0000 1.0000
46.5500 309.0000 1.0000
46.5600 345.0000 1.0000
46.5700 301.0000 1.0000
46.5800 334.0000 1.0000
46.5900 296.0000 1.0000
46.6000 342.0000 1.0000
46.6100 318.0000 1.0000
46.6200 292.0000 1.0000
46.6300 320.0000 1.0000
46.6400 305.0000 1.0000
46.6500 329.0000 1.0000
46.6600 306.0000 1.0000
46.6700 372.0000 1.0000
46.6800 304.0000 1.0000
46.6900 312.0000 1.0000
46.7000 349.0000 1.0000
46.7100 308.0000 1.0000
46.7200 316.0000 1.0000
46.7300 286.0000 1.0000
46.7400 296.0000 1.0000
46.7500 302.0000 1.0000
46.7600 351.0000 1.0000
46.7700 316.0000 1.0000
46.7800 327.0000 1.0000
46.7900 308.0000 1.0000
46.8000 319.0000 1.0000
46.8100 332.0000 1.0000
46.8200 327.0000 1.0000
46.8300 309.0000 1.0000
46.8400 292.0000 1.0000
46.8500 320.0000 1.0000
46.8600 320.0000 1.0000
46.8700 319.0000 1.0000
46.8800 341.0000 1.0000
46.8900 316.0000 1.0000
46.9000 297.0000 1.0000
46.9100 278.0000 1.0000
46.9200 278.0000 1.0000
46.9300 300.0000 1.0000
46.9400 315.0000 1.0000
46.9500 305.0000 1.0000
46.9600 346.0000 1.0000
46.9700 328.0000 1.0000
46.9800 303.0000 1.0000
46.9900 321.0000 1.0000
47.0000 315.0000 1.0000
47.0100 303.0000 1.0000
47.0200 321.0000 1.0000
47.0300 344.0000 1.0000
47.0400 302.0000 1.0000
47.0500 310.0000 1.0000
47.0600 273.0000 1.0000
47.0700 304.0000 1.0000
47.0800 350.0000 1.0000
47.0900 333.0000 1.0000
47.1000 330.0000 1.0000
47.1100 310.0000 1.0000
47.1200 303.0000 1.0000
47.1300 311.0000 1.0000
47.1400 320.0000 1.0000
47.1500 299.0000 1.0000
47.1600 310.0000 1.0000
47.1700 308.0000 1.0000
47.1800 302.0000 1.0000
47.1900 322.0000 1.0000
47.2000 329.0000 1.0000
47.2100 311.0000 1.0000
47.2200 302.0000 1.0000
47.2300 308.0000 1.0000
47.2400 280.0000 1.0000
47.2500 305.0000 1.0000
47.2600 324.0000 1.0000
47.2700 305.0000 1.0000
47.2800 328.0000 1.0000
47.2900 339.0000 1.0000
47.3000 323.0000 1.0000
47.3100 287.0000 1.0000
47.3200 309.0000 1.0000
47.3300 320.0000 1.0000
47.3400 318.0000 1.0000
47.3500 325.0000 1.0000
47.3600 332.0000 1.0000
47.3700 308.0000 1.0000
47.3800 302.0000 1.0000
47.3900 310.0000 1.0000
47.4000 318.0000 1.0000
47.4100 336.0000 1.0000
47.4200 320.0000 1.0000
47.4300 332.0000 1.0000
47.4400 301.0000 1.0000
47.4500 300.0000 1.0000
47.4600 285.0000 1.0000
47.4700 327.0000 1.0000
47.4800 324.0000 1.0000
47.4900 298.0000 1.0000
47.5000 346.0000 1.0000
47.5100 336.0000 1.0000
47.5200 300.0000 1.0000
47.5300 319.0000 1.0000
47.5400 326.0000 1.0000
47.5500 303.0000 1.0000
47.5600 312.0000 1.0000
47.5700 309.0000 1.0000
47.5800 320.0000 1.0000
47.5900 304.0000 1.0000
47.6000 285.0000 1.0000
47.6100 319.0000 1.0000
47.6200 285.0000 1.0000
47.6300 270.0000 1.0000
47.6400 322.0000 1.0000
47.6500 327.0000 1.0000
47.6600 303.0000 1.0000
47.6700 288.0000 1.0000
47.6800 303.0000 1.0000
47.6900 306.0000 1.0000
47.7000 303.0000 1.0000
47.7100 290.0000 1.0000
47.7200 309.0000 1.0000
47.7300 334.0000 1.0000
47.7400 321.0000 1.0000
47.7500 303.0000 1.0000
47.7600 297.0000 1.0000
47.7700 325.0000 1.0000
47.7800 328.0000 1.0000
47.7900 334.0000 1.0000
47.8000 312.0000 1.0000
47.8100 290.0000 1.0000
47.8200 324.0000 1.0000
47.8300 294.0000 1.0000
47.8400 308.0000 1.0000
47.8500 307.0000 1.0000
47.8600 324.0000 1.0000
47.8700 316.0000 1.0000
47.8800 294.0000 1.0000
47.8900 317.0000 1.0000
47.9000 317.0000 1.0000
47.9100 305.0000 1.0000
47.9200 309.0000 1.0000
47.9300 308.0000 1.0000
47.9400 312.0000 1.0000
47.9500 297.0000 1.0000
47.9600 275.0000 1.0000
47.9700 320.0000 1.0000
47.9800 344.0000 1.0000
47.9900 326.0000 1.0000
48.0000 326.0000 1.0000
48.0100 302.0000 1.0000
48.0200 288.0000 1.0000
48.0300 306.0000 1.0000
48.0400 321.0000 1.0000
48.0500 309.0000 1.0000
48.0600 333.0000 1.0000
48.0700 336.0000 1.0000
48.0800 316.0000 1.0000
48.0900 308.0000 1.0000
48.1000 326.0000 1.0000
48.1100 294.0000 1.0000
48.1200 289.0000 1.0000
48.1300 305.0000 1.0000
48.1400 303.0000 1.0000
48.1500 304.0000 1.0000
48.1600 315.0000 1.0000
48.1700 305.0000 1.0000
48.1800 314.0000 1.0000
48.1900 328.0000 1.0000
48.2000 308.0000 1.0000
48.2100 289.0000 1.0000
48.2200 333.0000 1.0000
48.2300 326.0000 1.0000
48.2400 296.0000 1.0000
48.2500 332.0000 1.0000
48.2600 275.0000 1.0000
48.2700 288.0000 1.0000
48.2800 288.0000 1.0000
48.2900 305.0000 1.0000
48.3000 332.0000 1.0000
48.3100 297.0000 1.0000
48.3200 316.0000 1.0000
48.3300 280.0000 1.0000
48.3400 307.0000 1.0000
48.3500 331.0000 1.0000
48.3600 319.0000 1.0000
48.3700 285.0000 1.0000
48.3800 308.0000 1.0000
48.3900 301.0000 1.0000
48.4000 328.0000 1.0000
48.4100 341.0000 1.0000
48.4200 321.0000 1.0000
48.4300 302.0000 1.0000
48.4400 305.0000 1.0000
48.4500 298.0000 1.0000
48.4600 285.0000 1.0000
48.4700 327.0000 1.0000
48.4800 306.0000 1.0000
48.4900 297.0000 1.0000
48.5000 288.0000 1.0000
48.5100 316.0000 1.0000
48.5200 308.0000 1.0000
48.5300 307.0000 1.0000
48.5400 295.0000 1.0000
48.5500 297.0000 1.0000
48.5600 305.0000 1.0000
48.5700 297.0000 1.0000
48.5800 316.0000 1.0000
48.5900 302.0000 1.0000
48.6000 304.0000 1.0000
48.6100 276.0000 1.0000
48.6200 302.0000 1.0000
48.6300 296.0000 1.0000
48.6400 293.0000 1.0000
48.6500 318.0000 1.0000
48.6600 284.0000 1.0000
48.6700 322.0000 1.0000
48.6800 289.0000 1.0000
48.6900 325.0000 1.0000
48.7000 302.0000 1.0000
48.7100 324.0000 1.0000
48.7200 296.0000 1.0000
48.7300 299.0000 1.0000
48.7400 303.0000 1.0000
48.7500 297.0000 1.0000
48.7600 309.0000 1.0000
48.7700 315.0000 1.0000
48.7800 305.0000 1.0000
48.7900 317.0000 1.0000
48.8000 290.0000 1.0000
48.8100 329.0000 1.0000
48.8200 303.0000 1.0000
48.8300 318.0000 1.0000
48.8400 310.0000 1.0000
48.8500 286.0000 1.0000
48.8600 291.0000 1.0000
48.8700 313.0000 1.0000
48.8800 312.0000 1.0000
48.8900 301.0000 1.0000
48.9000 333.0000 1.0000
48.9100 311.0000 1.0000
48.9200 326.0000 1.0000
48.9300 324.0000 1.0000
48.9400 306.0000 1.0000
48.9500 313.0000 1.0000
48.9600 329.0000 1.0000
48.9700 275.0000 1.0000
48.9800 329.0000 1.0000
48.9900 294.0000 1.0000
49.0000 314.0000 1.0000
49.0100 322.0000 1.0000
49.0200 283.0000 1.0000
49.0300 317.0000 1.0000
49.0400 340.0000 1.0000
49.0500 281.0000 1.0000
49.0600 301.0000 1.0000
49.0700 301.0000 1.0000
49.0800 303.0000 1.0000
49.0900 298.0000 1.0000
49.1000 313.0000 1.0000
49.1100 311.0000 1.0000
49.1200 322.0000 1.0000
49.1300 306.0000 1.0000
49.1400 313.0000 1.0000
49.1500 314.0000 1.0000
49.1600 320.0000 1.0000
49.1700 309.0000 1.0000
49.1800 292.0000 1.0000
49.1900 304.0000 1.0000
49.2000 290.0000 1.0000
49.2100 292.0000 1.0000
49.2200 336.0000 1.0000
49.2300 298.0000 1.0000
49.2400 300.0000 1.0000
49.2500 284.0000 1.0000
49.2600 323.0000 1.0000
49.2700 321.0000 1.0000
49.2800 341.0000 1.0000
49.2900 288.0000 1.0000
49.3000 308.0000 1.0000
49.3100 322.0000 1.0000
49.3200 328.0000 1.0000
49.3300 315.0000 1.0000
49.3400 307.0000 1.0000
49.3500 303.0000 1.0000
49.3600 295.0000 1.0000
49.3700 338.0000 1.0000
49.3800 321.0000 1.0000
49.3900 351.0000 1.0000
49.4000 337.0000 1.0000
49.4100 328.0000 1.0000
49.4200 322.0000 1.0000
49.4300 330.0000 1.0000
49.4400 351.0000 1.0000
49.4500 368.0000 1.0000
49.4600 358.0000 1.0000
49.4700 349.0000 1.0000
49.4800 337.0000 1.0000
49.4900 344.0000 1.0000
49.5000 333.0000 1.0000
49.5100 315.0000 1.0000
49.5200 358.0000 1.0000
49.5300 325.0000 1.0000
49.5400 313.0000 1.0000
49.5500 353.0000 1.0000
49.5600 328.0000 1.0000
49.5700 359.0000 1.0000
49.5800 311.0000 1.0000
49.5900 332.0000 1.0000
49.6000 329.0000 1.0000
49.6100 337.0000 1.0000
49.6200 334.0000 1.0000
49.6300 341.0000 1.0000
49.6400 342.0000 1.0000
49.6500 323.0000 1.0000
49.6600 326.0000 1.0000
49.6700 290.0000 1.0000
49.6800 312.0000 1.0000
49.6900 356.0000 1.0000
49.7000 322.0000 1.0000
49.7100 312.0000 1.0000
49.7200 319.0000 1.0000
49.7300 319.0000 1.0000
49.7400 337.0000 1.0000
49.7500 297.0000 1.0000
49.7600 287.0000 1.0000
49.7700 293.0000 1.0000
49.7800 339.0000 1.0000
49.7900 332.0000 1.0000
49.8000 301.0000 1.0000
49.8100 299.0000 1.0000
49.8200 308.0000 1.0000
49.8300 300.0000 1.0000
49.8400 325.0000 1.0000
49.8500 320.0000 1.0000
49.8600 310.0000 1.0000
49.8700 299.0000 1.0000
49.8800 297.0000 1.0000
49.8900 318.0000 1.0000
49.9000 308.0000 1.0000
49.9100 300.0000 1.0000
49.9200 289.0000 1.0000
49.9300 300.0000 1.0000
49.9400 299.0000 1.0000
49.9500 319.0000 1.0000
49.9600 316.0000 1.0000
49.9700 322.0000 1.0000
49.9800 307.0000 1.0000
49.9900 296.0000 1.0000
50.0000 324.0000 1.0000
50.0100 306.0000 1.0000
50.0200 317.0000 1.0000
50.0300 307.0000 1.0000
50.0400 298.0000 1.0000
50.0500 335.0000 1.0000
50.0600 314.0000 1.0000
50.0700 325.0000 1.0000
50.0800 318.0000 1.0000
50.0900 326.0000 1.0000
50.1000 304.0000 1.0000
50.1100 285.0000 1.0000
50.1200 292.0000 1.0000
50.1300 269.0000 1.0000
50.1400 263.0000 1.0000
50.1500 269.0000 1.0000
50.1600 291.0000 1.0000
50.1700 329.0000 1.0000
50.1800 308.0000 1.0000
50.1900 283.0000 1.0000
50.2000 281.0000 1.0000
50.2100 294.0000 1.0000
50.2200 285.0000 1.0000
50.2300 300.0000 1.0000
50.2400 291.0000 1.0000
50.2500 335.0000 1.0000
50.2600 333.0000 1.0000
50.2700 336.0000 1.0000
50.2800 323.0000 1.0000
50.2900 301.0000 1.0000
50.3000 306.0000 1.0000
50.3100 326.0000 1.0000
50.3200 309.0000 1.0000
50.3300 332.0000 1.0000
50.3400 316.0000 1.0000
50.3500 309.0000 1.0000
50.3600 332.0000 1.0000
50.3700 313.0000 1.0000
50.3800 300.0000 1.0000
50.3900 297.0000 1.0000
50.4000 327.0000 1.0000
50.4100 302.0000 1.0000
50.4200 313.0000 1.0000
50.4300 315.0000 1.0000
50.4400 318.0000 1.0000
50.4500 300.0000 1.0000
50.4600 273.0000 1.0000
50.4700 292.0000 1.0000
50.4800 289.0000 1.0000
50.4900 287.0000 1.0000
50.5000 312.0000 1.0000
50.5100 304.0000 1.0000
50.5200 314.0000 1.0000
50.5300 309.0000 1.0000
50.5400 293.0000 1.0000
50.5500 307.0000 1.0000
50.5600 301.0000 1.0000
50.5700 309.0000 1.0000
50.5800 324.0000 1.0000
50.5900 305.0000 1.0000
50.6000 309.0000 1.0000
50.6100 326.0000 1.0000
50.6200 321.0000 1.0000
50.6300 312.0000 1.0000
50.6400 316.0000 1.0000
50.6500 297.0000 1.0000
50.6600 305.0000 1.0000
50.6700 302.0000 1.0000
50.6800 327.0000 1.0000
50.6900 316.0000 1.0000
50.7000 314.0000 1.0000
50.7100 310.0000 1.0000
50.7200 333.0000 1.0000
50.7300 292.0000 1.0000
50.7400 311.0000 1.0000
50.7500 322.0000 1.0000
50.7600 303.0000 1.0000
50.7700 318.0000 1.0000
50.7800 301.0000 1.0000
50.7900 288.0000 1.0000
50.8000 347.0000 1.0000
50.8100 322.0000 1.0000
50.8200 285.0000 1.0000
50.8300 300.0000 1.0000
50.8400 292.0000 1.0000
50.8500 316.0000 1.0000
50.8600 332.0000 1.0000
50.8700 327.0000 1.0000
50.8800 336.0000 1.0000
50.8900 344.0000 1.0000
50.9000 324.0000 1.0000
50.9100 333.0000 1.0000
50.9200 326.0000 1.0000
50.9300 349.0000 1.0000
50.9400 309.0000 1.0000
50.9500 312.0000 1.0000
50.9600 317.0000 1.0000
50.9700 336.0000 1.0000
50.9800 344.0000 1.0000
50.9900 320.0000 1.0000
51.0000 316.0000 1.0000
51.0100 348.0000 1.0000
51.0200 338.0000 1.0000
51.0300 313.0000 1.0000
51.0400 313.0000 1.0000
51.0500 347.0000 1.0000
51.0600 355.0000 1.0000
51.0700 354.0000 1.0000
51.0800 320.0000 1.0000
51.0900 350.0000 1.0000
51.1000 353.0000 1.0000
51.1100 351.0000 1.0000
51.1200 382.0000 1.0000
51.1300 355.0000 1.0000
51.1400 364.0000 1.0000
51.1500 356.0000 1.0000
51.1600 374.0000 1.0000
51.1700 393.0000 1.0000
51.1800 401.0000 1.0000
51.1900 400.0000 1.0000
51.2000 372.0000 1.0000
51.2100 435.0000 1.0000
51.2200 471.0000 1.0000
51.2300 445.0000 1.0000
51.2400 496.0000 1.0000
51.2500 481.0000 1.0000
51.2600 509.0000 1.0000
51.2700 494.0000 1.0000
51.2800 503.0000 1.0000
51.2900 552.0000 1.0000
51.3000 547.0000 1.0000
51.3100 633.0000 1.0000
51.3200 637.0000 1.0000
51.3300 680.0000 1.0000
51.3400 661.0000 1.0000
51.3500 711.0000 1.0000
51.3600 752.0000 1.0000
51.3700 808.0000 1.0000
51.3800 890.0000 1.0000
51.3900 966.0000 1.0000
51.4000 974.0000 1.0000
51.4100 1060.0000 1.0000
51.4200 1246.0000 1.0000
51.4300 1302.0000 1.0000
51.4400 1428.0000 1.0000
51.4500 1494.0000 1.0000
51.4600 1593.0000 1.0000
51.4700 1707.0000 1.0000
51.4800 1804.0000 1.0000
51.4900 1981.0000 1.0000
51.5000 2029.0000 1.0000
51.5100 2008.0000 1.0000
51.5200 2025.0000 1.0000
51.5300 2075.0000 1.0000
51.5400 2000.0000 1.0000
51.5500 1977.0000 1.0000
51.5600 1952.0000 1.0000
51.5700 1883.0000 1.0000
51.5800 1780.0000 1.0000
51.5900 1732.0000 1.0000
51.6000 1670.0000 1.0000
51.6100 1639.0000 1.0000
51.6200 1553.0000 1.0000
51.6300 1566.0000 1.0000
51.6400 1492.0000 1.0000
51.6500 1487.0000 1.0000
51.6600 1449.0000 1.0000
51.6700 1372.0000 1.0000
51.6800 1294.0000 1.0000
51.6900 1182.0000 1.0000
51.7000 1177.0000 1.0000
51.7100 1057.0000 1.0000
51.7200 980.0000 1.0000
51.7300 940.0000 1.0000
51.7400 845.0000 1.0000
51.7500 830.0000 1.0000
51.7600 754.0000 1.0000
51.7700 739.0000 1.0000
51.7800 647.0000 1.0000
51.7900 662.0000 1.0000
51.8000 599.0000 1.0000
51.8100 556.0000 1.0000
51.8200 543.0000 1.0000
51.8300 529.0000 1.0000
51.8400 539.0000 1.0000
51.8500 475.0000 1.0000
51.8600 474.0000 1.0000
51.8700 454.0000 1.0000
51.8800 485.0000 1.0000
51.8900 440.0000 1.0000
51.9000 456.0000 1.0000
51.9100 396.0000 1.0000
51.9200 410.0000 1.0000
51.9300 389.0000 1.0000
51.9400 421.0000 1.0000
51.9500 410.0000 1.0000
51.9600 414.0000 1.0000
51.9700 395.0000 1.0000
51.9800 382.0000 1.0000
51.9900 373.0000 1.0000
52.0000 399.0000 1.0000
52.0100 390.0000 1.0000
52.0200 369.0000 1.0000
52.0300 349.0000 1.0000
52.0400 336.0000 1.0000
52.0500 343.0000 1.0000
52.0600 332.0000 1.0000
52.0700 349.0000 1.0000
52.0800 361.0000 1.0000
52.0900 340.0000 1.0000
52.1000 343.0000 1.0000
52.1100 355.0000 1.0000
52.1200 332.0000 1.0000
52.1300 341.0000 1.0000
52.1400 312.0000 1.0000
52.1500 315.0000 1.0000
52.1600 335.0000 1.0000
52.1700 327.0000 1.0000
52.1800 319.0000 1.0000
52.1900 336.0000 1.0000
52.2000 329.0000 1.0000
52.2100 340.0000 1.0000
52.2200 330.0000 1.0000
52.2300 322.0000 1.0000
52.2400 327.0000 1.0000
52.2500 301.0000 1.0000
52.2600 329.0000 1.0000
52.2700 301.0000 1.0000
52.2800 297.0000 1.0000
52.2900 317.0000 1.0000
52.3000 310.0000 1.0000
52.3100 323.0000 1.0000
52.3200 298.0000 1.0000
52.3300 314.0000 1.0000
52.3400 333.0000 1.0000
52.3500 346.0000 1.0000
52.3600 310.0000 1.0000
52.3700 310.0000 1.0000
52.3800 308.0000 1.0000
52.3900 300.0000 1.0000
52.4000 306.0000 1.0000
52.4100 336.0000 1.0000
52.4200 348.0000 1.0000
52.4300 313.0000 1.0000
52.4400 321.0000 1.0000
52.4500 301.0000 1.0000
52.4600 293.0000 1.0000
52.4700 325.0000 1.0000
52.4800 308.0000 1.0000
52.4900 289.0000 1.0000
52.5000 312.0000 1.0000
52.5100 290.0000 1.0000
52.5200 315.0000 1.0000
52.5300 295.0000 1.0000
52.5400 284.0000 1.0000
52.5500 267.0000 1.0000
52.5600 317.0000 1.0000
52.5700 274.0000 1.0000
52.5800 308.0000 1.0000
52.5900 308.0000 1.0000
52.6000 323.0000 1.0000
52.6100 340.0000 1.0000
52.6200 313.0000 1.0000
52.6300 300.0000 1.0000
52.6400 275.0000 1.0000
52.6500 331.0000 1.0000
52.6600 298.0000 1.0000
52.6700 317.0000 1.0000
52.6800 308.0000 1.0000
52.6900 287.0000 1.0000
52.7000 308.0000 1.0000
52.7100 301.0000 1.0000
52.7200 280.0000 1.0000
52.7300 297.0000 1.0000
52.7400 308.0000 1.0000
52.7500 298.0000 1.0000
52.7600 324.0000 1.0000
52.7700 297.0000 1.0000
52.7800 286.0000 1.0000
52.7900 277.0000 1.0000
52.8000 319.0000 1.0000
52.8100 286.0000 1.0000
52.8200 278.0000 1.0000
52.8300 294.0000 1.0000
52.8400 272.0000 1.0000
52.8500 279.0000 1.0000
52.8600 299.0000 1.0000
52.8700 299.0000 1.0000
52.8800 283.0000 1.0000
52.8900 294.0000 1.0000
52.9000 271.0000 1.0000
52.9100 297.0000 1.0000
52.9200 266.0000 1.0000
52.9300 286.0000 1.0000
52.9400 293.0000 1.0000
52.9500 312.0000 1.0000
52.9600 283.0000 1.0000
52.9700 314.0000 1.0000
52.9800 304.0000 1.0000
52.9900 320.0000 1.0000
53.0000 285.0000 1.0000
53.0100 291.0000 1.0000
53.0200 289.0000 1.0000
53.0300 292.0000 1.0000
53.0400 295.0000 1.0000
53.0500 286.0000 1.0000
53.0600 307.0000 1.0000
53.0700 316.0000 1.0000
53.0800 305.0000 1.0000
53.0900 294.0000 1.0000
53.1000 292.0000 1.0000
53.1100 274.0000 1.0000
53.1200 300.0000 1.0000
53.1300 287.0000 1.0000
53.1400 288.0000 1.0000
53.1500 273.0000 1.0000
53.1600 284.0000 1.0000
53.1700 295.0000 1.0000
53.1800 309.0000 1.0000
53.1900 289.0000 1.0000
53.2000 278.0000 1.0000
53.2100 300.0000 1.0000
53.2200 326.0000 1.0000
53.2300 307.0000 1.0000
53.2400 323.0000 1.0000
53.2500 283.0000 1.0000
53.2600 294.0000 1.0000
53.2700 303.0000 1.0000
53.2800 275.0000 1.0000
53.2900 298.0000 1.0000
53.3000 290.0000 1.0000
53.3100 307.0000 1.0000
53.3200 302.0000 1.0000
53.3300 292.0000 1.0000
53.3400 281.0000 1.0000
53.3500 283.0000 1.0000
53.3600 309.0000 1.0000
53.3700 288.0000 1.0000
53.3800 316.0000 1.0000
53.3900 321.0000 1.0000
53.4000 301.0000 1.0000
53.4100 283.0000 1.0000
53.4200 310.0000 1.0000
53.4300 286.0000 1.0000
53.4400 287.0000 1.0000
53.4500 289.0000 1.0000
53.4600 288.0000 1.0000
53.4700 309.0000 1.0000
53.4800 325.0000 1.0000
53.4900 290.0000 1.0000
53.5000 306.0000 1.0000
53.5100 278.0000 1.0000
53.5200 303.0000 1.0000
53.5300 268.0000 1.0000
53.5400 301.0000 1.0000
53.5500 289.0000 1.0000
53.5600 301.0000 1.0000
53.5700 303.0000 1.0000
53.5800 304.0000 1.0000
53.5900 296.0000 1.0000
53.6000 301.0000 1.0000
53.6100 284.0000 1.0000
53.6200 293.0000 1.0000
53.6300 288.0000 1.0000
53.6400 292.0000 1.0000
53.6500 296.0000 1.0000
53.6600 275.0000 1.0000
53.6700 304.0000 1.0000
53.6800 302.0000 1.0000
53.6900 302.0000 1.0000
53.7000 311.0000 1.0000
53.7100 332.0000 1.0000
53.7200 281.0000 1.0000
53.7300 307.0000 1.0000
53.7400 275.0000 1.0000
53.7500 302.0000 1.0000
53.7600 299.0000 1.0000
53.7700 270.0000 1.0000
53.7800 307.0000 1.0000
53.7900 300.0000 1.0000
53.8000 304.0000 1.0000
53.8100 283.0000 1.0000
53.8200 274.0000 1.0000
53.8300 280.0000 1.0000
53.8400 285.0000 1.0000
53.8500 290.0000 1.0000
53.8600 290.0000 1.0000
53.8700 279.0000 1.0000
53.8800 310.0000 1.0000
53.8900 302.0000 1.0000
53.9000 296.0000 1.0000
53.9100 329.0000 1.0000
53.9200 302.0000 1.0000
53.9300 301.0000 1.0000
53.9400 310.0000 1.0000
53.9500 313.0000 1.0000
53.9600 344.0000 1.0000
53.9700 312.0000 1.0000
53.9800 314.0000 1.0000
53.9900 309.0000 1.0000
54.0000 303.0000 1.0000
54.0100 323.0000 1.0000
54.0200 325.0000 1.0000
54.0300 362.0000 1.0000
54.0400 320.0000 1.0000
54.0500 343.0000 1.0000
54.0600 352.0000 1.0000
54.0700 337.0000 1.0000
54.0800 323.0000 1.0000
54.0900 359.0000 1.0000
54.1000 343.0000 1.0000
54.1100 328.0000 1.0000
54.1200 323.0000 1.0000
54.1300 331.0000 1.0000
54.1400 314.0000 1.0000
54.1500 338.0000 1.0000
54.1600 335.0000 1.0000
54.1700 303.0000 1.0000
54.1800 319.0000 1.0000
54.1900 340.0000 1.0000
54.2000 336.0000 1.0000
54.2100 336.0000 1.0000
54.2200 333.0000 1.0000
54.2300 326.0000 1.0000
54.2400 349.0000 1.0000
54.2500 342.0000 1.0000
54.2600 303.0000 1.0000
54.2700 314.0000 1.0000
54.2800 309.0000 1.0000
54.2900 338.0000 1.0000
54.3000 322.0000 1.0000
54.3100 352.0000 1.0000
54.3200 338.0000 1.0000
54.3300 326.0000 1.0000
54.3400 348.0000 1.0000
54.3500 347.0000 1.0000
54.3600 348.0000 1.0000
54.3700 376.0000 1.0000
54.3800 360.0000 1.0000
54.3900 364.0000 1.0000
54.4000 353.0000 1.0000
54.4100 338.0000 1.0000
54.4200 372.0000 1.0000
54.4300 368.0000 1.0000
54.4400 369.0000 1.0000
54.4500 384.0000 1.0000
54.4600 405.0000 1.0000
54.4700 399.0000 1.0000
54.4800 407.0000 1.0000
54.4900 413.0000 1.0000
54.5000 395.0000 1.0000
54.5100 414.0000 1.0000
54.5200 414.0000 1.0000
54.5300 429.0000 1.0000
54.5400 452.0000 1.0000
54.5500 441.0000 1.0000
54.5600 462.0000 1.0000
54.5700 467.0000 1.0000
54.5800 459.0000 1.0000
54.5900 448.0000 1.0000
54.6000 438.0000 1.0000
54.6100 429.0000 1.0000
54.6200 440.0000 1.0000
54.6300 400.0000 1.0000
54.6400 425.0000 1.0000
54.6500 411.0000 1.0000
54.6600 398.0000 1.0000
54.6700 402.0000 1.0000
54.6800 384.0000 1.0000
54.6900 406.0000 1.0000
54.7000 392.0000 1.0000
54.7100 406.0000 1.0000
54.7200 393.0000 1.0000
54.7300 362.0000 1.0000
54.7400 371.0000 1.0000
54.7500 371.0000 1.0000
54.7600 361.0000 1.0000
54.7700 378.0000 1.0000
54.7800 348.0000 1.0000
54.7900 344.0000 1.0000
54.8000 368.0000 1.0000
54.8100 345.0000 1.0000
54.8200 323.0000 1.0000
54.8300 343.0000 1.0000
54.8400 299.0000 1.0000
54.8500 348.0000 1.0000
54.8600 334.0000 1.0000
54.8700 329.0000 1.0000
54.8800 325.0000 1.0000
54.8900 314.0000 1.0000
54.9000 330.0000 1.0000
54.9100 283.0000 1.0000
54.9200 301.0000 1.0000
54.9300 319.0000 1.0000
54.9400 332.0000 1.0000
54.9500 297.0000 1.0000
54.9600 274.0000 1.0000
54.9700 293.0000 1.0000
54.9800 288.0000 1.0000
54.9900 287.0000 1.0000
55.0000 293.0000 1.0000
55.0100 300.0000 1.0000
55.0200 299.0000 1.0000
55.0300 314.0000 1.0000
55.0400 315.0000 1.0000
55.0500 324.0000 1.0000
55.0600 291.0000 1.0000
55.0700 290.0000 1.0000
55.0800 306.0000 1.0000
55.0900 307.0000 1.0000
55.1000 311.0000 1.0000
55.1100 266.0000 1.0000
55.1200 292.0000 1.0000
55.1300 276.0000 1.0000
55.1400 326.0000 1.0000
55.1500 309.0000 1.0000
55.1600 304.0000 1.0000
55.1700 290.0000 1.0000
55.1800 247.0000 1.0000
55.1900 266.0000 1.0000
55.2000 285.0000 1.0000
55.2100 296.0000 1.0000
55.2200 295.0000 1.0000
55.2300 302.0000 1.0000
55.2400 292.0000 1.0000
55.2500 309.0000 1.0000
55.2600 283.0000 1.0000
55.2700 279.0000 1.0000
55.2800 291.0000 1.0000
55.2900 271.0000 1.0000
55.3000 314.0000 1.0000
55.3100 328.0000 1.0000
55.3200 295.0000 1.0000
55.3300 299.0000 1.0000
55.3400 251.0000 1.0000
55.3500 270.0000 1.0000
55.3600 268.0000 1.0000
55.3700 290.0000 1.0000
55.3800 274.0000 1.0000
55.3900 275.0000 1.0000
55.4000 296.0000 1.0000
55.4100 284.0000 1.0000
55.4200 278.0000 1.0000
55.4300 250.0000 1.0000
55.4400 294.0000 1.0000
55.4500 275.0000 1.0000
55.4600 275.0000 1.0000
55.4700 277.0000 1.0000
55.4800 296.0000 1.0000
55.4900 282.0000 1.0000
55.5000 295.0000 1.0000
55.5100 293.0000 1.0000
55.5200 280.0000 1.0000
55.5300 302.0000 1.0000
55.5400 252.0000 1.0000
55.5500 280.0000 1.0000
55.5600 285.0000 1.0000
55.5700 271.0000 1.0000
55.5800 300.0000 1.0000
55.5900 299.0000 1.0000
55.6000 282.0000 1.0000
55.6100 266.0000 1.0000
55.6200 281.0000 1.0000
55.6300 286.0000 1.0000
55.6400 274.0000 1.0000
55.6500 301.0000 1.0000
55.6600 303.0000 1.0000
55.6700 295.0000 1.0000
55.6800 281.0000 1.0000
55.6900 292.0000 1.0000
55.7000 298.0000 1.0000
55.7100 265.0000 1.0000
55.7200 287.0000 1.0000
55.7300 289.0000 1.0000
55.7400 274.0000 1.0000
55.7500 281.0000 1.0000
55.7600 290.0000 1.0000
55.7700 275.0000 1.0000
55.7800 289.0000 1.0000
55.7900 263.0000 1.0000
55.8000 269.0000 1.0000
55.8100 300.0000 1.0000
55.8200 280.0000 1.0000
55.8300 275.0000 1.0000
55.8400 295.0000 1.0000
55.8500 282.0000 1.0000
55.8600 268.0000 1.0000
55.8700 286.0000 1.0000
55.8800 296.0000 1.0000
55.8900 299.0000 1.0000
55.9000 284.0000 1.0000
55.9100 288.0000 1.0000
55.9200 262.0000 1.0000
55.9300 292.0000 1.0000
55.9400 285.0000 1.0000
55.9500 287.0000 1.0000
55.9600 273.0000 1.0000
55.9700 298.0000 1.0000
55.9800 279.0000 1.0000
55.9900 281.0000 1.0000
56.0000 288.0000 1.0000
56.0100 281.0000 1.0000
56.0200 281.0000 1.0000
56.0300 276.0000 1.0000
56.0400 306.0000 1.0000
56.0500 291.0000 1.0000
56.0600 281.0000 1.0000
56.0700 299.0000 1.0000
56.0800 260.0000 1.0000
56.0900 314.0000 1.0000
56.1000 294.0000 1.0000
56.1100 276.0000 1.0000
56.1200 276.0000 1.0000
56.1300 286.0000 1.0000
56.1400 285.0000 1.0000
56.1500 293.0000 1.0000
56.1600 283.0000 1.0000
56.1700 294.0000 1.0000
56.1800 289.0000 1.0000
56.1900 290.0000 1.0000
56.2000 286.0000 1.0000
56.2100 297.0000 1.0000
56.2200 281.0000 1.0000
56.2300 270.0000 1.0000
56.2400 286.0000 1.0000
56.2500 304.0000 1.0000
56.2600 264.0000 1.0000
56.2700 256.0000 1.0000
56.2800 275.0000 1.0000
56.2900 296.0000 1.0000
56.3000 289.0000 1.0000
56.3100 290.0000 1.0000
56.3200 276.0000 1.0000
56.3300 260.0000 1.0000
56.3400 295.0000 1.0000
56.3500 282.0000 1.0000
56.3600 279.0000 1.0000
56.3700 273.0000 1.0000
56.3800 277.0000 1.0000
56.3900 258.0000 1.0000
56.4000 267.0000 1.0000
56.4100 292.0000 1.0000
56.4200 284.0000 1.0000
56.4300 299.0000 1.0000
56.4400 290.0000 1.0000
56.4500 289.0000 1.0000
56.4600 273.0000 1.0000
56.4700 271.0000 1.0000
56.4800 252.0000 1.0000
56.4900 264.0000 1.0000
56.5000 276.0000 1.0000
56.5100 277.0000 1.0000
56.5200 284.0000 1.0000
56.5300 315.0000 1.0000
56.5400 296.0000 1.0000
56.5500 295.0000 1.0000
56.5600 288.0000 1.0000
56.5700 273.0000 1.0000
56.5800 246.0000 1.0000
56.5900 268.0000 1.0000
56.6000 256.0000 1.0000
56.6100 291.0000 1.0000
56.6200 278.0000 1.0000
56.6300 288.0000 1.0000
56.6400 295.0000 1.0000
56.6500 294.0000 1.0000
56.6600 281.0000 1.0000
56.6700 263.0000 1.0000
56.6800 268.0000 1.0000
56.6900 279.0000 1.0000
56.7000 301.0000 1.0000
56.7100 271.0000 1.0000
56.7200 274.0000 1.0000
56.7300 293.0000 1.0000
56.7400 285.0000 1.0000
56.7500 279.0000 1.0000
56.7600 289.0000 1.0000
56.7700 303.0000 1.0000
56.7800 289.0000 1.0000
56.7900 272.0000 1.0000
56.8000 237.0000 1.0000
56.8100 307.0000 1.0000
56.8200 296.0000 1.0000
56.8300 283.0000 1.0000
56.8400 249.0000 1.0000
56.8500 292.0000 1.0000
56.8600 264.0000 1.0000
56.8700 267.0000 1.0000
56.8800 290.0000 1.0000
56.8900 264.0000 1.0000
56.9000 264.0000 1.0000
56.9100 300.0000 1.0000
56.9200 282.0000 1.0000
56.9300 283.0000 1.0000
56.9400 273.0000 1.0000
56.9500 281.0000 1.0000
56.9600 282.0000 1.0000
56.9700 269.0000 1.0000
56.9800 260.0000 1.0000
56.9900 259.0000 1.0000
57.0000 278.0000 1.0000
57.0100 271.0000 1.0000
57.0200 271.0000 1.0000
57.0300 282.0000 1.0000
57.0400 285.0000 1.0000
57.0500 271.0000 1.0000
57.0600 282.0000 1.0000
57.0700 290.0000 1.0000
57.0800 277.0000 1.0000
57.0900 262.0000 1.0000
57.1000 289.0000 1.0000
57.1100 278.0000 1.0000
57.1200 268.0000 1.0000
57.1300 303.0000 1.0000
57.1400 282.0000 1.0000
57.1500 285.0000 1.0000
57.1600 296.0000 1.0000
57.1700 271.0000 1.0000
57.1800 278.0000 1.0000
57.1900 284.0000 1.0000
57.2000 299.0000 1.0000
57.2100 303.0000 1.0000
57.2200 273.0000 1.0000
57.2300 284.0000 1.0000
57.2400 296.0000 1.0000
57.2500 275.0000 1.0000
57.2600 297.0000 1.0000
57.2700 297.0000 1.0000
57.2800 308.0000 1.0000
57.2900 272.0000 1.0000
57.3000 269.0000 1.0000
57.3100 271.0000 1.0000
57.3200 290.0000 1.0000
57.3300 287.0000 1.0000
57.3400 274.0000 1.0000
57.3500 272.0000 1.0000
57.3600 271.0000 1.0000
57.3700 278.0000 1.0000
57.3800 294.0000 1.0000
57.3900 271.0000 1.0000
57.4000 294.0000 1.0000
57.4100 289.0000 1.0000
57.4200 299.0000 1.0000
57.4300 291.0000 1.0000
57.4400 287.0000 1.0000
57.4500 281.0000 1.0000
57.4600 298.0000 1.0000
57.4700 284.0000 1.0000
57.4800 295.0000 1.0000
57.4900 278.0000 1.0000
57.5000 270.0000 1.0000
57.5100 277.0000 1.0000
57.5200 279.0000 1.0000
57.5300 288.0000 1.0000
57.5400 297.0000 1.0000
57.5500 301.0000 1.0000
57.5600 257.0000 1.0000
57.5700 293.0000 1.0000
57.5800 314.0000 1.0000
57.5900 312.0000 1.0000
57.6000 284.0000 1.0000
57.6100 305.0000 1.0000
57.6200 281.0000 1.0000
57.6300 251.0000 1.0000
57.6400 259.0000 1.0000
57.6500 297.0000 1.0000
57.6600 310.0000 1.0000
57.6700 320.0000 1.0000
57.6800 300.0000 1.0000
57.6900 264.0000 1.0000
57.7000 286.0000 1.0000
57.7100 276.0000 1.0000
57.7200 315.0000 1.0000
57.7300 273.0000 1.0000
57.7400 285.0000 1.0000
57.7500 282.0000 1.0000
57.7600 272.0000 1.0000
57.7700 290.0000 1.0000
57.7800 272.0000 1.0000
57.7900 253.0000 1.0000
57.8000 305.0000 1.0000
57.8100 260.0000 1.0000
57.8200 270.0000 1.0000
57.8300 278.0000 1.0000
57.8400 269.0000 1.0000
57.8500 243.0000 1.0000
57.8600 269.0000 1.0000
57.8700 270.0000 1.0000
57.8800 262.0000 1.0000
57.8900 287.0000 1.0000
57.9000 262.0000 1.0000
57.9100 316.0000 1.0000
57.9200 287.0000 1.0000
57.9300 290.0000 1.0000
57.9400 277.0000 1.0000
57.9500 270.0000 1.0000
57.9600 292.0000 1.0000
57.9700 292.0000 1.0000
57.9800 300.0000 1.0000
57.9900 275.0000 1.0000
58.0000 274.0000 1.0000
58.0100 277.0000 1.0000
58.0200 283.0000 1.0000
58.0300 280.0000 1.0000
58.0400 261.0000 1.0000
58.0500 270.0000 1.0000
58.0600 270.0000 1.0000
58.0700 280.0000 1.0000
58.0800 280.0000 1.0000
58.0900 266.0000 1.0000
58.1000 271.0000 1.0000
58.1100 266.0000 1.0000
58.1200 289.0000 1.0000
58.1300 249.0000 1.0000
58.1400 255.0000 1.0000
58.1500 264.0000 1.0000
58.1600 270.0000 1.0000
58.1700 283.0000 1.0000
58.1800 276.0000 1.0000
58.1900 256.0000 1.0000
58.2000 276.0000 1.0000
58.2100 276.0000 1.0000
58.2200 262.0000 1.0000
58.2300 289.0000 1.0000
58.2400 284.0000 1.0000
58.2500 273.0000 1.0000
58.2600 282.0000 1.0000
58.2700 297.0000 1.0000
58.2800 289.0000 1.0000
58.2900 267.0000 1.0000
58.3000 288.0000 1.0000
58.3100 255.0000 1.0000
58.3200 246.0000 1.0000
58.3300 255.0000 1.0000
58.3400 260.0000 1.0000
58.3500 240.0000 1.0000
58.3600 269.0000 1.0000
58.3700 256.0000 1.0000
58.3800 256.0000 1.0000
58.3900 264.0000 1.0000
58.4000 273.0000 1.0000
58.4100 275.0000 1.0000
58.4200 281.0000 1.0000
58.4300 279.0000 1.0000
58.4400 283.0000 1.0000
58.4500 275.0000 1.0000
58.4600 285.0000 1.0000
58.4700 272.0000 1.0000
58.4800 257.0000 1.0000
58.4900 265.0000 1.0000
58.5000 280.0000 1.0000
58.5100 274.0000 1.0000
58.5200 254.0000 1.0000
58.5300 255.0000 1.0000
58.5400 302.0000 1.0000
58.5500 291.0000 1.0000
58.5600 290.0000 1.0000
58.5700 287.0000 1.0000
58.5800 274.0000 1.0000
58.5900 278.0000 1.0000
58.6000 299.0000 1.0000
58.6100 297.0000 1.0000
58.6200 289.0000 1.0000
58.6300 277.0000 1.0000
58.6400 270.0000 1.0000
58.6500 292.0000 1.0000
58.6600 292.0000 1.0000
58.6700 273.0000 1.0000
58.6800 293.0000 1.0000
58.6900 285.0000 1.0000
58.7000 264.0000 1.0000
58.7100 272.0000 1.0000
58.7200 302.0000 1.0000
58.7300 267.0000 1.0000
58.7400 279.0000 1.0000
58.7500 266.0000 1.0000
58.7600 264.0000 1.0000
58.7700 272.0000 1.0000
58.7800 262.0000 1.0000
58.7900 275.0000 1.0000
58.8000 325.0000 1.0000
58.8100 280.0000 1.0000
58.8200 302.0000 1.0000
58.8300 265.0000 1.0000
58.8400 275.0000 1.0000
58.8500 285.0000 1.0000
58.8600 268.0000 1.0000
58.8700 268.0000 1.0000
58.8800 274.0000 1.0000
58.8900 259.0000 1.0000
58.9000 290.0000 1.0000
58.9100 280.0000 1.0000
58.9200 292.0000 1.0000
58.9300 284.0000 1.0000
58.9400 259.0000 1.0000
58.9500 280.0000 1.0000
58.9600 283.0000 1.0000
58.9700 270.0000 1.0000
58.9800 277.0000 1.0000
58.9900 283.0000 1.0000
59.0000 261.0000 1.0000
59.0100 296.0000 1.0000
59.0200 275.0000 1.0000
59.0300 288.0000 1.0000
59.0400 269.0000 1.0000
59.0500 278.0000 1.0000
59.0600 260.0000 1.0000
59.0700 262.0000 1.0000
59.0800 267.0000 1.0000
59.0900 280.0000 1.0000
59.1000 257.0000 1.0000
59.1100 276.0000 1.0000
59.1200 271.0000 1.0000
59.1300 259.0000 1.0000
59.1400 273.0000 1.0000
59.1500 271.0000 1.0000
59.1600 254.0000 1.0000
59.1700 259.0000 1.0000
59.1800 282.0000 1.0000
59.1900 274.0000 1.0000
59.2000 302.0000 1.0000
59.2100 246.0000 1.0000
59.2200 272.0000 1.0000
59.2300 276.0000 1.0000
59.2400 288.0000 1.0000
59.2500 284.0000 1.0000
59.2600 270.0000 1.0000
59.2700 274.0000 1.0000
59.2800 264.0000 1.0000
59.2900 289.0000 1.0000
59.3000 273.0000 1.0000
59.3100 309.0000 1.0000
59.3200 285.0000 1.0000
59.3300 304.0000 1.0000
59.3400 286.0000 1.0000
59.3500 287.0000 1.0000
59.3600 261.0000 1.0000
59.3700 267.0000 1.0000
59.3800 267.0000 1.0000
59.3900 251.0000 1.0000
59.4000 284.0000 1.0000
59.4100 273.0000 1.0000
59.4200 286.0000 1.0000
59.4300 265.0000 1.0000
59.4400 282.0000 1.0000
59.4500 260.0000 1.0000
59.4600 271.0000 1.0000
59.4700 274.0000 1.0000
59.4800 262.0000 1.0000
59.4900 284.0000 1.0000
59.5000 269.0000 1.0000
59.5100 280.0000 1.0000
59.5200 288.0000 1.0000
59.5300 293.0000 1.0000
59.5400 285.0000 1.0000
59.5500 254.0000 1.0000
59.5600 244.0000 1.0000
59.5700 278.0000 1.0000
59.5800 284.0000 1.0000
59.5900 268.0000 1.0000
59.6000 245.0000 1.0000
59.6100 266.0000 1.0000
59.6200 264.0000 1.0000
59.6300 281.0000 1.0000
59.6400 277.0000 1.0000
59.6500 284.0000 1.0000
59.6600 273.0000 1.0000
59.6700 271.0000 1.0000
59.6800 263.0000 1.0000
59.6900 253.0000 1.0000
59.7000 276.0000 1.0000
59.7100 266.0000 1.0000
59.7200 268.0000 1.0000
59.7300 268.0000 1.0000
59.7400 289.0000 1.0000
59.7500 278.0000 1.0000
59.7600 271.0000 1.0000
59.7700 287.0000 1.0000
59.7800 267.0000 1.0000
59.7900 263.0000 1.0000
59.8000 265.0000 1.0000
59.8100 261.0000 1.0000
59.8200 288.0000 1.0000
59.8300 249.0000 1.0000
59.8400 261.0000 1.0000
59.8500 295.0000 1.0000
59.8600 292.0000 1.0000
59.8700 281.0000 1.0000
59.8800 262.0000 1.0000
59.8900 293.0000 1.0000
59.9000 301.0000 1.0000
59.9100 302.0000 1.0000
59.9200 294.0000 1.0000
59.9300 266.0000 1.0000
59.9400 270.0000 1.0000
59.9500 286.0000 1.0000
59.9600 271.0000 1.0000
59.9700 274.0000 1.0000
59.9800 280.0000 1.0000
59.9900 264.0000 1.0000
60.0000 267.0000 1.0000
60.0100 287.0000 1.0000
60.0200 260.0000 1.0000
60.0300 265.0000 1.0000
60.0400 293.0000 1.0000
60.0500 274.0000 1.0000
60.0600 275.0000 1.0000
60.0700 284.0000 1.0000
60.0800 259.0000 1.0000
60.0900 262.0000 1.0000
60.1000 273.0000 1.0000
60.1100 274.0000 1.0000
60.1200 265.0000 1.0000
60.1300 248.0000 1.0000
60.1400 272.0000 1.0000
60.1500 266.0000 1.0000
60.1600 288.0000 1.0000
60.1700 284.0000 1.0000
60.1800 260.0000 1.0000
60.1900 282.0000 1.0000
60.2000 265.0000 1.0000
60.2100 275.0000 1.0000
60.2200 260.0000 1.0000
60.2300 261.0000 1.0000
60.2400 254.0000 1.0000
60.2500 255.0000 1.0000
60.2600 272.0000 1.0000
60.2700 271.0000 1.0000
60.2800 260.0000 1.0000
60.2900 273.0000 1.0000
60.3000 290.0000 1.0000
60.3100 253.0000 1.0000
60.3200 284.0000 1.0000
60.3300 281.0000 1.0000
60.3400 272.0000 1.0000
60.3500 285.0000 1.0000
60.3600 274.0000 1.0000
60.3700 282.0000 1.0000
60.3800 247.0000 1.0000
60.3900 275.0000 1.0000
60.4000 279.0000 1.0000
60.4100 281.0000 1.0000
60.4200 265.0000 1.0000
60.4300 276.0000 1.0000
60.4400 280.0000 1.0000
60.4500 271.0000 1.0000
60.4600 284.0000 1.0000
60.4700 293.0000 1.0000
60.4800 273.0000 1.0000
60.4900 254.0000 1.0000
60.5000 285.0000 1.0000
60.5100 288.0000 1.0000
60.5200 260.0000 1.0000
60.5300 284.0000 1.0000
60.5400 268.0000 1.0000
60.5500 279.0000 1.0000
60.5600 263.0000 1.0000
60.5700 278.0000 1.0000
60.5800 274.0000 1.0000
60.5900 299.0000 1.0000
60.6000 277.0000 1.0000
60.6100 285.0000 1.0000
60.6200 287.0000 1.0000
60.6300 285.0000 1.0000
60.6400 299.0000 1.0000
60.6500 293.0000 1.0000
60.6600 272.0000 1.0000
60.6700 276.0000 1.0000
60.6800 269.0000 1.0000
60.6900 273.0000 1.0000
60.7000 262.0000 1.0000
60.7100 269.0000 1.0000
60.7200 296.0000 1.0000
60.7300 312.0000 1.0000
60.7400 283.0000 1.0000
60.7500 290.0000 1.0000
60.7600 279.0000 1.0000
60.7700 276.0000 1.0000
60.7800 289.0000 1.0000
60.7900 280.0000 1.0000
60.8000 288.0000 1.0000
60.8100 239.0000 1.0000
60.8200 289.0000 1.0000
60.8300 292.0000 1.0000
60.8400 295.0000 1.0000
60.8500 294.0000 1.0000
60.8600 283.0000 1.0000
60.8700 297.0000 1.0000
60.8800 249.0000 1.0000
60.8900 294.0000 1.0000
60.9000 282.0000 1.0000
60.9100 287.0000 1.0000
60.9200 314.0000 1.0000
60.9300 316.0000 1.0000
60.9400 266.0000 1.0000
60.9500 274.0000 1.0000
60.9600 298.0000 1.0000
60.9700 267.0000 1.0000
60.9800 280.0000 1.0000
60.9900 284.0000 1.0000
61.0000 291.0000 1.0000
61.0100 271.0000 1.0000
61.0200 311.0000 1.0000
61.0300 288.0000 1.0000
61.0400 298.0000 1.0000
61.0500 324.0000 1.0000
61.0600 306.0000 1.0000
61.0700 303.0000 1.0000
61.0800 282.0000 1.0000
61.0900 292.0000 1.0000
61.1000 274.0000 1.0000
61.1100 301.0000 1.0000
61.1200 281.0000 1.0000
61.1300 288.0000 1.0000
61.1400 297.0000 1.0000
61.1500 345.0000 1.0000
61.1600 310.0000 1.0000
61.1700 303.0000 1.0000
61.1800 255.0000 1.0000
61.1900 276.0000 1.0000
61.2000 327.0000 1.0000
61.2100 298.0000 1.0000
61.2200 337.0000 1.0000
61.2300 333.0000 1.0000
61.2400 325.0000 1.0000
61.2500 356.0000 1.0000
61.2600 367.0000 1.0000
61.2700 327.0000 1.0000
61.2800 332.0000 1.0000
61.2900 369.0000 1.0000
61.3000 376.0000 1.0000
61.3100 334.0000 1.0000
61.3200 339.0000 1.0000
61.3300 353.0000 1.0000
61.3400 408.0000 1.0000
61.3500 383.0000 1.0000
61.3600 383.0000 1.0000
61.3700 405.0000 1.0000
61.3800 394.0000 1.0000
61.3900 429.0000 1.0000
61.4000 474.0000 1.0000
61.4100 460.0000 1.0000
61.4200 483.0000 1.0000
61.4300 497.0000 1.0000
61.4400 487.0000 1.0000
61.4500 531.0000 1.0000
61.4600 501.0000 1.0000
61.4700 540.0000 1.0000
61.4800 524.0000 1.0000
61.4900 571.0000 1.0000
61.5000 557.0000 1.0000
61.5100 551.0000 1.0000
61.5200 537.0000 1.0000
61.5300 553.0000 1.0000
61.5400 605.0000 1.0000
61.5500 591.0000 1.0000
61.5600 623.0000 1.0000
61.5700 615.0000 1.0000
61.5800 579.0000 1.0000
61.5900 580.0000 1.0000
61.6000 583.0000 1.0000
61.6100 621.0000 1.0000
61.6200 595.0000 1.0000
61.6300 607.0000 1.0000
61.6400 582.0000 1.0000
61.6500 613.0000 1.0000
61.6600 561.0000 1.0000
61.6700 586.0000 1.0000
61.6800 585.0000 1.0000
61.6900 551.0000 1.0000
61.7000 517.0000 1.0000
61.7100 540.0000 1.0000
61.7200 528.0000 1.0000
61.7300 527.0000 1.0000
61.7400 531.0000 1.0000
61.7500 569.0000 1.0000
61.7600 498.0000 1.0000
61.7700 475.0000 1.0000
61.7800 468.0000 1.0000
61.7900 487.0000 1.0000
61.8000 514.0000 1.0000
61.8100 495.0000 1.0000
61.8200 458.0000 1.0000
61.8300 449.0000 1.0000
61.8400 461.0000 1.0000
61.8500 426.0000 1.0000
61.8600 396.0000 1.0000
61.8700 374.0000 1.0000
61.8800 408.0000 1.0000
61.8900 374.0000 1.0000
61.9000 373.0000 1.0000
61.9100 372.0000 1.0000
61.9200 402.0000 1.0000
61.9300 364.0000 1.0000
61.9400 347.0000 1.0000
61.9500 343.0000 1.0000
61.9600 361.0000 1.0000
61.9700 363.0000 1.0000
61.9800 357.0000 1.0000
61.9900 328.0000 1.0000
62.0000 331.0000 1.0000
62.0100 345.0000 1.0000
62.0200 334.0000 1.0000
62.0300 320.0000 1.0000
62.0400 339.0000 1.0000
62.0500 343.0000 1.0000
62.0600 331.0000 1.0000
62.0700 327.0000 1.0000
62.0800 302.0000 1.0000
62.0900 317.0000 1.0000
62.1000 314.0000 1.0000
62.1100 291.0000 1.0000
62.1200 298.0000 1.0000
62.1300 275.0000 1.0000
62.1400 337.0000 1.0000
62.1500 315.0000 1.0000
62.1600 312.0000 1.0000
62.1700 300.0000 1.0000
62.1800 309.0000 1.0000
62.1900 302.0000 1.0000
62.2000 322.0000 1.0000
62.2100 285.0000 1.0000
62.2200 290.0000 1.0000
62.2300 296.0000 1.0000
62.2400 316.0000 1.0000
62.2500 317.0000 1.0000
62.2600 313.0000 1.0000
62.2700 289.0000 1.0000
62.2800 270.0000 1.0000
62.2900 313.0000 1.0000
62.3000 293.0000 1.0000
62.3100 304.0000 1.0000
62.3200 307.0000 1.0000
62.3300 343.0000 1.0000
62.3400 329.0000 1.0000
62.3500 326.0000 1.0000
62.3600 303.0000 1.0000
62.3700 317.0000 1.0000
62.3800 294.0000 1.0000
62.3900 292.0000 1.0000
62.4000 346.0000 1.0000
62.4100 338.0000 1.0000
62.4200 330.0000 1.0000
62.4300 322.0000 1.0000
62.4400 320.0000 1.0000
62.4500 289.0000 1.0000
62.4600 302.0000 1.0000
62.4700 318.0000 1.0000
62.4800 283.0000 1.0000
62.4900 274.0000 1.0000
62.5000 293.0000 1.0000
62.5100 299.0000 1.0000
62.5200 303.0000 1.0000
62.5300 300.0000 1.0000
62.5400 298.0000 1.0000
62.5500 278.0000 1.0000
62.5600 293.0000 1.0000
62.5700 287.0000 1.0000
62.5800 312.0000 1.0000
62.5900 270.0000 1.0000
62.6000 293.0000 1.0000
62.6100 281.0000 1.0000
62.6200 287.0000 1.0000
62.6300 297.0000 1.0000
62.6400 275.0000 1.0000
62.6500 265.0000 1.0000
62.6600 284.0000 1.0000
62.6700 292.0000 1.0000
62.6800 294.0000 1.0000
62.6900 273.0000 1.0000
62.7000 268.0000 1.0000
62.7100 302.0000 1.0000
62.7200 273.0000 1.0000
62.7300 277.0000 1.0000
62.7400 284.0000 1.0000
62.7500 290.0000 1.0000
62.7600 275.0000 1.0000
62.7700 285.0000 1.0000
62.7800 274.0000 1.0000
62.7900 284.0000 1.0000
62.8000 301.0000 1.0000
62.8100 298.0000 1.0000
62.8200 298.0000 1.0000
62.8300 272.0000 1.0000
62.8400 280.0000 1.0000
62.8500 293.0000 1.0000
62.8600 265.0000 1.0000
62.8700 288.0000 1.0000
62.8800 293.0000 1.0000
62.8900 252.0000 1.0000
62.9000 282.0000 1.0000
62.9100 266.0000 1.0000
62.9200 280.0000 1.0000
62.9300 264.0000 1.0000
62.9400 288.0000 1.0000
62.9500 265.0000 1.0000
62.9600 265.0000 1.0000
62.9700 301.0000 1.0000
62.9800 281.0000 1.0000
62.9900 307.0000 1.0000
63.0000 279.0000 1.0000
63.0100 275.0000 1.0000
63.0200 270.0000 1.0000
63.0300 295.0000 1.0000
63.0400 307.0000 1.0000
63.0500 284.0000 1.0000
63.0600 268.0000 1.0000
63.0700 264.0000 1.0000
63.0800 256.0000 1.0000
63.0900 268.0000 1.0000
63.1000 258.0000 1.0000
63.1100 259.0000 1.0000
63.1200 263.0000 1.0000
63.1300 287.0000 1.0000
63.1400 281.0000 1.0000
63.1500 280.0000 1.0000
63.1600 257.0000 1.0000
63.1700 243.0000 1.0000
63.1800 253.0000 1.0000
63.1900 279.0000 1.0000
63.2000 293.0000 1.0000
63.2100 282.0000 1.0000
63.2200 273.0000 1.0000
63.2300 259.0000 1.0000
63.2400 285.0000 1.0000
63.2500 276.0000 1.0000
63.2600 277.0000 1.0000
63.2700 279.0000 1.0000
63.2800 304.0000 1.0000
63.2900 273.0000 1.0000
63.3000 278.0000 1.0000
63.3100 276.0000 1.0000
63.3200 260.0000 1.0000
63.3300 258.0000 1.0000
63.3400 276.0000 1.0000
63.3500 287.0000 1.0000
63.3600 280.0000 1.0000
63.3700 260.0000 1.0000
63.3800 258.0000 1.0000
63.3900 260.0000 1.0000
63.4000 301.0000 1.0000
63.4100 276.0000 1.0000
63.4200 299.0000 1.0000
63.4300 277.0000 1.0000
63.4400 283.0000 1.0000
63.4500 251.0000 1.0000
63.4600 293.0000 1.0000
63.4700 283.0000 1.0000
63.4800 267.0000 1.0000
63.4900 258.0000 1.0000
63.5000 279.0000 1.0000
63.5100 261.0000 1.0000
63.5200 283.0000 1.0000
63.5300 290.0000 1.0000
63.5400 297.0000 1.0000
63.5500 296.0000 1.0000
63.5600 287.0000 1.0000
63.5700 275.0000 1.0000
63.5800 283.0000 1.0000
63.5900 286.0000 1.0000
63.6000 275.0000 1.0000
63.6100 299.0000 1.0000
63.6200 286.0000 1.0000
63.6300 272.0000 1.0000
63.6400 281.0000 1.0000
63.6500 289.0000 1.0000
63.6600 301.0000 1.0000
63.6700 295.0000 1.0000
63.6800 254.0000 1.0000
63.6900 290.0000 1.0000
63.7000 298.0000 1.0000
63.7100 275.0000 1.0000
63.7200 296.0000 1.0000
63.7300 286.0000 1.0000
63.7400 274.0000 1.0000
63.7500 263.0000 1.0000
63.7600 281.0000 1.0000
63.7700 307.0000 1.0000
63.7800 291.0000 1.0000
63.7900 301.0000 1.0000
63.8000 299.0000 1.0000
63.8100 320.0000 1.0000
63.8200 270.0000 1.0000
63.8300 298.0000 1.0000
63.8400 329.0000 1.0000
63.8500 309.0000 1.0000
63.8600 320.0000 1.0000
63.8700 332.0000 1.0000
63.8800 313.0000 1.0000
63.8900 328.0000 1.0000
63.9000 354.0000 1.0000
63.9100 397.0000 1.0000
63.9200 386.0000 1.0000
63.9300 356.0000 1.0000
63.9400 391.0000 1.0000
63.9500 434.0000 1.0000
63.9600 430.0000 1.0000
63.9700 441.0000 1.0000
63.9800 444.0000 1.0000
63.9900 427.0000 1.0000
64.0000 419.0000 1.0000
64.0100 404.0000 1.0000
64.0200 384.0000 1.0000
64.0300 375.0000 1.0000
64.0400 394.0000 1.0000
64.0500 378.0000 1.0000
64.0600 364.0000 1.0000
64.0700 346.0000 1.0000
64.0800 351.0000 1.0000
64.0900 386.0000 1.0000
64.1000 375.0000 1.0000
64.1100 403.0000 1.0000
64.1200 373.0000 1.0000
64.1300 375.0000 1.0000
64.1400 358.0000 1.0000
64.1500 367.0000 1.0000
64.1600 393.0000 1.0000
64.1700 365.0000 1.0000
64.1800 352.0000 1.0000
64.1900 380.0000 1.0000
64.2000 343.0000 1.0000
64.2100 318.0000 1.0000
64.2200 329.0000 1.0000
64.2300 309.0000 1.0000
64.2400 334.0000 1.0000
64.2500 312.0000 1.0000
64.2600 298.0000 1.0000
64.2700 319.0000 1.0000
64.2800 309.0000 1.0000
64.2900 289.0000 1.0000
64.3000 315.0000 1.0000
64.3100 306.0000 1.0000
64.3200 315.0000 1.0000
64.3300 352.0000 1.0000
64.3400 319.0000 1.0000
64.3500 280.0000 1.0000
64.3600 276.0000 1.0000
64.3700 308.0000 1.0000
64.3800 297.0000 1.0000
64.3900 303.0000 1.0000
64.4000 283.0000 1.0000
64.4100 292.0000 1.0000
64.4200 256.0000 1.0000
64.4300 280.0000 1.0000
64.4400 304.0000 1.0000
64.4500 311.0000 1.0000
64.4600 316.0000 1.0000
64.4700 297.0000 1.0000
64.4800 298.0000 1.0000
64.4900 304.0000 1.0000
64.5000 315.0000 1.0000
64.5100 270.0000 1.0000
64.5200 284.0000 1.0000
64.5300 284.0000 1.0000
64.5400 276.0000 1.0000
64.5500 274.0000 1.0000
64.5600 290.0000 1.0000
64.5700 289.0000 1.0000
64.5800 286.0000 1.0000
64.5900 266.0000 1.0000
64.6000 287.0000 1.0000
64.6100 256.0000 1.0000
64.6200 285.0000 1.0000
64.6300 274.0000 1.0000
64.6400 276.0000 1.0000
64.6500 289.0000 1.0000
64.6600 287.0000 1.0000
64.6700 271.0000 1.0000
64.6800 279.0000 1.0000
64.6900 292.0000 1.0000
64.7000 264.0000 1.0000
64.7100 287.0000 1.0000
64.7200 258.0000 1.0000
64.7300 306.0000 1.0000
64.7400 289.0000 1.0000
64.7500 284.0000 1.0000
64.7600 305.0000 1.0000
64.7700 296.0000 1.0000
64.7800 301.0000 1.0000
64.7900 298.0000 1.0000
64.8000 297.0000 1.0000
64.8100 291.0000 1.0000
64.8200 279.0000 1.0000
64.8300 288.0000 1.0000
64.8400 326.0000 1.0000
64.8500 318.0000 1.0000
64.8600 279.0000 1.0000
64.8700 258.0000 1.0000
64.8800 307.0000 1.0000
64.8900 311.0000 1.0000
64.9000 277.0000 1.0000
64.9100 278.0000 1.0000
64.9200 302.0000 1.0000
64.9300 267.0000 1.0000
64.9400 287.0000 1.0000
64.9500 300.0000 1.0000
64.9600 299.0000 1.0000
64.9700 302.0000 1.0000
64.9800 278.0000 1.0000
64.9900 303.0000 1.0000
65.0000 292.0000 1.0000
65.0100 275.0000 1.0000
65.0200 302.0000 1.0000
65.0300 310.0000 1.0000
65.0400 300.0000 1.0000
65.0500 286.0000 1.0000
65.0600 323.0000 1.0000
65.0700 313.0000 1.0000
65.0800 295.0000 1.0000
65.0900 329.0000 1.0000
65.1000 300.0000 1.0000
65.1100 276.0000 1.0000
65.1200 306.0000 1.0000
65.1300 339.0000 1.0000
65.1400 328.0000 1.0000
65.1500 298.0000 1.0000
65.1600 305.0000 1.0000
65.1700 305.0000 1.0000
65.1800 336.0000 1.0000
65.1900 345.0000 1.0000
65.2000 322.0000 1.0000
65.2100 355.0000 1.0000
65.2200 344.0000 1.0000
65.2300 346.0000 1.0000
65.2400 364.0000 1.0000
65.2500 378.0000 1.0000
65.2600 370.0000 1.0000
65.2700 380.0000 1.0000
65.2800 373.0000 1.0000
65.2900 394.0000 1.0000
65.3000 425.0000 1.0000
65.3100 430.0000 1.0000
65.3200 412.0000 1.0000
65.3300 448.0000 1.0000
65.3400 470.0000 1.0000
65.3500 450.0000 1.0000
65.3600 456.0000 1.0000
65.3700 492.0000 1.0000
65.3800 515.0000 1.0000
65.3900 530.0000 1.0000
65.4000 581.0000 1.0000
65.4100 569.0000 1.0000
65.4200 631.0000 1.0000
65.4300 633.0000 1.0000
65.4400 668.0000 1.0000
65.4500 775.0000 1.0000
65.4600 749.0000 1.0000
65.4700 789.0000 1.0000
65.4800 806.0000 1.0000
65.4900 842.0000 1.0000
65.5000 904.0000 1.0000
65.5100 907.0000 1.0000
65.5200 917.0000 1.0000
65.5300 980.0000 1.0000
65.5400 1057.0000 1.0000
65.5500 1022.0000 1.0000
65.5600 1031.0000 1.0000
65.5700 1058.0000 1.0000
65.5800 1049.0000 1.0000
65.5900 1050.0000 1.0000
65.6000 1029.0000 1.0000
65.6100 981.0000 1.0000
65.6200 984.0000 1.0000
65.6300 1020.0000 1.0000
65.6400 990.0000 1.0000
65.6500 900.0000 1.0000
65.6600 961.0000 1.0000
65.6700 883.0000 1.0000
65.6800 887.0000 1.0000
65.6900 912.0000 1.0000
65.7000 901.0000 1.0000
65.7100 887.0000 1.0000
65.7200 836.0000 1.0000
65.7300 788.0000 1.0000
65.7400 783.0000 1.0000
65.7500 797.0000 1.0000
65.7600 806.0000 1.0000
65.7700 759.0000 1.0000
65.7800 712.0000 1.0000
65.7900 704.0000 1.0000
65.8000 666.0000 1.0000
65.8100 678.0000 1.0000
65.8200 651.0000 1.0000
65.8300 609.0000 1.0000
65.8400 569.0000 1.0000
65.8500 565.0000 1.0000
65.8600 543.0000 1.0000
65.8700 491.0000 1.0000
65.8800 525.0000 1.0000
65.8900 497.0000 1.0000
65.9000 480.0000 1.0000
65.9100 426.0000 1.0000
65.9200 462.0000 1.0000
65.9300 422.0000 1.0000
65.9400 391.0000 1.0000
65.9500 431.0000 1.0000
65.9600 435.0000 1.0000
65.9700 387.0000 1.0000
65.9800 384.0000 1.0000
65.9900 362.0000 1.0000
66.0000 377.0000 1.0000
66.0100 379.0000 1.0000
66.0200 362.0000 1.0000
66.0300 363.0000 1.0000
66.0400 348.0000 1.0000
66.0500 333.0000 1.0000
66.0600 322.0000 1.0000
66.0700 351.0000 1.0000
66.0800 318.0000 1.0000
66.0900 311.0000 1.0000
66.1000 302.0000 1.0000
66.1100 330.0000 1.0000
66.1200 331.0000 1.0000
66.1300 301.0000 1.0000
66.1400 311.0000 1.0000
66.1500 288.0000 1.0000
66.1600 305.0000 1.0000
66.1700 284.0000 1.0000
66.1800 310.0000 1.0000
66.1900 291.0000 1.0000
66.2000 290.0000 1.0000
66.2100 322.0000 1.0000
66.2200 286.0000 1.0000
66.2300 267.0000 1.0000
66.2400 268.0000 1.0000
66.2500 268.0000 1.0000
66.2600 250.0000 1.0000
66.2700 285.0000 1.0000
66.2800 276.0000 1.0000
66.2900 308.0000 1.0000
66.3000 278.0000 1.0000
66.3100 261.0000 1.0000
66.3200 285.0000 1.0000
66.3300 272.0000 1.0000
66.3400 277.0000 1.0000
66.3500 261.0000 1.0000
66.3600 248.0000 1.0000
66.3700 273.0000 1.0000
66.3800 275.0000 1.0000
66.3900 284.0000 1.0000
66.4000 269.0000 1.0000
66.4100 275.0000 1.0000
66.4200 272.0000 1.0000
66.4300 265.0000 1.0000
66.4400 257.0000 1.0000
66.4500 251.0000 1.0000
66.4600 277.0000 1.0000
66.4700 279.0000 1.0000
66.4800 277.0000 1.0000
66.4900 284.0000 1.0000
66.5000 272.0000 1.0000
66.5100 267.0000 1.0000
66.5200 255.0000 1.0000
66.5300 293.0000 1.0000
66.5400 270.0000 1.0000
66.5500 245.0000 1.0000
66.5600 246.0000 1.0000
66.5700 269.0000 1.0000
66.5800 251.0000 1.0000
66.5900 255.0000 1.0000
66.6000 240.0000 1.0000
66.6100 246.0000 1.0000
66.6200 237.0000 1.0000
66.6300 244.0000 1.0000
66.6400 248.0000 1.0000
66.6500 258.0000 1.0000
66.6600 279.0000 1.0000
66.6700 270.0000 1.0000
66.6800 263.0000 1.0000
66.6900 284.0000 1.0000
66.7000 273.0000 1.0000
66.7100 259.0000 1.0000
66.7200 259.0000 1.0000
66.7300 271.0000 1.0000
66.7400 259.0000 1.0000
66.7500 264.0000 1.0000
66.7600 290.0000 1.0000
66.7700 241.0000 1.0000
66.7800 236.0000 1.0000
66.7900 271.0000 1.0000
66.8000 264.0000 1.0000
66.8100 282.0000 1.0000
66.8200 258.0000 1.0000
66.8300 281.0000 1.0000
66.8400 263.0000 1.0000
66.8500 256.0000 1.0000
66.8600 268.0000 1.0000
66.8700 253.0000 1.0000
66.8800 238.0000 1.0000
66.8900 250.0000 1.0000
66.9000 258.0000 1.0000
66.9100 253.0000 1.0000
66.9200 254.0000 1.0000
66.9300 265.0000 1.0000
66.9400 240.0000 1.0000
66.9500 264.0000 1.0000
66.9600 247.0000 1.0000
66.9700 238.0000 1.0000
66.9800 247.0000 1.0000
66.9900 226.0000 1.0000
67.0000 242.0000 1.0000
67.0100 253.0000 1.0000
67.0200 266.0000 1.0000
67.0300 271.0000 1.0000
67.0400 250.0000 1.0000
67.0500 268.0000 1.0000
67.0600 273.0000 1.0000
67.0700 241.0000 1.0000
67.0800 256.0000 1.0000
67.0900 278.0000 1.0000
67.1000 252.0000 1.0000
67.1100 245.0000 1.0000
67.1200 255.0000 1.0000
67.1300 237.0000 1.0000
67.1400 254.0000 1.0000
67.1500 250.0000 1.0000
67.1600 261.0000 1.0000
67.1700 243.0000 1.0000
67.1800 253.0000 1.0000
67.1900 255.0000 1.0000
67.2000 249.0000 1.0000
67.2100 275.0000 1.0000
67.2200 260.0000 1.0000
67.2300 265.0000 1.0000
67.2400 235.0000 1.0000
67.2500 242.0000 1.0000
67.2600 249.0000 1.0000
67.2700 255.0000 1.0000
67.2800 245.0000 1.0000
67.2900 244.0000 1.0000
67.3000 242.0000 1.0000
67.3100 256.0000 1.0000
67.3200 239.0000 1.0000
67.3300 236.0000 1.0000
67.3400 244.0000 1.0000
67.3500 241.0000 1.0000
67.3600 248.0000 1.0000
67.3700 257.0000 1.0000
67.3800 255.0000 1.0000
67.3900 265.0000 1.0000
67.4000 259.0000 1.0000
67.4100 262.0000 1.0000
67.4200 232.0000 1.0000
67.4300 219.0000 1.0000
67.4400 250.0000 1.0000
67.4500 254.0000 1.0000
67.4600 242.0000 1.0000
67.4700 262.0000 1.0000
67.4800 253.0000 1.0000
67.4900 250.0000 1.0000
67.5000 269.0000 1.0000
67.5100 253.0000 1.0000
67.5200 247.0000 1.0000
67.5300 227.0000 1.0000
67.5400 271.0000 1.0000
67.5500 245.0000 1.0000
67.5600 250.0000 1.0000
67.5700 254.0000 1.0000
67.5800 242.0000 1.0000
67.5900 210.0000 1.0000
67.6000 233.0000 1.0000
67.6100 243.0000 1.0000
67.6200 261.0000 1.0000
67.6300 248.0000 1.0000
67.6400 238.0000 1.0000
67.6500 230.0000 1.0000
67.6600 263.0000 1.0000
67.6700 249.0000 1.0000
67.6800 222.0000 1.0000
67.6900 264.0000 1.0000
67.7000 251.0000 1.0000
67.7100 249.0000 1.0000
67.7200 254.0000 1.0000
67.7300 275.0000 1.0000
67.7400 250.0000 1.0000
67.7500 241.0000 1.0000
67.7600 246.0000 1.0000
67.7700 240.0000 1.0000
67.7800 257.0000 1.0000
67.7900 267.0000 1.0000
67.8000 244.0000 1.0000
67.8100 247.0000 1.0000
67.8200 257.0000 1.0000
67.8300 247.0000 1.0000
67.8400 246.0000 1.0000
67.8500 240.0000 1.0000
67.8600 257.0000 1.0000
67.8700 222.0000 1.0000
67.8800 216.0000 1.0000
67.8900 237.0000 1.0000
67.9000 226.0000 1.0000
67.9100 254.0000 1.0000
67.9200 257.0000 1.0000
67.9300 260.0000 1.0000
67.9400 257.0000 1.0000
67.9500 236.0000 1.0000
67.9600 246.0000 1.0000
67.9700 243.0000 1.0000
67.9800 258.0000 1.0000
67.9900 244.0000 1.0000
68.0000 263.0000 1.0000
68.0100 256.0000 1.0000
68.0200 227.0000 1.0000
68.0300 234.0000 1.0000
68.0400 231.0000 1.0000
68.0500 227.0000 1.0000
68.0600 234.0000 1.0000
68.0700 233.0000 1.0000
68.0800 275.0000 1.0000
68.0900 267.0000 1.0000
68.1000 249.0000 1.0000
68.1100 219.0000 1.0000
68.1200 251.0000 1.0000
68.1300 254.0000 1.0000
68.1400 266.0000 1.0000
68.1500 261.0000 1.0000
68.1600 246.0000 1.0000
68.1700 236.0000 1.0000
68.1800 229.0000 1.0000
68.1900 242.0000 1.0000
68.2000 235.0000 1.0000
68.2100 259.0000 1.0000
68.2200 242.0000 1.0000
68.2300 236.0000 1.0000
68.2400 240.0000 1.0000
68.2500 247.0000 1.0000
68.2600 238.0000 1.0000
68.2700 251.0000 1.0000
68.2800 223.0000 1.0000
68.2900 224.0000 1.0000
68.3000 233.0000 1.0000
68.3100 241.0000 1.0000
68.3200 247.0000 1.0000
68.3300 236.0000 1.0000
68.3400 257.0000 1.0000
68.3500 260.0000 1.0000
68.3600 246.0000 1.0000
68.3700 254.0000 1.0000
68.3800 248.0000 1.0000
68.3900 272.0000 1.0000
68.4000 252.0000 1.0000
68.4100 262.0000 1.0000
68.4200 242.0000 1.0000
68.4300 233.0000 1.0000
68.4400 234.0000 1.0000
68.4500 233.0000 1.0000
68.4600 217.0000 1.0000
68.4700 244.0000 1.0000
68.4800 235.0000 1.0000
68.4900 252.0000 1.0000
68.5000 254.0000 1.0000
68.5100 256.0000 1.0000
68.5200 256.0000 1.0000
68.5300 248.0000 1.0000
68.5400 229.0000 1.0000
68.5500 261.0000 1.0000
68.5600 235.0000 1.0000
68.5700 253.0000 1.0000
68.5800 254.0000 1.0000
68.5900 243.0000 1.0000
68.6000 219.0000 1.0000
68.6100 275.0000 1.0000
68.6200 258.0000 1.0000
68.6300 268.0000 1.0000
68.6400 240.0000 1.0000
68.6500 246.0000 1.0000
68.6600 269.0000 1.0000
68.6700 226.0000 1.0000
68.6800 249.0000 1.0000
68.6900 252.0000 1.0000
68.7000 224.0000 1.0000
68.7100 251.0000 1.0000
68.7200 273.0000 1.0000
68.7300 238.0000 1.0000
68.7400 238.0000 1.0000
68.7500 226.0000 1.0000
68.7600 248.0000 1.0000
68.7700 266.0000 1.0000
68.7800 246.0000 1.0000
68.7900 240.0000 1.0000
68.8000 231.0000 1.0000
68.8100 257.0000 1.0000
68.8200 252.0000 1.0000
68.8300 245.0000 1.0000
68.8400 245.0000 1.0000
68.8500 244.0000 1.0000
68.8600 240.0000 1.0000
68.8700 243.0000 1.0000
68.8800 222.0000 1.0000
68.8900 213.0000 1.0000
68.9000 241.0000 1.0000
68.9100 279.0000 1.0000
68.9200 249.0000 1.0000
68.9300 248.0000 1.0000
68.9400 237.0000 1.0000
68.9500 243.0000 1.0000
68.9600 260.0000 1.0000
68.9700 275.0000 1.0000
68.9800 266.0000 1.0000
68.9900 228.0000 1.0000
69.0000 259.0000 1.0000
69.0100 249.0000 1.0000
69.0200 251.0000 1.0000
69.0300 234.0000 1.0000
69.0400 254.0000 1.0000
69.0500 248.0000 1.0000
69.0600 216.0000 1.0000
69.0700 238.0000 1.0000
69.0800 269.0000 1.0000
69.0900 249.0000 1.0000
69.1000 243.0000 1.0000
69.1100 209.0000 1.0000
69.1200 246.0000 1.0000
69.1300 253.0000 1.0000
69.1400 259.0000 1.0000
69.1500 212.0000 1.0000
69.1600 237.0000 1.0000
69.1700 259.0000 1.0000
69.1800 260.0000 1.0000
69.1900 264.0000 1.0000
69.2000 231.0000 1.0000
69.2100 225.0000 1.0000
69.2200 229.0000 1.0000
69.2300 246.0000 1.0000
69.2400 220.0000 1.0000
69.2500 248.0000 1.0000
69.2600 237.0000 1.0000
69.2700 240.0000 1.0000
69.2800 227.0000 1.0000
69.2900 221.0000 1.0000
69.3000 237.0000 1.0000
69.3100 248.0000 1.0000
69.3200 236.0000 1.0000
69.3300 236.0000 1.0000
69.3400 226.0000 1.0000
69.3500 239.0000 1.0000
69.3600 240.0000 1.0000
69.3700 256.0000 1.0000
69.3800 252.0000 1.0000
69.3900 233.0000 1.0000
69.4000 240.0000 1.0000
69.4100 240.0000 1.0000
69.4200 250.0000 1.0000
69.4300 225.0000 1.0000
69.4400 262.0000 1.0000
69.4500 244.0000 1.0000
69.4600 232.0000 1.0000
69.4700 282.0000 1.0000
69.4800 254.0000 1.0000
69.4900 249.0000 1.0000
69.5000 254.0000 1.0000
69.5100 231.0000 1.0000
69.5200 241.0000 1.0000
69.5300 258.0000 1.0000
69.5400 251.0000 1.0000
69.5500 250.0000 1.0000
69.5600 254.0000 1.0000
69.5700 228.0000 1.0000
69.5800 252.0000 1.0000
69.5900 244.0000 1.0000
69.6000 243.0000 1.0000
69.6100 237.0000 1.0000
69.6200 249.0000 1.0000
69.6300 236.0000 1.0000
69.6400 206.0000 1.0000
69.6500 250.0000 1.0000
69.6600 279.0000 1.0000
69.6700 242.0000 1.0000
69.6800 247.0000 1.0000
69.6900 242.0000 1.0000
69.7000 249.0000 1.0000
69.7100 238.0000 1.0000
69.7200 226.0000 1.0000
69.7300 223.0000 1.0000
69.7400 237.0000 1.0000
69.7500 226.0000 1.0000
69.7600 228.0000 1.0000
69.7700 252.0000 1.0000
69.7800 223.0000 1.0000
69.7900 250.0000 1.0000
69.8000 237.0000 1.0000
69.8100 249.0000 1.0000
69.8200 229.0000 1.0000
69.8300 240.0000 1.0000
69.8400 234.0000 1.0000
69.8500 244.0000 1.0000
69.8600 261.0000 1.0000
69.8700 236.0000 1.0000
69.8800 235.0000 1.0000
69.8900 244.0000 1.0000
69.9000 261.0000 1.0000
69.9100 241.0000 1.0000
69.9200 235.0000 1.0000
69.9300 233.0000 1.0000
69.9400 240.0000 1.0000
69.9500 236.0000 1.0000
69.9600 211.0000 1.0000
69.9700 242.0000 1.0000
69.9800 247.0000 1.0000
69.9900 248.0000 1.0000
70.0000 259.0000 1.0000
*RAS_INT_END
*RAS_TEMPERATURE_START
*RAS_TEMPERATURE_END
*RAS_DATA_END
