*RAS_DATA_START
*RAS_HEADER_START
*DISP_FMT_X "%.2f"
*DISP_FMT_Y "%.0f"
*DISP_FULLSCALE "13930.0000000000"
*DISP_LINE_COLOR "255.0000000000"
*DISP_LINE_STYLE "0.0000000000"
*DISP_LINE_WIDTH "0.2500000000"
*DISP_NOTE "測定データ-1"
*DISP_OFFSET_Y "0.0000000000"
*DISP_PEAKSEARCH_UNIT_Y "cps"
*DISP_RANGE_BOTTOM "0.0000000000"
*DISP_RANGE_LEFT "20.0000000000"
*DISP_RANGE_LOGCUTOFF "0.0100000000"
*DISP_RANGE_RIGHT "70.0000000000"
*DISP_RANGE_TOP "13930.0000000000"
*DISP_SCALE_MODE_Y "0.0000000000"
*DISP_TAB_NAME "2θ/θ"
*DISP_TITLE_Y "強度"
*DISP_UNIT_Y "cps"
*DISP_WINDOW_NAME "MSG_MACROENGINE"
*FILE_COMMENT " "
*FILE_MD5 ""
*FILE_MEMO " "
*FILE_OPERATOR "Administrator"
*FILE_SAMPLE " "
*FILE_TYPE "RAS_RAW"
*FILE_USERGROUP "システムマネージャ"
*FILE_VERSION "1.0000000000"
*HW_ATTACHMENT_ID "ATT0025"
*HW_ATTACHMENT_NAME "標準|Standard"
*HW_COUNTER_ID-0 "CUT0025"
*HW_COUNTER_ID-1 "CUT0020"
*HW_COUNTER_ID-2 "CUT0020"
*HW_COUNTER_ID-3 "CSL0021"
*HW_COUNTER_ID-4 "CMC0021"
*HW_COUNTER_NAME-0 "D/teX Ultra|D/teX Ultra"
*HW_COUNTER_NAME-1 "None|None"
*HW_COUNTER_NAME-2 "None|None"
*HW_COUNTER_NAME-3 "BBM|BBM"
*HW_COUNTER_NAME-4 "検出器モノクロメータ|Detector monochromator"
*HW_COUNTER_SELECT_NAME "D/teX Ultra|D/teX Ultra"
*HW_GONIOMETER_ID "GON0023"
*HW_GONIOMETER_NAME "SmartLab|SmartLab"
*HW_GONIOMETER_RADIUS-0 "90.0"
*HW_GONIOMETER_RADIUS-1 "114.0"
*HW_GONIOMETER_RADIUS-2 "190.0"
*HW_GONIOMETER_RADIUS-3 "300.0"
*HW_GONIOMETER_RADIUS-4 "187.0"
*HW_GONIOMETER_RADIUS-5 "300.0"
*HW_GONIOMETER_RADIUS-6 "113.0"
*HW_GONIOMETER_RADIUS-7 "331.0"
*HW_I_OPT_ID-0 "CBO0021"
*HW_I_OPT_ID-1 "ICR0023"
*HW_I_OPT_ID-2 "ISL0021"
*HW_I_OPT_ID-3 "ISO0021"
*HW_I_OPT_ID-4 "IAD0021"
*HW_I_OPT_ID-5 "IPR0001"
*HW_I_OPT_NAME-0 "CBOユニット|CBO unit"
*HW_I_OPT_NAME-1 "標準入射光学ユニット|Standard incident optical unit"
*HW_I_OPT_NAME-2 "標準入射スリットボックス|Standard incident slit box"
*HW_I_OPT_NAME-3 "入射平行スリット|Incident parallel slit"
*HW_I_OPT_NAME-4 "長手制限スリット|Length limiting slit"
*HW_I_OPT_NAME-5 "None|None"
*HW_R_ATTENUATER_AUTOMODE "0"
*HW_R_OPT_ID-0 "RSS0021"
*HW_R_OPT_ID-1 "RCR0023"
*HW_R_OPT_ID-2 "RSO0021"
*HW_R_OPT_ID-3 "RRS0021"
*HW_R_OPT_ID-4 "ATN0021"
*HW_R_OPT_ID-5 "RFL0021"
*HW_R_OPT_ID-6 "RAD0021"
*HW_R_OPT_NAME-0 "標準受光スリットボックス1|Standard receiving slit box # 1"
*HW_R_OPT_NAME-1 "標準受光光学ユニット1|Standard receiving unit # 1"
*HW_R_OPT_NAME-2 "標準受光光学ユニット2|Standard receiving optical unit # 2"
*HW_R_OPT_NAME-3 "標準受光スリットボックス2|Standard receiving slit box # 2"
*HW_R_OPT_NAME-4 "標準アッテネータ|Standard Attenuator"
*HW_R_OPT_NAME-5 "Cu Kβ|Cu K-beta"
*HW_R_OPT_NAME-6 "調整用受光スリット|Alignment receiving slit"
*HW_SAMPLE_HOLDER_ID "SMP0023"
*HW_SAMPLE_HOLDER_NAME "標準Zステージ|Standard Z stage"
*HW_XG_CURRENT_MAX "50"
*HW_XG_CURRENT_MIN "2"
*HW_XG_CURRENT_RESOLUTION "1"
*HW_XG_CURRENT_UNIT "mA"
*HW_XG_FOCUS "1mm x 10mm"
*HW_XG_FOCUS_TYPE "Normal"
*HW_XG_ID ""
*HW_XG_NAME "3kW 封入管(ID:1200)|3kW Sealed tube(ID:1200)"
*HW_XG_TARGET_ATOMIC_NUMBER "29.0000000000"
*HW_XG_TARGET_NAME "Cu"
*HW_XG_TYPE "Hermetic"
*HW_XG_VOLTAGE_MAX "60"
*HW_XG_VOLTAGE_MIN "20"
*HW_XG_VOLTAGE_RESOLUTION "1"
*HW_XG_VOLTAGE_UNIT "kV"
*HW_XG_WATT_MAX "1.500"
*HW_XG_WATT_UNIT "kW"
*HW_XG_WAVE_LENGTH_ALPHA1 "1.540593"
*HW_XG_WAVE_LENGTH_ALPHA2 "1.544414"
*HW_XG_WAVE_LENGTH_BETA "1.392250"
*MEAS_COND_AXIS_NAME-0 "2θ/θ"
*MEAS_COND_AXIS_NAME-1 "2θ"
*MEAS_COND_AXIS_NAME-2 "ω"
*MEAS_COND_AXIS_NAME-3 "Z"
*MEAS_COND_AXIS_NAME-4 "2θ/ω"
*MEAS_COND_AXIS_NAME-5 "θs"
*MEAS_COND_AXIS_NAME-6 "θd"
*MEAS_COND_AXIS_NAME-7 "Ts"
*MEAS_COND_AXIS_NAME-8 "CBO選択スリット"
*MEAS_COND_AXIS_NAME-9 "M"
*MEAS_COND_AXIS_NAME-10 "入射平行スリット"
*MEAS_COND_AXIS_NAME-11 "入射スリット"
*MEAS_COND_AXIS_NAME-12 ""
*MEAS_COND_AXIS_NAME-13 "Zs"
*MEAS_COND_AXIS_NAME-14 "入射光学素子"
*MEAS_COND_AXIS_NAME-15 "長手制限スリット"
*MEAS_COND_AXIS_NAME-16 "センタースリット"
*MEAS_COND_AXIS_NAME-17 "フィルター"
*MEAS_COND_AXIS_NAME-18 "受光スリット1"
*MEAS_COND_AXIS_NAME-19 "受光スリット2"
*MEAS_COND_AXIS_NAME-20 "受光光学素子"
*MEAS_COND_AXIS_NAME-21 "受光平行スリット"
*MEAS_COND_AXIS_NAME-22 "調整用受光スリット"
*MEAS_COND_AXIS_NAME-23 ""
*MEAS_COND_AXIS_NAME-24 ""
*MEAS_COND_AXIS_NAME-25 "Zd"
*MEAS_COND_AXIS_NAME-26 "アッテネータ"
*MEAS_COND_AXIS_NAME-27 "検出器モノクロメータ"
*MEAS_COND_AXIS_NAME-28 "モノクロメータスリット"
*MEAS_COND_AXIS_NAME-29 "プライマリビーム"
*MEAS_COND_AXIS_NAME-30 "PHA"
*MEAS_COND_AXIS_NAME_INTERNAL-0 "TwoThetaTheta"
*MEAS_COND_AXIS_NAME_INTERNAL-1 "TwoTheta"
*MEAS_COND_AXIS_NAME_INTERNAL-2 "Omega"
*MEAS_COND_AXIS_NAME_INTERNAL-3 "Z"
*MEAS_COND_AXIS_NAME_INTERNAL-4 "TwoThetaOmega"
*MEAS_COND_AXIS_NAME_INTERNAL-5 "ThetaS"
*MEAS_COND_AXIS_NAME_INTERNAL-6 "ThetaD"
*MEAS_COND_AXIS_NAME_INTERNAL-7 "Ts"
*MEAS_COND_AXIS_NAME_INTERNAL-8 "CBO"
*MEAS_COND_AXIS_NAME_INTERNAL-9 "CBO-M"
*MEAS_COND_AXIS_NAME_INTERNAL-10 "IncidentSollerSlit"
*MEAS_COND_AXIS_NAME_INTERNAL-11 "IncidentSlitBox"
*MEAS_COND_AXIS_NAME_INTERNAL-12 "IncidentSlitBox-_Axis"
*MEAS_COND_AXIS_NAME_INTERNAL-13 "Zs"
*MEAS_COND_AXIS_NAME_INTERNAL-14 "IncidentMonochromator"
*MEAS_COND_AXIS_NAME_INTERNAL-15 "IncidentAxdSlit"
*MEAS_COND_AXIS_NAME_INTERNAL-16 "CenterSlit"
*MEAS_COND_AXIS_NAME_INTERNAL-17 "Filter"
*MEAS_COND_AXIS_NAME_INTERNAL-18 "ReceivingSlitBox1"
*MEAS_COND_AXIS_NAME_INTERNAL-19 "ReceivingSlitBox2"
*MEAS_COND_AXIS_NAME_INTERNAL-20 "ReceivingOptics"
*MEAS_COND_AXIS_NAME_INTERNAL-21 "ReceivingSollerSlit"
*MEAS_COND_AXIS_NAME_INTERNAL-22 "ReceivingAxdSlit"
*MEAS_COND_AXIS_NAME_INTERNAL-23 "ReceivingSlitBox1-_Axis"
*MEAS_COND_AXIS_NAME_INTERNAL-24 "ReceivingSlitBox2-_Axis"
*MEAS_COND_AXIS_NAME_INTERNAL-25 "ReceivingSlitBox2-Zd"
*MEAS_COND_AXIS_NAME_INTERNAL-26 "Attenuator"
*MEAS_COND_AXIS_NAME_INTERNAL-27 "CounterMonochromator"
*MEAS_COND_AXIS_NAME_INTERNAL-28 "CounterSlit"
*MEAS_COND_AXIS_NAME_INTERNAL-29 "IncidentPrimary"
*MEAS_COND_AXIS_NAME_INTERNAL-30 "PHA"
*MEAS_COND_AXIS_NAME_MAGICNO-0 "83951616.0000000000"
*MEAS_COND_AXIS_NAME_MAGICNO-1 "268632064.0000000000"
*MEAS_COND_AXIS_NAME_MAGICNO-2 "268500992.0000000000"
*MEAS_COND_AXIS_NAME_MAGICNO-3 "285278208.0000000000"
*MEAS_COND_AXIS_NAME_MAGICNO-4 "83951616.0000000000"
*MEAS_COND_AXIS_NAME_MAGICNO-5 "131072.0000000000"
*MEAS_COND_AXIS_NAME_MAGICNO-6 "131072.0000000000"
*MEAS_COND_AXIS_NAME_MAGICNO-7 "318898176.0000000000"
*MEAS_COND_AXIS_NAME_MAGICNO-8 "20971521.0000000000"
*MEAS_COND_AXIS_NAME_MAGICNO-9 "285343744.0000000000"
*MEAS_COND_AXIS_NAME_MAGICNO-10 "20971521.0000000000"
*MEAS_COND_AXIS_NAME_MAGICNO-11 "22020097.0000000000"
*MEAS_COND_AXIS_NAME_MAGICNO-12 "25165824.0000000000"
*MEAS_COND_AXIS_NAME_MAGICNO-13 "318898176.0000000000"
*MEAS_COND_AXIS_NAME_MAGICNO-14 "1.0000000000"
*MEAS_COND_AXIS_NAME_MAGICNO-15 "20971521.0000000000"
*MEAS_COND_AXIS_NAME_MAGICNO-16 "20971521.0000000000"
*MEAS_COND_AXIS_NAME_MAGICNO-17 "20971521.0000000000"
*MEAS_COND_AXIS_NAME_MAGICNO-18 "23068673.0000000000"
*MEAS_COND_AXIS_NAME_MAGICNO-19 "23068673.0000000000"
*MEAS_COND_AXIS_NAME_MAGICNO-20 "20971521.0000000000"
*MEAS_COND_AXIS_NAME_MAGICNO-21 "20971521.0000000000"
*MEAS_COND_AXIS_NAME_MAGICNO-22 "20971521.0000000000"
*MEAS_COND_AXIS_NAME_MAGICNO-23 "25165824.0000000000"
*MEAS_COND_AXIS_NAME_MAGICNO-24 "25165824.0000000000"
*MEAS_COND_AXIS_NAME_MAGICNO-25 "285343744.0000000000"
*MEAS_COND_AXIS_NAME_MAGICNO-26 "17301505.0000000000"
*MEAS_COND_AXIS_NAME_MAGICNO-27 "20971521.0000000000"
*MEAS_COND_AXIS_NAME_MAGICNO-28 "20971521.0000000000"
*MEAS_COND_AXIS_NAME_MAGICNO-29 "20971521.0000000000"
*MEAS_COND_AXIS_NAME_MAGICNO-30 "0.0000000000"
*MEAS_COND_AXIS_OFFSET-0 "-"
*MEAS_COND_AXIS_OFFSET-1 "-0.1081000000"
*MEAS_COND_AXIS_OFFSET-2 "0.3758000000"
*MEAS_COND_AXIS_OFFSET-3 "-"
*MEAS_COND_AXIS_OFFSET-4 "-"
*MEAS_COND_AXIS_OFFSET-5 "0.3758000000"
*MEAS_COND_AXIS_OFFSET-6 "-0.4839000000"
*MEAS_COND_AXIS_OFFSET-7 "-"
*MEAS_COND_AXIS_OFFSET-8 "-"
*MEAS_COND_AXIS_OFFSET-9 "-"
*MEAS_COND_AXIS_OFFSET-10 "-"
*MEAS_COND_AXIS_OFFSET-11 "-"
*MEAS_COND_AXIS_OFFSET-12 "-"
*MEAS_COND_AXIS_OFFSET-13 "-"
*MEAS_COND_AXIS_OFFSET-14 "-"
*MEAS_COND_AXIS_OFFSET-15 "-"
*MEAS_COND_AXIS_OFFSET-16 "-"
*MEAS_COND_AXIS_OFFSET-17 "-"
*MEAS_COND_AXIS_OFFSET-18 "-"
*MEAS_COND_AXIS_OFFSET-19 "-"
*MEAS_COND_AXIS_OFFSET-20 "-"
*MEAS_COND_AXIS_OFFSET-21 "-"
*MEAS_COND_AXIS_OFFSET-22 "-"
*MEAS_COND_AXIS_OFFSET-23 "-"
*MEAS_COND_AXIS_OFFSET-24 "-"
*MEAS_COND_AXIS_OFFSET-25 "-"
*MEAS_COND_AXIS_OFFSET-26 "-"
*MEAS_COND_AXIS_OFFSET-27 "-"
*MEAS_COND_AXIS_OFFSET-28 "-"
*MEAS_COND_AXIS_OFFSET-29 "-"
*MEAS_COND_AXIS_OFFSET-30 "-"
*MEAS_COND_AXIS_POSITION-0 "0.0000000000"
*MEAS_COND_AXIS_POSITION-1 "0.0000000000"
*MEAS_COND_AXIS_POSITION-2 "0.0000000000"
*MEAS_COND_AXIS_POSITION-3 "-0.5500000000"
*MEAS_COND_AXIS_POSITION-4 "0.0000000000"
*MEAS_COND_AXIS_POSITION-5 "0.0000000000"
*MEAS_COND_AXIS_POSITION-6 "0.0000000000"
*MEAS_COND_AXIS_POSITION-7 "-0.4278800000"
*MEAS_COND_AXIS_POSITION-8 "BB"
*MEAS_COND_AXIS_POSITION-9 "0.0000000000"
*MEAS_COND_AXIS_POSITION-10 "Soller_slit_5.0deg"
*MEAS_COND_AXIS_POSITION-11 "2/3deg"
*MEAS_COND_AXIS_POSITION-12 "2.2088000000"
*MEAS_COND_AXIS_POSITION-13 "-0.4140600000"
*MEAS_COND_AXIS_POSITION-14 "0.0000000000"
*MEAS_COND_AXIS_POSITION-15 "10.0mm"
*MEAS_COND_AXIS_POSITION-16 "None"
*MEAS_COND_AXIS_POSITION-17 "Cu_K-beta"
*MEAS_COND_AXIS_POSITION-18 "13.000mm"
*MEAS_COND_AXIS_POSITION-19 "13.000mm"
*MEAS_COND_AXIS_POSITION-20 "No_unit"
*MEAS_COND_AXIS_POSITION-21 "Soller_slit_5.0deg"
*MEAS_COND_AXIS_POSITION-22 "None"
*MEAS_COND_AXIS_POSITION-23 "13.0000000000"
*MEAS_COND_AXIS_POSITION-24 "13.0000000000"
*MEAS_COND_AXIS_POSITION-25 "0.0109400000"
*MEAS_COND_AXIS_POSITION-26 "Open"
*MEAS_COND_AXIS_POSITION-27 "None"
*MEAS_COND_AXIS_POSITION-28 "None"
*MEAS_COND_AXIS_POSITION-29 "None"
*MEAS_COND_AXIS_POSITION-30 "38.0000000000"
*MEAS_COND_AXIS_UNIT-0 "deg"
*MEAS_COND_AXIS_UNIT-1 "deg"
*MEAS_COND_AXIS_UNIT-2 "deg"
*MEAS_COND_AXIS_UNIT-3 "mm"
*MEAS_COND_AXIS_UNIT-4 "deg"
*MEAS_COND_AXIS_UNIT-5 "deg"
*MEAS_COND_AXIS_UNIT-6 "deg"
*MEAS_COND_AXIS_UNIT-7 "mm"
*MEAS_COND_AXIS_UNIT-8 ""
*MEAS_COND_AXIS_UNIT-9 "pulse"
*MEAS_COND_AXIS_UNIT-10 ""
*MEAS_COND_AXIS_UNIT-11 ""
*MEAS_COND_AXIS_UNIT-12 "mm"
*MEAS_COND_AXIS_UNIT-13 "mm"
*MEAS_COND_AXIS_UNIT-14 ""
*MEAS_COND_AXIS_UNIT-15 ""
*MEAS_COND_AXIS_UNIT-16 ""
*MEAS_COND_AXIS_UNIT-17 ""
*MEAS_COND_AXIS_UNIT-18 ""
*MEAS_COND_AXIS_UNIT-19 ""
*MEAS_COND_AXIS_UNIT-20 ""
*MEAS_COND_AXIS_UNIT-21 ""
*MEAS_COND_AXIS_UNIT-22 ""
*MEAS_COND_AXIS_UNIT-23 "mm"
*MEAS_COND_AXIS_UNIT-24 "mm"
*MEAS_COND_AXIS_UNIT-25 "mm"
*MEAS_COND_AXIS_UNIT-26 ""
*MEAS_COND_AXIS_UNIT-27 ""
*MEAS_COND_AXIS_UNIT-28 ""
*MEAS_COND_AXIS_UNIT-29 ""
*MEAS_COND_AXIS_UNIT-30 "div"
*MEAS_COND_COUNTER_CNTLOSS_CORR "0.0000000000"
*MEAS_COND_COUNTER_PHABASE "38.0000000000"
*MEAS_COND_COUNTER_PHAWINDOW "16.0000000000"
*MEAS_COND_COUNTER_PHA_UNIT "div"
*MEAS_COND_COUNTER_TAUDIFF "30.0000000000"
*MEAS_COND_COUNTER_TAUINT "0.0000000000"
*MEAS_COND_IRRADIATION_MODE "OFF"
*MEAS_COND_IRRADIATION_WIDTH ""
*MEAS_COND_OPT_ATTR "集中法"
*MEAS_COND_OPT_NAME "@集中法"
*MEAS_COND_UNSYMMETRIC_MODE "OFF"
*MEAS_COND_XG_CURRENT "30.0000000000"
*MEAS_COND_XG_VOLTAGE "40.0000000000"
*MEAS_COND_XG_WAVE_TYPE "Ka"
*MEAS_DATA_COUNT "5001.0000000000"
*MEAS_SCAN_AXIS_X "2θ/θ"
*MEAS_SCAN_AXIS_X_INTERNAL "TwoThetaTheta"
*MEAS_SCAN_END_TIME "07/29/21 14:37:47"
*MEAS_SCAN_MODE "CONTINUOUS"
*MEAS_SCAN_MONITOR "0"
*MEAS_SCAN_RESOLUTION_X "0.0002"
*MEAS_SCAN_SPEED "2.5"
*MEAS_SCAN_SPEED_UNIT "deg/min"
*MEAS_SCAN_START "20.0000000000"
*MEAS_SCAN_START_TIME "07/29/21 14:16:22"
*MEAS_SCAN_STEP "0.0100000000"
*MEAS_SCAN_STOP "70.0000000000"
*MEAS_SCAN_UNIT_X "deg"
*MEAS_SCAN_UNIT_Y "counts"
*RAS_HEADER_END
*RAS_INT_START
20.0000 691.0000 1.0000
20.0100 643.0000 1.0000
20.0200 696.0000 1.0000
20.0300 682.0000 1.0000
20.0400 655.0000 1.0000
20.0500 683.0000 1.0000
20.0600 691.0000 1.0000
20.0700 668.0000 1.0000
20.0800 680.0000 1.0000
20.0900 682.0000 1.0000
20.1000 669.0000 1.0000
20.1100 695.0000 1.0000
20.1200 685.0000 1.0000
20.1300 669.0000 1.0000
20.1400 713.0000 1.0000
20.1500 686.0000 1.0000
20.1600 697.0000 1.0000
20.1700 690.0000 1.0000
20.1800 692.0000 1.0000
20.1900 661.0000 1.0000
20.2000 683.0000 1.0000
20.2100 643.0000 1.0000
20.2200 672.0000 1.0000
20.2300 699.0000 1.0000
20.2400 680.0000 1.0000
20.2500 713.0000 1.0000
20.2600 699.0000 1.0000
20.2700 692.0000 1.0000
20.2800 731.0000 1.0000
20.2900 708.0000 1.0000
20.3000 684.0000 1.0000
20.3100 652.0000 1.0000
20.3200 638.0000 1.0000
20.3300 654.0000 1.0000
20.3400 699.0000 1.0000
20.3500 677.0000 1.0000
20.3600 699.0000 1.0000
20.3700 687.0000 1.0000
20.3800 668.0000 1.0000
20.3900 705.0000 1.0000
20.4000 709.0000 1.0000
20.4100 704.0000 1.0000
20.4200 695.0000 1.0000
20.4300 701.0000 1.0000
20.4400 697.0000 1.0000
20.4500 634.0000 1.0000
20.4600 645.0000 1.0000
20.4700 693.0000 1.0000
20.4800 682.0000 1.0000
20.4900 673.0000 1.0000
20.5000 683.0000 1.0000
20.5100 612.0000 1.0000
20.5200 686.0000 1.0000
20.5300 683.0000 1.0000
20.5400 679.0000 1.0000
20.5500 668.0000 1.0000
20.5600 698.0000 1.0000
20.5700 714.0000 1.0000
20.5800 686.0000 1.0000
20.5900 696.0000 1.0000
20.6000 639.0000 1.0000
20.6100 657.0000 1.0000
20.6200 696.0000 1.0000
20.6300 690.0000 1.0000
20.6400 689.0000 1.0000
20.6500 691.0000 1.0000
20.6600 734.0000 1.0000
20.6700 700.0000 1.0000
20.6800 666.0000 1.0000
20.6900 696.0000 1.0000
20.7000 682.0000 1.0000
20.7100 653.0000 1.0000
20.7200 663.0000 1.0000
20.7300 661.0000 1.0000
20.7400 689.0000 1.0000
20.7500 669.0000 1.0000
20.7600 704.0000 1.0000
20.7700 727.0000 1.0000
20.7800 682.0000 1.0000
20.7900 716.0000 1.0000
20.8000 675.0000 1.0000
20.8100 694.0000 1.0000
20.8200 695.0000 1.0000
20.8300 707.0000 1.0000
20.8400 717.0000 1.0000
20.8500 701.0000 1.0000
20.8600 706.0000 1.0000
20.8700 695.0000 1.0000
20.8800 688.0000 1.0000
20.8900 737.0000 1.0000
20.9000 719.0000 1.0000
20.9100 716.0000 1.0000
20.9200 665.0000 1.0000
20.9300 684.0000 1.0000
20.9400 704.0000 1.0000
20.9500 676.0000 1.0000
20.9600 712.0000 1.0000
20.9700 686.0000 1.0000
20.9800 653.0000 1.0000
20.9900 672.0000 1.0000
21.0000 700.0000 1.0000
21.0100 704.0000 1.0000
21.0200 716.0000 1.0000
21.0300 688.0000 1.0000
21.0400 684.0000 1.0000
21.0500 664.0000 1.0000
21.0600 701.0000 1.0000
21.0700 678.0000 1.0000
21.0800 687.0000 1.0000
21.0900 689.0000 1.0000
21.1000 682.0000 1.0000
21.1100 704.0000 1.0000
21.1200 726.0000 1.0000
21.1300 722.0000 1.0000
21.1400 688.0000 1.0000
21.1500 679.0000 1.0000
21.1600 678.0000 1.0000
21.1700 669.0000 1.0000
21.1800 726.0000 1.0000
21.1900 657.0000 1.0000
21.2000 671.0000 1.0000
21.2100 697.0000 1.0000
21.2200 689.0000 1.0000
21.2300 646.0000 1.0000
21.2400 676.0000 1.0000
21.2500 656.0000 1.0000
21.2600 676.0000 1.0000
21.2700 712.0000 1.0000
21.2800 709.0000 1.0000
21.2900 698.0000 1.0000
21.3000 684.0000 1.0000
21.3100 650.0000 1.0000
21.3200 669.0000 1.0000
21.3300 728.0000 1.0000
21.3400 685.0000 1.0000
21.3500 629.0000 1.0000
21.3600 655.0000 1.0000
21.3700 673.0000 1.0000
21.3800 724.0000 1.0000
21.3900 697.0000 1.0000
21.4000 687.0000 1.0000
21.4100 681.0000 1.0000
21.4200 666.0000 1.0000
21.4300 653.0000 1.0000
21.4400 719.0000 1.0000
21.4500 667.0000 1.0000
21.4600 694.0000 1.0000
21.4700 707.0000 1.0000
21.4800 668.0000 1.0000
21.4900 710.0000 1.0000
21.5000 729.0000 1.0000
21.5100 732.0000 1.0000
21.5200 655.0000 1.0000
21.5300 680.0000 1.0000
21.5400 702.0000 1.0000
21.5500 716.0000 1.0000
21.5600 702.0000 1.0000
21.5700 704.0000 1.0000
21.5800 666.0000 1.0000
21.5900 672.0000 1.0000
21.6000 703.0000 1.0000
21.6100 708.0000 1.0000
21.6200 661.0000 1.0000
21.6300 674.0000 1.0000
21.6400 734.0000 1.0000
21.6500 715.0000 1.0000
21.6600 676.0000 1.0000
21.6700 681.0000 1.0000
21.6800 699.0000 1.0000
21.6900 706.0000 1.0000
21.7000 707.0000 1.0000
21.7100 678.0000 1.0000
21.7200 705.0000 1.0000
21.7300 668.0000 1.0000
21.7400 759.0000 1.0000
21.7500 698.0000 1.0000
21.7600 729.0000 1.0000
21.7700 705.0000 1.0000
21.7800 722.0000 1.0000
21.7900 723.0000 1.0000
21.8000 682.0000 1.0000
21.8100 698.0000 1.0000
21.8200 761.0000 1.0000
21.8300 660.0000 1.0000
21.8400 664.0000 1.0000
21.8500 662.0000 1.0000
21.8600 738.0000 1.0000
21.8700 693.0000 1.0000
21.8800 703.0000 1.0000
21.8900 705.0000 1.0000
21.9000 668.0000 1.0000
21.9100 693.0000 1.0000
21.9200 704.0000 1.0000
21.9300 713.0000 1.0000
21.9400 669.0000 1.0000
21.9500 691.0000 1.0000
21.9600 735.0000 1.0000
21.9700 673.0000 1.0000
21.9800 704.0000 1.0000
21.9900 705.0000 1.0000
22.0000 721.0000 1.0000
22.0100 697.0000 1.0000
22.0200 696.0000 1.0000
22.0300 711.0000 1.0000
22.0400 707.0000 1.0000
22.0500 705.0000 1.0000
22.0600 698.0000 1.0000
22.0700 701.0000 1.0000
22.0800 681.0000 1.0000
22.0900 694.0000 1.0000
22.1000 709.0000 1.0000
22.1100 708.0000 1.0000
22.1200 751.0000 1.0000
22.1300 715.0000 1.0000
22.1400 695.0000 1.0000
22.1500 740.0000 1.0000
22.1600 677.0000 1.0000
22.1700 682.0000 1.0000
22.1800 685.0000 1.0000
22.1900 699.0000 1.0000
22.2000 695.0000 1.0000
22.2100 720.0000 1.0000
22.2200 702.0000 1.0000
22.2300 705.0000 1.0000
22.2400 732.0000 1.0000
22.2500 700.0000 1.0000
22.2600 669.0000 1.0000
22.2700 733.0000 1.0000
22.2800 693.0000 1.0000
22.2900 701.0000 1.0000
22.3000 731.0000 1.0000
22.3100 732.0000 1.0000
22.3200 678.0000 1.0000
22.3300 725.0000 1.0000
22.3400 697.0000 1.0000
22.3500 685.0000 1.0000
22.3600 647.0000 1.0000
22.3700 673.0000 1.0000
22.3800 744.0000 1.0000
22.3900 709.0000 1.0000
22.4000 741.0000 1.0000
22.4100 757.0000 1.0000
22.4200 675.0000 1.0000
22.4300 705.0000 1.0000
22.4400 695.0000 1.0000
22.4500 699.0000 1.0000
22.4600 717.0000 1.0000
22.4700 718.0000 1.0000
22.4800 690.0000 1.0000
22.4900 773.0000 1.0000
22.5000 723.0000 1.0000
22.5100 737.0000 1.0000
22.5200 710.0000 1.0000
22.5300 679.0000 1.0000
22.5400 695.0000 1.0000
22.5500 716.0000 1.0000
22.5600 726.0000 1.0000
22.5700 681.0000 1.0000
22.5800 711.0000 1.0000
22.5900 704.0000 1.0000
22.6000 681.0000 1.0000
22.6100 680.0000 1.0000
22.6200 667.0000 1.0000
22.6300 723.0000 1.0000
22.6400 741.0000 1.0000
22.6500 718.0000 1.0000
22.6600 746.0000 1.0000
22.6700 679.0000 1.0000
22.6800 698.0000 1.0000
22.6900 697.0000 1.0000
22.7000 713.0000 1.0000
22.7100 732.0000 1.0000
22.7200 714.0000 1.0000
22.7300 727.0000 1.0000
22.7400 687.0000 1.0000
22.7500 731.0000 1.0000
22.7600 732.0000 1.0000
22.7700 649.0000 1.0000
22.7800 665.0000 1.0000
22.7900 747.0000 1.0000
22.8000 665.0000 1.0000
22.8100 661.0000 1.0000
22.8200 706.0000 1.0000
22.8300 735.0000 1.0000
22.8400 716.0000 1.0000
22.8500 657.0000 1.0000
22.8600 728.0000 1.0000
22.8700 721.0000 1.0000
22.8800 677.0000 1.0000
22.8900 696.0000 1.0000
22.9000 685.0000 1.0000
22.9100 717.0000 1.0000
22.9200 731.0000 1.0000
22.9300 716.0000 1.0000
22.9400 662.0000 1.0000
22.9500 723.0000 1.0000
22.9600 699.0000 1.0000
22.9700 712.0000 1.0000
22.9800 718.0000 1.0000
22.9900 664.0000 1.0000
23.0000 693.0000 1.0000
23.0100 713.0000 1.0000
23.0200 708.0000 1.0000
23.0300 746.0000 1.0000
23.0400 707.0000 1.0000
23.0500 679.0000 1.0000
23.0600 745.0000 1.0000
23.0700 748.0000 1.0000
23.0800 703.0000 1.0000
23.0900 673.0000 1.0000
23.1000 713.0000 1.0000
23.1100 749.0000 1.0000
23.1200 732.0000 1.0000
23.1300 750.0000 1.0000
23.1400 734.0000 1.0000
23.1500 732.0000 1.0000
23.1600 734.0000 1.0000
23.1700 754.0000 1.0000
23.1800 729.0000 1.0000
23.1900 712.0000 1.0000
23.2000 737.0000 1.0000
23.2100 726.0000 1.0000
23.2200 726.0000 1.0000
23.2300 691.0000 1.0000
23.2400 691.0000 1.0000
23.2500 666.0000 1.0000
23.2600 751.0000 1.0000
23.2700 742.0000 1.0000
23.2800 720.0000 1.0000
23.2900 750.0000 1.0000
23.3000 723.0000 1.0000
23.3100 721.0000 1.0000
23.3200 721.0000 1.0000
23.3300 737.0000 1.0000
23.3400 749.0000 1.0000
23.3500 709.0000 1.0000
23.3600 743.0000 1.0000
23.3700 769.0000 1.0000
23.3800 747.0000 1.0000
23.3900 764.0000 1.0000
23.4000 789.0000 1.0000
23.4100 733.0000 1.0000
23.4200 701.0000 1.0000
23.4300 775.0000 1.0000
23.4400 720.0000 1.0000
23.4500 736.0000 1.0000
23.4600 718.0000 1.0000
23.4700 700.0000 1.0000
23.4800 696.0000 1.0000
23.4900 712.0000 1.0000
23.5000 689.0000 1.0000
23.5100 727.0000 1.0000
23.5200 670.0000 1.0000
23.5300 758.0000 1.0000
23.5400 741.0000 1.0000
23.5500 725.0000 1.0000
23.5600 732.0000 1.0000
23.5700 698.0000 1.0000
23.5800 704.0000 1.0000
23.5900 680.0000 1.0000
23.6000 703.0000 1.0000
23.6100 739.0000 1.0000
23.6200 728.0000 1.0000
23.6300 741.0000 1.0000
23.6400 666.0000 1.0000
23.6500 689.0000 1.0000
23.6600 732.0000 1.0000
23.6700 736.0000 1.0000
23.6800 735.0000 1.0000
23.6900 698.0000 1.0000
23.7000 708.0000 1.0000
23.7100 752.0000 1.0000
23.7200 748.0000 1.0000
23.7300 762.0000 1.0000
23.7400 727.0000 1.0000
23.7500 728.0000 1.0000
23.7600 722.0000 1.0000
23.7700 704.0000 1.0000
23.7800 757.0000 1.0000
23.7900 736.0000 1.0000
23.8000 720.0000 1.0000
23.8100 739.0000 1.0000
23.8200 747.0000 1.0000
23.8300 754.0000 1.0000
23.8400 742.0000 1.0000
23.8500 714.0000 1.0000
23.8600 702.0000 1.0000
23.8700 726.0000 1.0000
23.8800 732.0000 1.0000
23.8900 708.0000 1.0000
23.9000 719.0000 1.0000
23.9100 744.0000 1.0000
23.9200 707.0000 1.0000
23.9300 731.0000 1.0000
23.9400 703.0000 1.0000
23.9500 733.0000 1.0000
23.9600 712.0000 1.0000
23.9700 749.0000 1.0000
23.9800 730.0000 1.0000
23.9900 721.0000 1.0000
24.0000 740.0000 1.0000
24.0100 673.0000 1.0000
24.0200 721.0000 1.0000
24.0300 737.0000 1.0000
24.0400 696.0000 1.0000
24.0500 728.0000 1.0000
24.0600 732.0000 1.0000
24.0700 743.0000 1.0000
24.0800 707.0000 1.0000
24.0900 757.0000 1.0000
24.1000 758.0000 1.0000
24.1100 727.0000 1.0000
24.1200 712.0000 1.0000
24.1300 715.0000 1.0000
24.1400 706.0000 1.0000
24.1500 689.0000 1.0000
24.1600 698.0000 1.0000
24.1700 762.0000 1.0000
24.1800 727.0000 1.0000
24.1900 660.0000 1.0000
24.2000 710.0000 1.0000
24.2100 700.0000 1.0000
24.2200 750.0000 1.0000
24.2300 735.0000 1.0000
24.2400 696.0000 1.0000
24.2500 744.0000 1.0000
24.2600 719.0000 1.0000
24.2700 713.0000 1.0000
24.2800 700.0000 1.0000
24.2900 722.0000 1.0000
24.3000 718.0000 1.0000
24.3100 698.0000 1.0000
24.3200 738.0000 1.0000
24.3300 744.0000 1.0000
24.3400 712.0000 1.0000
24.3500 725.0000 1.0000
24.3600 720.0000 1.0000
24.3700 721.0000 1.0000
24.3800 765.0000 1.0000
24.3900 736.0000 1.0000
24.4000 696.0000 1.0000
24.4100 724.0000 1.0000
24.4200 704.0000 1.0000
24.4300 742.0000 1.0000
24.4400 730.0000 1.0000
24.4500 709.0000 1.0000
24.4600 691.0000 1.0000
24.4700 702.0000 1.0000
24.4800 691.0000 1.0000
24.4900 748.0000 1.0000
24.5000 718.0000 1.0000
24.5100 693.0000 1.0000
24.5200 716.0000 1.0000
24.5300 746.0000 1.0000
24.5400 738.0000 1.0000
24.5500 707.0000 1.0000
24.5600 717.0000 1.0000
24.5700 719.0000 1.0000
24.5800 737.0000 1.0000
24.5900 763.0000 1.0000
24.6000 793.0000 1.0000
24.6100 730.0000 1.0000
24.6200 730.0000 1.0000
24.6300 725.0000 1.0000
24.6400 733.0000 1.0000
24.6500 708.0000 1.0000
24.6600 715.0000 1.0000
24.6700 728.0000 1.0000
24.6800 754.0000 1.0000
24.6900 720.0000 1.0000
24.7000 768.0000 1.0000
24.7100 750.0000 1.0000
24.7200 716.0000 1.0000
24.7300 751.0000 1.0000
24.7400 743.0000 1.0000
24.7500 735.0000 1.0000
24.7600 813.0000 1.0000
24.7700 752.0000 1.0000
24.7800 716.0000 1.0000
24.7900 727.0000 1.0000
24.8000 734.0000 1.0000
24.8100 738.0000 1.0000
24.8200 730.0000 1.0000
24.8300 723.0000 1.0000
24.8400 745.0000 1.0000
24.8500 744.0000 1.0000
24.8600 701.0000 1.0000
24.8700 743.0000 1.0000
24.8800 764.0000 1.0000
24.8900 761.0000 1.0000
24.9000 739.0000 1.0000
24.9100 761.0000 1.0000
24.9200 781.0000 1.0000
24.9300 756.0000 1.0000
24.9400 716.0000 1.0000
24.9500 751.0000 1.0000
24.9600 744.0000 1.0000
24.9700 757.0000 1.0000
24.9800 768.0000 1.0000
24.9900 761.0000 1.0000
25.0000 739.0000 1.0000
25.0100 737.0000 1.0000
25.0200 775.0000 1.0000
25.0300 779.0000 1.0000
25.0400 763.0000 1.0000
25.0500 749.0000 1.0000
25.0600 763.0000 1.0000
25.0700 749.0000 1.0000
25.0800 737.0000 1.0000
25.0900 760.0000 1.0000
25.1000 764.0000 1.0000
25.1100 746.0000 1.0000
25.1200 713.0000 1.0000
25.1300 743.0000 1.0000
25.1400 754.0000 1.0000
25.1500 760.0000 1.0000
25.1600 722.0000 1.0000
25.1700 712.0000 1.0000
25.1800 753.0000 1.0000
25.1900 757.0000 1.0000
25.2000 757.0000 1.0000
25.2100 717.0000 1.0000
25.2200 741.0000 1.0000
25.2300 738.0000 1.0000
25.2400 736.0000 1.0000
25.2500 712.0000 1.0000
25.2600 810.0000 1.0000
25.2700 733.0000 1.0000
25.2800 756.0000 1.0000
25.2900 757.0000 1.0000
25.3000 784.0000 1.0000
25.3100 717.0000 1.0000
25.3200 728.0000 1.0000
25.3300 758.0000 1.0000
25.3400 780.0000 1.0000
25.3500 781.0000 1.0000
25.3600 768.0000 1.0000
25.3700 737.0000 1.0000
25.3800 743.0000 1.0000
25.3900 707.0000 1.0000
25.4000 791.0000 1.0000
25.4100 775.0000 1.0000
25.4200 752.0000 1.0000
25.4300 735.0000 1.0000
25.4400 739.0000 1.0000
25.4500 729.0000 1.0000
25.4600 700.0000 1.0000
25.4700 765.0000 1.0000
25.4800 764.0000 1.0000
25.4900 744.0000 1.0000
25.5000 737.0000 1.0000
25.5100 732.0000 1.0000
25.5200 732.0000 1.0000
25.5300 732.0000 1.0000
25.5400 728.0000 1.0000
25.5500 686.0000 1.0000
25.5600 732.0000 1.0000
25.5700 732.0000 1.0000
25.5800 764.0000 1.0000
25.5900 761.0000 1.0000
25.6000 734.0000 1.0000
25.6100 693.0000 1.0000
25.6200 721.0000 1.0000
25.6300 733.0000 1.0000
25.6400 785.0000 1.0000
25.6500 777.0000 1.0000
25.6600 770.0000 1.0000
25.6700 758.0000 1.0000
25.6800 746.0000 1.0000
25.6900 743.0000 1.0000
25.7000 736.0000 1.0000
25.7100 752.0000 1.0000
25.7200 725.0000 1.0000
25.7300 742.0000 1.0000
25.7400 749.0000 1.0000
25.7500 725.0000 1.0000
25.7600 754.0000 1.0000
25.7700 763.0000 1.0000
25.7800 745.0000 1.0000
25.7900 735.0000 1.0000
25.8000 812.0000 1.0000
25.8100 736.0000 1.0000
25.8200 753.0000 1.0000
25.8300 759.0000 1.0000
25.8400 722.0000 1.0000
25.8500 709.0000 1.0000
25.8600 723.0000 1.0000
25.8700 730.0000 1.0000
25.8800 721.0000 1.0000
25.8900 724.0000 1.0000
25.9000 708.0000 1.0000
25.9100 724.0000 1.0000
25.9200 761.0000 1.0000
25.9300 751.0000 1.0000
25.9400 704.0000 1.0000
25.9500 733.0000 1.0000
25.9600 785.0000 1.0000
25.9700 735.0000 1.0000
25.9800 767.0000 1.0000
25.9900 768.0000 1.0000
26.0000 734.0000 1.0000
26.0100 728.0000 1.0000
26.0200 754.0000 1.0000
26.0300 699.0000 1.0000
26.0400 745.0000 1.0000
26.0500 766.0000 1.0000
26.0600 754.0000 1.0000
26.0700 765.0000 1.0000
26.0800 779.0000 1.0000
26.0900 766.0000 1.0000
26.1000 776.0000 1.0000
26.1100 742.0000 1.0000
26.1200 724.0000 1.0000
26.1300 709.0000 1.0000
26.1400 715.0000 1.0000
26.1500 748.0000 1.0000
26.1600 750.0000 1.0000
26.1700 720.0000 1.0000
26.1800 761.0000 1.0000
26.1900 768.0000 1.0000
26.2000 730.0000 1.0000
26.2100 710.0000 1.0000
26.2200 752.0000 1.0000
26.2300 743.0000 1.0000
26.2400 752.0000 1.0000
26.2500 739.0000 1.0000
26.2600 758.0000 1.0000
26.2700 747.0000 1.0000
26.2800 755.0000 1.0000
26.2900 748.0000 1.0000
26.3000 733.0000 1.0000
26.3100 772.0000 1.0000
26.3200 746.0000 1.0000
26.3300 758.0000 1.0000
26.3400 755.0000 1.0000
26.3500 745.0000 1.0000
26.3600 735.0000 1.0000
26.3700 740.0000 1.0000
26.3800 768.0000 1.0000
26.3900 755.0000 1.0000
26.4000 786.0000 1.0000
26.4100 758.0000 1.0000
26.4200 753.0000 1.0000
26.4300 780.0000 1.0000
26.4400 748.0000 1.0000
26.4500 737.0000 1.0000
26.4600 777.0000 1.0000
26.4700 720.0000 1.0000
26.4800 751.0000 1.0000
26.4900 727.0000 1.0000
26.5000 786.0000 1.0000
26.5100 748.0000 1.0000
26.5200 745.0000 1.0000
26.5300 711.0000 1.0000
26.5400 798.0000 1.0000
26.5500 756.0000 1.0000
26.5600 769.0000 1.0000
26.5700 725.0000 1.0000
26.5800 740.0000 1.0000
26.5900 750.0000 1.0000
26.6000 784.0000 1.0000
26.6100 760.0000 1.0000
26.6200 767.0000 1.0000
26.6300 782.0000 1.0000
26.6400 759.0000 1.0000
26.6500 795.0000 1.0000
26.6600 790.0000 1.0000
26.6700 839.0000 1.0000
26.6800 773.0000 1.0000
26.6900 747.0000 1.0000
26.7000 824.0000 1.0000
26.7100 792.0000 1.0000
26.7200 806.0000 1.0000
26.7300 779.0000 1.0000
26.7400 790.0000 1.0000
26.7500 751.0000 1.0000
26.7600 759.0000 1.0000
26.7700 797.0000 1.0000
26.7800 766.0000 1.0000
26.7900 822.0000 1.0000
26.8000 844.0000 1.0000
26.8100 787.0000 1.0000
26.8200 798.0000 1.0000
26.8300 725.0000 1.0000
26.8400 798.0000 1.0000
26.8500 798.0000 1.0000
26.8600 837.0000 1.0000
26.8700 816.0000 1.0000
26.8800 823.0000 1.0000
26.8900 872.0000 1.0000
26.9000 860.0000 1.0000
26.9100 776.0000 1.0000
26.9200 803.0000 1.0000
26.9300 822.0000 1.0000
26.9400 845.0000 1.0000
26.9500 848.0000 1.0000
26.9600 878.0000 1.0000
26.9700 922.0000 1.0000
26.9800 977.0000 1.0000
26.9900 915.0000 1.0000
27.0000 974.0000 1.0000
27.0100 946.0000 1.0000
27.0200 989.0000 1.0000
27.0300 1035.0000 1.0000
27.0400 989.0000 1.0000
27.0500 998.0000 1.0000
27.0600 1066.0000 1.0000
27.0700 1089.0000 1.0000
27.0800 1101.0000 1.0000
27.0900 1115.0000 1.0000
27.1000 1110.0000 1.0000
27.1100 1222.0000 1.0000
27.1200 1209.0000 1.0000
27.1300 1246.0000 1.0000
27.1400 1287.0000 1.0000
27.1500 1357.0000 1.0000
27.1600 1390.0000 1.0000
27.1700 1425.0000 1.0000
27.1800 1533.0000 1.0000
27.1900 1584.0000 1.0000
27.2000 1741.0000 1.0000
27.2100 1757.0000 1.0000
27.2200 1913.0000 1.0000
27.2300 1934.0000 1.0000
27.2400 2072.0000 1.0000
27.2500 2165.0000 1.0000
27.2600 2371.0000 1.0000
27.2700 2396.0000 1.0000
27.2800 2417.0000 1.0000
27.2900 2509.0000 1.0000
27.3000 2658.0000 1.0000
27.3100 2704.0000 1.0000
27.3200 2786.0000 1.0000
27.3300 2760.0000 1.0000
27.3400 2751.0000 1.0000
27.3500 2728.0000 1.0000
27.3600 2613.0000 1.0000
27.3700 2495.0000 1.0000
27.3800 2415.0000 1.0000
27.3900 2417.0000 1.0000
27.4000 2360.0000 1.0000
27.4100 2157.0000 1.0000
27.4200 2113.0000 1.0000
27.4300 1937.0000 1.0000
27.4400 1874.0000 1.0000
27.4500 1738.0000 1.0000
27.4600 1618.0000 1.0000
27.4700 1489.0000 1.0000
27.4800 1482.0000 1.0000
27.4900 1447.0000 1.0000
27.5000 1394.0000 1.0000
27.5100 1298.0000 1.0000
27.5200 1334.0000 1.0000
27.5300 1239.0000 1.0000
27.5400 1163.0000 1.0000
27.5500 1136.0000 1.0000
27.5600 1153.0000 1.0000
27.5700 1105.0000 1.0000
27.5800 1079.0000 1.0000
27.5900 1049.0000 1.0000
27.6000 1054.0000 1.0000
27.6100 1004.0000 1.0000
27.6200 982.0000 1.0000
27.6300 967.0000 1.0000
27.6400 944.0000 1.0000
27.6500 948.0000 1.0000
27.6600 974.0000 1.0000
27.6700 944.0000 1.0000
27.6800 889.0000 1.0000
27.6900 865.0000 1.0000
27.7000 848.0000 1.0000
27.7100 856.0000 1.0000
27.7200 864.0000 1.0000
27.7300 856.0000 1.0000
27.7400 828.0000 1.0000
27.7500 827.0000 1.0000
27.7600 792.0000 1.0000
27.7700 819.0000 1.0000
27.7800 814.0000 1.0000
27.7900 805.0000 1.0000
27.8000 847.0000 1.0000
27.8100 894.0000 1.0000
27.8200 809.0000 1.0000
27.8300 793.0000 1.0000
27.8400 780.0000 1.0000
27.8500 747.0000 1.0000
27.8600 831.0000 1.0000
27.8700 819.0000 1.0000
27.8800 811.0000 1.0000
27.8900 788.0000 1.0000
27.9000 792.0000 1.0000
27.9100 762.0000 1.0000
27.9200 715.0000 1.0000
27.9300 708.0000 1.0000
27.9400 744.0000 1.0000
27.9500 747.0000 1.0000
27.9600 731.0000 1.0000
27.9700 754.0000 1.0000
27.9800 744.0000 1.0000
27.9900 761.0000 1.0000
28.0000 745.0000 1.0000
28.0100 740.0000 1.0000
28.0200 733.0000 1.0000
28.0300 728.0000 1.0000
28.0400 748.0000 1.0000
28.0500 718.0000 1.0000
28.0600 721.0000 1.0000
28.0700 729.0000 1.0000
28.0800 709.0000 1.0000
28.0900 712.0000 1.0000
28.1000 729.0000 1.0000
28.1100 696.0000 1.0000
28.1200 715.0000 1.0000
28.1300 690.0000 1.0000
28.1400 749.0000 1.0000
28.1500 706.0000 1.0000
28.1600 752.0000 1.0000
28.1700 719.0000 1.0000
28.1800 721.0000 1.0000
28.1900 685.0000 1.0000
28.2000 730.0000 1.0000
28.2100 719.0000 1.0000
28.2200 684.0000 1.0000
28.2300 721.0000 1.0000
28.2400 687.0000 1.0000
28.2500 721.0000 1.0000
28.2600 754.0000 1.0000
28.2700 727.0000 1.0000
28.2800 728.0000 1.0000
28.2900 718.0000 1.0000
28.3000 723.0000 1.0000
28.3100 718.0000 1.0000
28.3200 670.0000 1.0000
28.3300 715.0000 1.0000
28.3400 723.0000 1.0000
28.3500 742.0000 1.0000
28.3600 693.0000 1.0000
28.3700 694.0000 1.0000
28.3800 699.0000 1.0000
28.3900 683.0000 1.0000
28.4000 702.0000 1.0000
28.4100 666.0000 1.0000
28.4200 698.0000 1.0000
28.4300 716.0000 1.0000
28.4400 711.0000 1.0000
28.4500 669.0000 1.0000
28.4600 674.0000 1.0000
28.4700 636.0000 1.0000
28.4800 694.0000 1.0000
28.4900 708.0000 1.0000
28.5000 669.0000 1.0000
28.5100 675.0000 1.0000
28.5200 737.0000 1.0000
28.5300 719.0000 1.0000
28.5400 670.0000 1.0000
28.5500 694.0000 1.0000
28.5600 688.0000 1.0000
28.5700 671.0000 1.0000
28.5800 750.0000 1.0000
28.5900 731.0000 1.0000
28.6000 739.0000 1.0000
28.6100 707.0000 1.0000
28.6200 691.0000 1.0000
28.6300 642.0000 1.0000
28.6400 698.0000 1.0000
28.6500 700.0000 1.0000
28.6600 694.0000 1.0000
28.6700 678.0000 1.0000
28.6800 677.0000 1.0000
28.6900 657.0000 1.0000
28.7000 700.0000 1.0000
28.7100 663.0000 1.0000
28.7200 659.0000 1.0000
28.7300 699.0000 1.0000
28.7400 686.0000 1.0000
28.7500 691.0000 1.0000
28.7600 693.0000 1.0000
28.7700 648.0000 1.0000
28.7800 703.0000 1.0000
28.7900 695.0000 1.0000
28.8000 657.0000 1.0000
28.8100 664.0000 1.0000
28.8200 658.0000 1.0000
28.8300 684.0000 1.0000
28.8400 709.0000 1.0000
28.8500 713.0000 1.0000
28.8600 692.0000 1.0000
28.8700 647.0000 1.0000
28.8800 659.0000 1.0000
28.8900 702.0000 1.0000
28.9000 654.0000 1.0000
28.9100 704.0000 1.0000
28.9200 672.0000 1.0000
28.9300 673.0000 1.0000
28.9400 716.0000 1.0000
28.9500 694.0000 1.0000
28.9600 706.0000 1.0000
28.9700 695.0000 1.0000
28.9800 687.0000 1.0000
28.9900 657.0000 1.0000
29.0000 677.0000 1.0000
29.0100 662.0000 1.0000
29.0200 678.0000 1.0000
29.0300 725.0000 1.0000
29.0400 698.0000 1.0000
29.0500 683.0000 1.0000
29.0600 720.0000 1.0000
29.0700 766.0000 1.0000
29.0800 824.0000 1.0000
29.0900 894.0000 1.0000
29.1000 893.0000 1.0000
29.1100 881.0000 1.0000
29.1200 801.0000 1.0000
29.1300 783.0000 1.0000
29.1400 763.0000 1.0000
29.1500 791.0000 1.0000
29.1600 830.0000 1.0000
29.1700 868.0000 1.0000
29.1800 825.0000 1.0000
29.1900 771.0000 1.0000
29.2000 724.0000 1.0000
29.2100 745.0000 1.0000
29.2200 750.0000 1.0000
29.2300 723.0000 1.0000
29.2400 730.0000 1.0000
29.2500 711.0000 1.0000
29.2600 687.0000 1.0000
29.2700 663.0000 1.0000
29.2800 672.0000 1.0000
29.2900 693.0000 1.0000
29.3000 627.0000 1.0000
29.3100 671.0000 1.0000
29.3200 612.0000 1.0000
29.3300 677.0000 1.0000
29.3400 645.0000 1.0000
29.3500 677.0000 1.0000
29.3600 656.0000 1.0000
29.3700 659.0000 1.0000
29.3800 624.0000 1.0000
29.3900 636.0000 1.0000
29.4000 661.0000 1.0000
29.4100 655.0000 1.0000
29.4200 664.0000 1.0000
29.4300 684.0000 1.0000
29.4400 678.0000 1.0000
29.4500 618.0000 1.0000
29.4600 661.0000 1.0000
29.4700 654.0000 1.0000
29.4800 645.0000 1.0000
29.4900 656.0000 1.0000
29.5000 649.0000 1.0000
29.5100 663.0000 1.0000
29.5200 641.0000 1.0000
29.5300 651.0000 1.0000
29.5400 668.0000 1.0000
29.5500 670.0000 1.0000
29.5600 628.0000 1.0000
29.5700 642.0000 1.0000
29.5800 658.0000 1.0000
29.5900 678.0000 1.0000
29.6000 679.0000 1.0000
29.6100 677.0000 1.0000
29.6200 613.0000 1.0000
29.6300 657.0000 1.0000
29.6400 682.0000 1.0000
29.6500 690.0000 1.0000
29.6600 694.0000 1.0000
29.6700 650.0000 1.0000
29.6800 648.0000 1.0000
29.6900 642.0000 1.0000
29.7000 648.0000 1.0000
29.7100 646.0000 1.0000
29.7200 642.0000 1.0000
29.7300 669.0000 1.0000
29.7400 639.0000 1.0000
29.7500 649.0000 1.0000
29.7600 646.0000 1.0000
29.7700 692.0000 1.0000
29.7800 626.0000 1.0000
29.7900 659.0000 1.0000
29.8000 661.0000 1.0000
29.8100 649.0000 1.0000
29.8200 653.0000 1.0000
29.8300 608.0000 1.0000
29.8400 613.0000 1.0000
29.8500 648.0000 1.0000
29.8600 639.0000 1.0000
29.8700 614.0000 1.0000
29.8800 612.0000 1.0000
29.8900 603.0000 1.0000
29.9000 691.0000 1.0000
29.9100 693.0000 1.0000
29.9200 609.0000 1.0000
29.9300 640.0000 1.0000
29.9400 639.0000 1.0000
29.9500 622.0000 1.0000
29.9600 638.0000 1.0000
29.9700 679.0000 1.0000
29.9800 639.0000 1.0000
29.9900 669.0000 1.0000
30.0000 641.0000 1.0000
30.0100 709.0000 1.0000
30.0200 641.0000 1.0000
30.0300 657.0000 1.0000
30.0400 640.0000 1.0000
30.0500 611.0000 1.0000
30.0600 614.0000 1.0000
30.0700 661.0000 1.0000
30.0800 610.0000 1.0000
30.0900 662.0000 1.0000
30.1000 656.0000 1.0000
30.1100 633.0000 1.0000
30.1200 667.0000 1.0000
30.1300 634.0000 1.0000
30.1400 625.0000 1.0000
30.1500 635.0000 1.0000
30.1600 651.0000 1.0000
30.1700 648.0000 1.0000
30.1800 612.0000 1.0000
30.1900 663.0000 1.0000
30.2000 602.0000 1.0000
30.2100 638.0000 1.0000
30.2200 650.0000 1.0000
30.2300 644.0000 1.0000
30.2400 661.0000 1.0000
30.2500 640.0000 1.0000
30.2600 647.0000 1.0000
30.2700 675.0000 1.0000
30.2800 602.0000 1.0000
30.2900 635.0000 1.0000
30.3000 626.0000 1.0000
30.3100 650.0000 1.0000
30.3200 670.0000 1.0000
30.3300 615.0000 1.0000
30.3400 615.0000 1.0000
30.3500 613.0000 1.0000
30.3600 628.0000 1.0000
30.3700 623.0000 1.0000
30.3800 620.0000 1.0000
30.3900 620.0000 1.0000
30.4000 639.0000 1.0000
30.4100 642.0000 1.0000
30.4200 590.0000 1.0000
30.4300 636.0000 1.0000
30.4400 638.0000 1.0000
30.4500 662.0000 1.0000
30.4600 628.0000 1.0000
30.4700 679.0000 1.0000
30.4800 653.0000 1.0000
30.4900 617.0000 1.0000
30.5000 589.0000 1.0000
30.5100 635.0000 1.0000
30.5200 661.0000 1.0000
30.5300 641.0000 1.0000
30.5400 602.0000 1.0000
30.5500 602.0000 1.0000
30.5600 613.0000 1.0000
30.5700 638.0000 1.0000
30.5800 676.0000 1.0000
30.5900 675.0000 1.0000
30.6000 609.0000 1.0000
30.6100 678.0000 1.0000
30.6200 621.0000 1.0000
30.6300 595.0000 1.0000
30.6400 642.0000 1.0000
30.6500 652.0000 1.0000
30.6600 675.0000 1.0000
30.6700 636.0000 1.0000
30.6800 632.0000 1.0000
30.6900 599.0000 1.0000
30.7000 626.0000 1.0000
30.7100 603.0000 1.0000
30.7200 625.0000 1.0000
30.7300 664.0000 1.0000
30.7400 623.0000 1.0000
30.7500 618.0000 1.0000
30.7600 630.0000 1.0000
30.7700 612.0000 1.0000
30.7800 617.0000 1.0000
30.7900 600.0000 1.0000
30.8000 604.0000 1.0000
30.8100 632.0000 1.0000
30.8200 634.0000 1.0000
30.8300 636.0000 1.0000
30.8400 635.0000 1.0000
30.8500 649.0000 1.0000
30.8600 606.0000 1.0000
30.8700 644.0000 1.0000
30.8800 634.0000 1.0000
30.8900 596.0000 1.0000
30.9000 629.0000 1.0000
30.9100 619.0000 1.0000
30.9200 637.0000 1.0000
30.9300 614.0000 1.0000
30.9400 610.0000 1.0000
30.9500 590.0000 1.0000
30.9600 593.0000 1.0000
30.9700 625.0000 1.0000
30.9800 622.0000 1.0000
30.9900 602.0000 1.0000
31.0000 627.0000 1.0000
31.0100 628.0000 1.0000
31.0200 627.0000 1.0000
31.0300 634.0000 1.0000
31.0400 611.0000 1.0000
31.0500 647.0000 1.0000
31.0600 623.0000 1.0000
31.0700 637.0000 1.0000
31.0800 603.0000 1.0000
31.0900 621.0000 1.0000
31.1000 584.0000 1.0000
31.1100 607.0000 1.0000
31.1200 649.0000 1.0000
31.1300 616.0000 1.0000
31.1400 602.0000 1.0000
31.1500 646.0000 1.0000
31.1600 663.0000 1.0000
31.1700 634.0000 1.0000
31.1800 641.0000 1.0000
31.1900 627.0000 1.0000
31.2000 605.0000 1.0000
31.2100 614.0000 1.0000
31.2200 596.0000 1.0000
31.2300 643.0000 1.0000
31.2400 609.0000 1.0000
31.2500 603.0000 1.0000
31.2600 665.0000 1.0000
31.2700 588.0000 1.0000
31.2800 602.0000 1.0000
31.2900 631.0000 1.0000
31.3000 589.0000 1.0000
31.3100 640.0000 1.0000
31.3200 621.0000 1.0000
31.3300 642.0000 1.0000
31.3400 609.0000 1.0000
31.3500 606.0000 1.0000
31.3600 608.0000 1.0000
31.3700 644.0000 1.0000
31.3800 610.0000 1.0000
31.3900 610.0000 1.0000
31.4000 615.0000 1.0000
31.4100 584.0000 1.0000
31.4200 598.0000 1.0000
31.4300 595.0000 1.0000
31.4400 598.0000 1.0000
31.4500 575.0000 1.0000
31.4600 594.0000 1.0000
31.4700 590.0000 1.0000
31.4800 595.0000 1.0000
31.4900 574.0000 1.0000
31.5000 590.0000 1.0000
31.5100 580.0000 1.0000
31.5200 649.0000 1.0000
31.5300 572.0000 1.0000
31.5400 601.0000 1.0000
31.5500 623.0000 1.0000
31.5600 582.0000 1.0000
31.5700 596.0000 1.0000
31.5800 575.0000 1.0000
31.5900 596.0000 1.0000
31.6000 606.0000 1.0000
31.6100 619.0000 1.0000
31.6200 630.0000 1.0000
31.6300 599.0000 1.0000
31.6400 651.0000 1.0000
31.6500 606.0000 1.0000
31.6600 568.0000 1.0000
31.6700 593.0000 1.0000
31.6800 617.0000 1.0000
31.6900 602.0000 1.0000
31.7000 582.0000 1.0000
31.7100 639.0000 1.0000
31.7200 607.0000 1.0000
31.7300 594.0000 1.0000
31.7400 599.0000 1.0000
31.7500 597.0000 1.0000
31.7600 571.0000 1.0000
31.7700 584.0000 1.0000
31.7800 600.0000 1.0000
31.7900 634.0000 1.0000
31.8000 614.0000 1.0000
31.8100 599.0000 1.0000
31.8200 588.0000 1.0000
31.8300 591.0000 1.0000
31.8400 608.0000 1.0000
31.8500 590.0000 1.0000
31.8600 598.0000 1.0000
31.8700 621.0000 1.0000
31.8800 634.0000 1.0000
31.8900 590.0000 1.0000
31.9000 634.0000 1.0000
31.9100 610.0000 1.0000
31.9200 628.0000 1.0000
31.9300 636.0000 1.0000
31.9400 594.0000 1.0000
31.9500 617.0000 1.0000
31.9600 626.0000 1.0000
31.9700 620.0000 1.0000
31.9800 632.0000 1.0000
31.9900 641.0000 1.0000
32.0000 623.0000 1.0000
32.0100 643.0000 1.0000
32.0200 619.0000 1.0000
32.0300 623.0000 1.0000
32.0400 630.0000 1.0000
32.0500 622.0000 1.0000
32.0600 565.0000 1.0000
32.0700 595.0000 1.0000
32.0800 624.0000 1.0000
32.0900 576.0000 1.0000
32.1000 604.0000 1.0000
32.1100 580.0000 1.0000
32.1200 582.0000 1.0000
32.1300 646.0000 1.0000
32.1400 624.0000 1.0000
32.1500 644.0000 1.0000
32.1600 593.0000 1.0000
32.1700 607.0000 1.0000
32.1800 588.0000 1.0000
32.1900 618.0000 1.0000
32.2000 600.0000 1.0000
32.2100 581.0000 1.0000
32.2200 594.0000 1.0000
32.2300 639.0000 1.0000
32.2400 581.0000 1.0000
32.2500 580.0000 1.0000
32.2600 603.0000 1.0000
32.2700 612.0000 1.0000
32.2800 601.0000 1.0000
32.2900 577.0000 1.0000
32.3000 560.0000 1.0000
32.3100 534.0000 1.0000
32.3200 597.0000 1.0000
32.3300 579.0000 1.0000
32.3400 593.0000 1.0000
32.3500 587.0000 1.0000
32.3600 598.0000 1.0000
32.3700 642.0000 1.0000
32.3800 615.0000 1.0000
32.3900 622.0000 1.0000
32.4000 599.0000 1.0000
32.4100 569.0000 1.0000
32.4200 582.0000 1.0000
32.4300 578.0000 1.0000
32.4400 600.0000 1.0000
32.4500 559.0000 1.0000
32.4600 528.0000 1.0000
32.4700 578.0000 1.0000
32.4800 545.0000 1.0000
32.4900 552.0000 1.0000
32.5000 584.0000 1.0000
32.5100 575.0000 1.0000
32.5200 596.0000 1.0000
32.5300 595.0000 1.0000
32.5400 594.0000 1.0000
32.5500 589.0000 1.0000
32.5600 570.0000 1.0000
32.5700 571.0000 1.0000
32.5800 588.0000 1.0000
32.5900 572.0000 1.0000
32.6000 577.0000 1.0000
32.6100 575.0000 1.0000
32.6200 549.0000 1.0000
32.6300 590.0000 1.0000
32.6400 566.0000 1.0000
32.6500 593.0000 1.0000
32.6600 570.0000 1.0000
32.6700 592.0000 1.0000
32.6800 601.0000 1.0000
32.6900 630.0000 1.0000
32.7000 611.0000 1.0000
32.7100 601.0000 1.0000
32.7200 592.0000 1.0000
32.7300 587.0000 1.0000
32.7400 582.0000 1.0000
32.7500 557.0000 1.0000
32.7600 532.0000 1.0000
32.7700 563.0000 1.0000
32.7800 591.0000 1.0000
32.7900 608.0000 1.0000
32.8000 621.0000 1.0000
32.8100 577.0000 1.0000
32.8200 572.0000 1.0000
32.8300 567.0000 1.0000
32.8400 544.0000 1.0000
32.8500 577.0000 1.0000
32.8600 540.0000 1.0000
32.8700 571.0000 1.0000
32.8800 593.0000 1.0000
32.8900 595.0000 1.0000
32.9000 610.0000 1.0000
32.9100 589.0000 1.0000
32.9200 555.0000 1.0000
32.9300 574.0000 1.0000
32.9400 597.0000 1.0000
32.9500 556.0000 1.0000
32.9600 562.0000 1.0000
32.9700 579.0000 1.0000
32.9800 529.0000 1.0000
32.9900 515.0000 1.0000
33.0000 570.0000 1.0000
33.0100 585.0000 1.0000
33.0200 571.0000 1.0000
33.0300 544.0000 1.0000
33.0400 590.0000 1.0000
33.0500 549.0000 1.0000
33.0600 581.0000 1.0000
33.0700 590.0000 1.0000
33.0800 576.0000 1.0000
33.0900 563.0000 1.0000
33.1000 572.0000 1.0000
33.1100 599.0000 1.0000
33.1200 571.0000 1.0000
33.1300 569.0000 1.0000
33.1400 533.0000 1.0000
33.1500 587.0000 1.0000
33.1600 579.0000 1.0000
33.1700 556.0000 1.0000
33.1800 571.0000 1.0000
33.1900 581.0000 1.0000
33.2000 613.0000 1.0000
33.2100 559.0000 1.0000
33.2200 553.0000 1.0000
33.2300 594.0000 1.0000
33.2400 573.0000 1.0000
33.2500 586.0000 1.0000
33.2600 616.0000 1.0000
33.2700 589.0000 1.0000
33.2800 598.0000 1.0000
33.2900 541.0000 1.0000
33.3000 588.0000 1.0000
33.3100 550.0000 1.0000
33.3200 530.0000 1.0000
33.3300 516.0000 1.0000
33.3400 587.0000 1.0000
33.3500 571.0000 1.0000
33.3600 568.0000 1.0000
33.3700 554.0000 1.0000
33.3800 551.0000 1.0000
33.3900 606.0000 1.0000
33.4000 566.0000 1.0000
33.4100 610.0000 1.0000
33.4200 607.0000 1.0000
33.4300 598.0000 1.0000
33.4400 589.0000 1.0000
33.4500 589.0000 1.0000
33.4600 578.0000 1.0000
33.4700 578.0000 1.0000
33.4800 613.0000 1.0000
33.4900 612.0000 1.0000
33.5000 599.0000 1.0000
33.5100 556.0000 1.0000
33.5200 557.0000 1.0000
33.5300 582.0000 1.0000
33.5400 603.0000 1.0000
33.5500 541.0000 1.0000
33.5600 539.0000 1.0000
33.5700 580.0000 1.0000
33.5800 535.0000 1.0000
33.5900 589.0000 1.0000
33.6000 582.0000 1.0000
33.6100 615.0000 1.0000
33.6200 568.0000 1.0000
33.6300 547.0000 1.0000
33.6400 625.0000 1.0000
33.6500 603.0000 1.0000
33.6600 563.0000 1.0000
33.6700 572.0000 1.0000
33.6800 577.0000 1.0000
33.6900 569.0000 1.0000
33.7000 588.0000 1.0000
33.7100 573.0000 1.0000
33.7200 564.0000 1.0000
33.7300 559.0000 1.0000
33.7400 633.0000 1.0000
33.7500 629.0000 1.0000
33.7600 596.0000 1.0000
33.7700 593.0000 1.0000
33.7800 558.0000 1.0000
33.7900 565.0000 1.0000
33.8000 565.0000 1.0000
33.8100 579.0000 1.0000
33.8200 585.0000 1.0000
33.8300 629.0000 1.0000
33.8400 561.0000 1.0000
33.8500 609.0000 1.0000
33.8600 562.0000 1.0000
33.8700 635.0000 1.0000
33.8800 661.0000 1.0000
33.8900 625.0000 1.0000
33.9000 619.0000 1.0000
33.9100 646.0000 1.0000
33.9200 631.0000 1.0000
33.9300 702.0000 1.0000
33.9400 627.0000 1.0000
33.9500 625.0000 1.0000
33.9600 671.0000 1.0000
33.9700 700.0000 1.0000
33.9800 633.0000 1.0000
33.9900 629.0000 1.0000
34.0000 623.0000 1.0000
34.0100 688.0000 1.0000
34.0200 641.0000 1.0000
34.0300 637.0000 1.0000
34.0400 642.0000 1.0000
34.0500 663.0000 1.0000
34.0600 615.0000 1.0000
34.0700 637.0000 1.0000
34.0800 636.0000 1.0000
34.0900 644.0000 1.0000
34.1000 660.0000 1.0000
34.1100 619.0000 1.0000
34.1200 660.0000 1.0000
34.1300 670.0000 1.0000
34.1400 660.0000 1.0000
34.1500 646.0000 1.0000
34.1600 638.0000 1.0000
34.1700 648.0000 1.0000
34.1800 633.0000 1.0000
34.1900 637.0000 1.0000
34.2000 637.0000 1.0000
34.2100 632.0000 1.0000
34.2200 625.0000 1.0000
34.2300 645.0000 1.0000
34.2400 670.0000 1.0000
34.2500 697.0000 1.0000
34.2600 713.0000 1.0000
34.2700 727.0000 1.0000
34.2800 758.0000 1.0000
34.2900 690.0000 1.0000
34.3000 744.0000 1.0000
34.3100 770.0000 1.0000
34.3200 813.0000 1.0000
34.3300 760.0000 1.0000
34.3400 821.0000 1.0000
34.3500 801.0000 1.0000
34.3600 868.0000 1.0000
34.3700 886.0000 1.0000
34.3800 863.0000 1.0000
34.3900 944.0000 1.0000
34.4000 913.0000 1.0000
34.4100 1027.0000 1.0000
34.4200 1047.0000 1.0000
34.4300 1115.0000 1.0000
34.4400 1122.0000 1.0000
34.4500 1195.0000 1.0000
34.4600 1260.0000 1.0000
34.4700 1304.0000 1.0000
34.4800 1377.0000 1.0000
34.4900 1339.0000 1.0000
34.5000 1379.0000 1.0000
34.5100 1377.0000 1.0000
34.5200 1426.0000 1.0000
34.5300 1406.0000 1.0000
34.5400 1450.0000 1.0000
34.5500 1421.0000 1.0000
34.5600 1361.0000 1.0000
34.5700 1355.0000 1.0000
34.5800 1339.0000 1.0000
34.5900 1289.0000 1.0000
34.6000 1272.0000 1.0000
34.6100 1149.0000 1.0000
34.6200 1112.0000 1.0000
34.6300 1141.0000 1.0000
34.6400 1050.0000 1.0000
34.6500 1010.0000 1.0000
34.6600 967.0000 1.0000
34.6700 920.0000 1.0000
34.6800 889.0000 1.0000
34.6900 883.0000 1.0000
34.7000 825.0000 1.0000
34.7100 786.0000 1.0000
34.7200 759.0000 1.0000
34.7300 774.0000 1.0000
34.7400 784.0000 1.0000
34.7500 758.0000 1.0000
34.7600 693.0000 1.0000
34.7700 718.0000 1.0000
34.7800 702.0000 1.0000
34.7900 674.0000 1.0000
34.8000 669.0000 1.0000
34.8100 677.0000 1.0000
34.8200 654.0000 1.0000
34.8300 651.0000 1.0000
34.8400 643.0000 1.0000
34.8500 655.0000 1.0000
34.8600 644.0000 1.0000
34.8700 613.0000 1.0000
34.8800 616.0000 1.0000
34.8900 605.0000 1.0000
34.9000 581.0000 1.0000
34.9100 584.0000 1.0000
34.9200 590.0000 1.0000
34.9300 625.0000 1.0000
34.9400 648.0000 1.0000
34.9500 565.0000 1.0000
34.9600 570.0000 1.0000
34.9700 551.0000 1.0000
34.9800 545.0000 1.0000
34.9900 557.0000 1.0000
35.0000 541.0000 1.0000
35.0100 564.0000 1.0000
35.0200 573.0000 1.0000
35.0300 518.0000 1.0000
35.0400 535.0000 1.0000
35.0500 542.0000 1.0000
35.0600 554.0000 1.0000
35.0700 528.0000 1.0000
35.0800 529.0000 1.0000
35.0900 552.0000 1.0000
35.1000 540.0000 1.0000
35.1100 525.0000 1.0000
35.1200 531.0000 1.0000
35.1300 560.0000 1.0000
35.1400 555.0000 1.0000
35.1500 568.0000 1.0000
35.1600 521.0000 1.0000
35.1700 512.0000 1.0000
35.1800 539.0000 1.0000
35.1900 532.0000 1.0000
35.2000 514.0000 1.0000
35.2100 534.0000 1.0000
35.2200 529.0000 1.0000
35.2300 504.0000 1.0000
35.2400 540.0000 1.0000
35.2500 521.0000 1.0000
35.2600 500.0000 1.0000
35.2700 505.0000 1.0000
35.2800 519.0000 1.0000
35.2900 523.0000 1.0000
35.3000 531.0000 1.0000
35.3100 531.0000 1.0000
35.3200 518.0000 1.0000
35.3300 545.0000 1.0000
35.3400 496.0000 1.0000
35.3500 481.0000 1.0000
35.3600 505.0000 1.0000
35.3700 496.0000 1.0000
35.3800 475.0000 1.0000
35.3900 448.0000 1.0000
35.4000 487.0000 1.0000
35.4100 527.0000 1.0000
35.4200 518.0000 1.0000
35.4300 524.0000 1.0000
35.4400 502.0000 1.0000
35.4500 489.0000 1.0000
35.4600 504.0000 1.0000
35.4700 506.0000 1.0000
35.4800 488.0000 1.0000
35.4900 465.0000 1.0000
35.5000 523.0000 1.0000
35.5100 544.0000 1.0000
35.5200 510.0000 1.0000
35.5300 503.0000 1.0000
35.5400 495.0000 1.0000
35.5500 499.0000 1.0000
35.5600 526.0000 1.0000
35.5700 492.0000 1.0000
35.5800 519.0000 1.0000
35.5900 503.0000 1.0000
35.6000 499.0000 1.0000
35.6100 474.0000 1.0000
35.6200 508.0000 1.0000
35.6300 518.0000 1.0000
35.6400 501.0000 1.0000
35.6500 476.0000 1.0000
35.6600 471.0000 1.0000
35.6700 478.0000 1.0000
35.6800 471.0000 1.0000
35.6900 502.0000 1.0000
35.7000 479.0000 1.0000
35.7100 468.0000 1.0000
35.7200 491.0000 1.0000
35.7300 495.0000 1.0000
35.7400 501.0000 1.0000
35.7500 490.0000 1.0000
35.7600 487.0000 1.0000
35.7700 460.0000 1.0000
35.7800 498.0000 1.0000
35.7900 443.0000 1.0000
35.8000 499.0000 1.0000
35.8100 490.0000 1.0000
35.8200 498.0000 1.0000
35.8300 494.0000 1.0000
35.8400 483.0000 1.0000
35.8500 488.0000 1.0000
35.8600 491.0000 1.0000
35.8700 529.0000 1.0000
35.8800 458.0000 1.0000
35.8900 528.0000 1.0000
35.9000 501.0000 1.0000
35.9100 453.0000 1.0000
35.9200 491.0000 1.0000
35.9300 522.0000 1.0000
35.9400 528.0000 1.0000
35.9500 528.0000 1.0000
35.9600 496.0000 1.0000
35.9700 476.0000 1.0000
35.9800 478.0000 1.0000
35.9900 489.0000 1.0000
36.0000 510.0000 1.0000
36.0100 519.0000 1.0000
36.0200 502.0000 1.0000
36.0300 493.0000 1.0000
36.0400 514.0000 1.0000
36.0500 503.0000 1.0000
36.0600 515.0000 1.0000
36.0700 496.0000 1.0000
36.0800 466.0000 1.0000
36.0900 520.0000 1.0000
36.1000 530.0000 1.0000
36.1100 518.0000 1.0000
36.1200 503.0000 1.0000
36.1300 507.0000 1.0000
36.1400 530.0000 1.0000
36.1500 532.0000 1.0000
36.1600 515.0000 1.0000
36.1700 540.0000 1.0000
36.1800 532.0000 1.0000
36.1900 540.0000 1.0000
36.2000 544.0000 1.0000
36.2100 530.0000 1.0000
36.2200 555.0000 1.0000
36.2300 589.0000 1.0000
36.2400 562.0000 1.0000
36.2500 552.0000 1.0000
36.2600 603.0000 1.0000
36.2700 606.0000 1.0000
36.2800 565.0000 1.0000
36.2900 603.0000 1.0000
36.3000 680.0000 1.0000
36.3100 633.0000 1.0000
36.3200 707.0000 1.0000
36.3300 683.0000 1.0000
36.3400 749.0000 1.0000
36.3500 747.0000 1.0000
36.3600 763.0000 1.0000
36.3700 794.0000 1.0000
36.3800 756.0000 1.0000
36.3900 738.0000 1.0000
36.4000 756.0000 1.0000
36.4100 797.0000 1.0000
36.4200 816.0000 1.0000
36.4300 855.0000 1.0000
36.4400 860.0000 1.0000
36.4500 846.0000 1.0000
36.4600 849.0000 1.0000
36.4700 839.0000 1.0000
36.4800 830.0000 1.0000
36.4900 772.0000 1.0000
36.5000 801.0000 1.0000
36.5100 800.0000 1.0000
36.5200 740.0000 1.0000
36.5300 717.0000 1.0000
36.5400 702.0000 1.0000
36.5500 732.0000 1.0000
36.5600 683.0000 1.0000
36.5700 676.0000 1.0000
36.5800 644.0000 1.0000
36.5900 623.0000 1.0000
36.6000 611.0000 1.0000
36.6100 601.0000 1.0000
36.6200 567.0000 1.0000
36.6300 600.0000 1.0000
36.6400 523.0000 1.0000
36.6500 527.0000 1.0000
36.6600 526.0000 1.0000
36.6700 543.0000 1.0000
36.6800 524.0000 1.0000
36.6900 531.0000 1.0000
36.7000 505.0000 1.0000
36.7100 502.0000 1.0000
36.7200 495.0000 1.0000
36.7300 484.0000 1.0000
36.7400 476.0000 1.0000
36.7500 510.0000 1.0000
36.7600 467.0000 1.0000
36.7700 425.0000 1.0000
36.7800 469.0000 1.0000
36.7900 465.0000 1.0000
36.8000 448.0000 1.0000
36.8100 477.0000 1.0000
36.8200 476.0000 1.0000
36.8300 460.0000 1.0000
36.8400 480.0000 1.0000
36.8500 464.0000 1.0000
36.8600 472.0000 1.0000
36.8700 480.0000 1.0000
36.8800 469.0000 1.0000
36.8900 445.0000 1.0000
36.9000 440.0000 1.0000
36.9100 468.0000 1.0000
36.9200 469.0000 1.0000
36.9300 463.0000 1.0000
36.9400 448.0000 1.0000
36.9500 460.0000 1.0000
36.9600 450.0000 1.0000
36.9700 460.0000 1.0000
36.9800 472.0000 1.0000
36.9900 464.0000 1.0000
37.0000 466.0000 1.0000
37.0100 454.0000 1.0000
37.0200 468.0000 1.0000
37.0300 453.0000 1.0000
37.0400 457.0000 1.0000
37.0500 427.0000 1.0000
37.0600 455.0000 1.0000
37.0700 459.0000 1.0000
37.0800 484.0000 1.0000
37.0900 471.0000 1.0000
37.1000 455.0000 1.0000
37.1100 457.0000 1.0000
37.1200 440.0000 1.0000
37.1300 432.0000 1.0000
37.1400 455.0000 1.0000
37.1500 433.0000 1.0000
37.1600 429.0000 1.0000
37.1700 445.0000 1.0000
37.1800 429.0000 1.0000
37.1900 450.0000 1.0000
37.2000 478.0000 1.0000
37.2100 471.0000 1.0000
37.2200 444.0000 1.0000
37.2300 433.0000 1.0000
37.2400 443.0000 1.0000
37.2500 447.0000 1.0000
37.2600 456.0000 1.0000
37.2700 437.0000 1.0000
37.2800 452.0000 1.0000
37.2900 443.0000 1.0000
37.3000 472.0000 1.0000
37.3100 479.0000 1.0000
37.3200 475.0000 1.0000
37.3300 458.0000 1.0000
37.3400 461.0000 1.0000
37.3500 432.0000 1.0000
37.3600 419.0000 1.0000
37.3700 447.0000 1.0000
37.3800 424.0000 1.0000
37.3900 442.0000 1.0000
37.4000 442.0000 1.0000
37.4100 421.0000 1.0000
37.4200 417.0000 1.0000
37.4300 436.0000 1.0000
37.4400 470.0000 1.0000
37.4500 448.0000 1.0000
37.4600 450.0000 1.0000
37.4700 452.0000 1.0000
37.4800 471.0000 1.0000
37.4900 436.0000 1.0000
37.5000 434.0000 1.0000
37.5100 468.0000 1.0000
37.5200 442.0000 1.0000
37.5300 434.0000 1.0000
37.5400 453.0000 1.0000
37.5500 441.0000 1.0000
37.5600 480.0000 1.0000
37.5700 454.0000 1.0000
37.5800 434.0000 1.0000
37.5900 483.0000 1.0000
37.6000 453.0000 1.0000
37.6100 453.0000 1.0000
37.6200 453.0000 1.0000
37.6300 449.0000 1.0000
37.6400 456.0000 1.0000
37.6500 463.0000 1.0000
37.6600 413.0000 1.0000
37.6700 397.0000 1.0000
37.6800 457.0000 1.0000
37.6900 455.0000 1.0000
37.7000 452.0000 1.0000
37.7100 447.0000 1.0000
37.7200 464.0000 1.0000
37.7300 433.0000 1.0000
37.7400 451.0000 1.0000
37.7500 431.0000 1.0000
37.7600 465.0000 1.0000
37.7700 430.0000 1.0000
37.7800 421.0000 1.0000
37.7900 437.0000 1.0000
37.8000 431.0000 1.0000
37.8100 442.0000 1.0000
37.8200 494.0000 1.0000
37.8300 461.0000 1.0000
37.8400 447.0000 1.0000
37.8500 477.0000 1.0000
37.8600 473.0000 1.0000
37.8700 450.0000 1.0000
37.8800 413.0000 1.0000
37.8900 462.0000 1.0000
37.9000 462.0000 1.0000
37.9100 466.0000 1.0000
37.9200 448.0000 1.0000
37.9300 417.0000 1.0000
37.9400 452.0000 1.0000
37.9500 439.0000 1.0000
37.9600 452.0000 1.0000
37.9700 489.0000 1.0000
37.9800 455.0000 1.0000
37.9900 492.0000 1.0000
38.0000 490.0000 1.0000
38.0100 450.0000 1.0000
38.0200 485.0000 1.0000
38.0300 477.0000 1.0000
38.0400 489.0000 1.0000
38.0500 477.0000 1.0000
38.0600 484.0000 1.0000
38.0700 479.0000 1.0000
38.0800 508.0000 1.0000
38.0900 494.0000 1.0000
38.1000 520.0000 1.0000
38.1100 516.0000 1.0000
38.1200 482.0000 1.0000
38.1300 534.0000 1.0000
38.1400 498.0000 1.0000
38.1500 531.0000 1.0000
38.1600 546.0000 1.0000
38.1700 508.0000 1.0000
38.1800 526.0000 1.0000
38.1900 556.0000 1.0000
38.2000 552.0000 1.0000
38.2100 545.0000 1.0000
38.2200 570.0000 1.0000
38.2300 563.0000 1.0000
38.2400 584.0000 1.0000
38.2500 601.0000 1.0000
38.2600 664.0000 1.0000
38.2700 669.0000 1.0000
38.2800 706.0000 1.0000
38.2900 703.0000 1.0000
38.3000 720.0000 1.0000
38.3100 759.0000 1.0000
38.3200 797.0000 1.0000
38.3300 830.0000 1.0000
38.3400 867.0000 1.0000
38.3500 907.0000 1.0000
38.3600 910.0000 1.0000
38.3700 934.0000 1.0000
38.3800 1002.0000 1.0000
38.3900 1102.0000 1.0000
38.4000 1124.0000 1.0000
38.4100 1164.0000 1.0000
38.4200 1249.0000 1.0000
38.4300 1355.0000 1.0000
38.4400 1443.0000 1.0000
38.4500 1660.0000 1.0000
38.4600 1785.0000 1.0000
38.4700 1864.0000 1.0000
38.4800 1969.0000 1.0000
38.4900 2115.0000 1.0000
38.5000 2183.0000 1.0000
38.5100 2291.0000 1.0000
38.5200 2401.0000 1.0000
38.5300 2441.0000 1.0000
38.5400 2585.0000 1.0000
38.5500 2505.0000 1.0000
38.5600 2582.0000 1.0000
38.5700 2646.0000 1.0000
38.5800 2602.0000 1.0000
38.5900 2501.0000 1.0000
38.6000 2528.0000 1.0000
38.6100 2470.0000 1.0000
38.6200 2246.0000 1.0000
38.6300 2283.0000 1.0000
38.6400 2163.0000 1.0000
38.6500 2120.0000 1.0000
38.6600 1967.0000 1.0000
38.6700 1863.0000 1.0000
38.6800 1793.0000 1.0000
38.6900 1671.0000 1.0000
38.7000 1594.0000 1.0000
38.7100 1538.0000 1.0000
38.7200 1354.0000 1.0000
38.7300 1300.0000 1.0000
38.7400 1228.0000 1.0000
38.7500 1140.0000 1.0000
38.7600 1011.0000 1.0000
38.7700 954.0000 1.0000
38.7800 962.0000 1.0000
38.7900 861.0000 1.0000
38.8000 821.0000 1.0000
38.8100 821.0000 1.0000
38.8200 745.0000 1.0000
38.8300 728.0000 1.0000
38.8400 696.0000 1.0000
38.8500 654.0000 1.0000
38.8600 658.0000 1.0000
38.8700 604.0000 1.0000
38.8800 605.0000 1.0000
38.8900 621.0000 1.0000
38.9000 558.0000 1.0000
38.9100 577.0000 1.0000
38.9200 553.0000 1.0000
38.9300 552.0000 1.0000
38.9400 510.0000 1.0000
38.9500 490.0000 1.0000
38.9600 514.0000 1.0000
38.9700 501.0000 1.0000
38.9800 478.0000 1.0000
38.9900 488.0000 1.0000
39.0000 482.0000 1.0000
39.0100 472.0000 1.0000
39.0200 451.0000 1.0000
39.0300 463.0000 1.0000
39.0400 501.0000 1.0000
39.0500 476.0000 1.0000
39.0600 468.0000 1.0000
39.0700 459.0000 1.0000
39.0800 446.0000 1.0000
39.0900 448.0000 1.0000
39.1000 455.0000 1.0000
39.1100 434.0000 1.0000
39.1200 461.0000 1.0000
39.1300 449.0000 1.0000
39.1400 453.0000 1.0000
39.1500 448.0000 1.0000
39.1600 423.0000 1.0000
39.1700 422.0000 1.0000
39.1800 437.0000 1.0000
39.1900 473.0000 1.0000
39.2000 428.0000 1.0000
39.2100 409.0000 1.0000
39.2200 414.0000 1.0000
39.2300 413.0000 1.0000
39.2400 437.0000 1.0000
39.2500 432.0000 1.0000
39.2600 417.0000 1.0000
39.2700 433.0000 1.0000
39.2800 423.0000 1.0000
39.2900 408.0000 1.0000
39.3000 420.0000 1.0000
39.3100 423.0000 1.0000
39.3200 433.0000 1.0000
39.3300 413.0000 1.0000
39.3400 404.0000 1.0000
39.3500 431.0000 1.0000
39.3600 418.0000 1.0000
39.3700 385.0000 1.0000
39.3800 399.0000 1.0000
39.3900 421.0000 1.0000
39.4000 467.0000 1.0000
39.4100 424.0000 1.0000
39.4200 401.0000 1.0000
39.4300 393.0000 1.0000
39.4400 417.0000 1.0000
39.4500 386.0000 1.0000
39.4600 391.0000 1.0000
39.4700 390.0000 1.0000
39.4800 403.0000 1.0000
39.4900 414.0000 1.0000
39.5000 409.0000 1.0000
39.5100 389.0000 1.0000
39.5200 410.0000 1.0000
39.5300 412.0000 1.0000
39.5400 464.0000 1.0000
39.5500 438.0000 1.0000
39.5600 436.0000 1.0000
39.5700 450.0000 1.0000
39.5800 446.0000 1.0000
39.5900 425.0000 1.0000
39.6000 433.0000 1.0000
39.6100 442.0000 1.0000
39.6200 422.0000 1.0000
39.6300 411.0000 1.0000
39.6400 389.0000 1.0000
39.6500 472.0000 1.0000
39.6600 393.0000 1.0000
39.6700 422.0000 1.0000
39.6800 420.0000 1.0000
39.6900 409.0000 1.0000
39.7000 453.0000 1.0000
39.7100 402.0000 1.0000
39.7200 440.0000 1.0000
39.7300 441.0000 1.0000
39.7400 403.0000 1.0000
39.7500 431.0000 1.0000
39.7600 395.0000 1.0000
39.7700 408.0000 1.0000
39.7800 399.0000 1.0000
39.7900 400.0000 1.0000
39.8000 397.0000 1.0000
39.8100 393.0000 1.0000
39.8200 396.0000 1.0000
39.8300 365.0000 1.0000
39.8400 385.0000 1.0000
39.8500 404.0000 1.0000
39.8600 391.0000 1.0000
39.8700 400.0000 1.0000
39.8800 397.0000 1.0000
39.8900 420.0000 1.0000
39.9000 402.0000 1.0000
39.9100 418.0000 1.0000
39.9200 426.0000 1.0000
39.9300 387.0000 1.0000
39.9400 390.0000 1.0000
39.9500 413.0000 1.0000
39.9600 358.0000 1.0000
39.9700 415.0000 1.0000
39.9800 391.0000 1.0000
39.9900 379.0000 1.0000
40.0000 372.0000 1.0000
40.0100 415.0000 1.0000
40.0200 416.0000 1.0000
40.0300 417.0000 1.0000
40.0400 373.0000 1.0000
40.0500 404.0000 1.0000
40.0600 390.0000 1.0000
40.0700 381.0000 1.0000
40.0800 373.0000 1.0000
40.0900 395.0000 1.0000
40.1000 380.0000 1.0000
40.1100 393.0000 1.0000
40.1200 397.0000 1.0000
40.1300 369.0000 1.0000
40.1400 385.0000 1.0000
40.1500 365.0000 1.0000
40.1600 364.0000 1.0000
40.1700 358.0000 1.0000
40.1800 374.0000 1.0000
40.1900 388.0000 1.0000
40.2000 375.0000 1.0000
40.2100 348.0000 1.0000
40.2200 377.0000 1.0000
40.2300 405.0000 1.0000
40.2400 377.0000 1.0000
40.2500 383.0000 1.0000
40.2600 376.0000 1.0000
40.2700 370.0000 1.0000
40.2800 385.0000 1.0000
40.2900 372.0000 1.0000
40.3000 380.0000 1.0000
40.3100 384.0000 1.0000
40.3200 384.0000 1.0000
40.3300 384.0000 1.0000
40.3400 413.0000 1.0000
40.3500 377.0000 1.0000
40.3600 364.0000 1.0000
40.3700 364.0000 1.0000
40.3800 398.0000 1.0000
40.3900 371.0000 1.0000
40.4000 389.0000 1.0000
40.4100 393.0000 1.0000
40.4200 405.0000 1.0000
40.4300 421.0000 1.0000
40.4400 376.0000 1.0000
40.4500 360.0000 1.0000
40.4600 350.0000 1.0000
40.4700 386.0000 1.0000
40.4800 388.0000 1.0000
40.4900 396.0000 1.0000
40.5000 434.0000 1.0000
40.5100 381.0000 1.0000
40.5200 393.0000 1.0000
40.5300 376.0000 1.0000
40.5400 346.0000 1.0000
40.5500 364.0000 1.0000
40.5600 374.0000 1.0000
40.5700 376.0000 1.0000
40.5800 366.0000 1.0000
40.5900 379.0000 1.0000
40.6000 374.0000 1.0000
40.6100 389.0000 1.0000
40.6200 398.0000 1.0000
40.6300 351.0000 1.0000
40.6400 378.0000 1.0000
40.6500 391.0000 1.0000
40.6600 366.0000 1.0000
40.6700 385.0000 1.0000
40.6800 378.0000 1.0000
40.6900 377.0000 1.0000
40.7000 387.0000 1.0000
40.7100 363.0000 1.0000
40.7200 376.0000 1.0000
40.7300 380.0000 1.0000
40.7400 352.0000 1.0000
40.7500 366.0000 1.0000
40.7600 391.0000 1.0000
40.7700 402.0000 1.0000
40.7800 349.0000 1.0000
40.7900 375.0000 1.0000
40.8000 388.0000 1.0000
40.8100 374.0000 1.0000
40.8200 408.0000 1.0000
40.8300 406.0000 1.0000
40.8400 363.0000 1.0000
40.8500 367.0000 1.0000
40.8600 356.0000 1.0000
40.8700 367.0000 1.0000
40.8800 391.0000 1.0000
40.8900 382.0000 1.0000
40.9000 368.0000 1.0000
40.9100 346.0000 1.0000
40.9200 386.0000 1.0000
40.9300 369.0000 1.0000
40.9400 368.0000 1.0000
40.9500 373.0000 1.0000
40.9600 361.0000 1.0000
40.9700 357.0000 1.0000
40.9800 354.0000 1.0000
40.9900 315.0000 1.0000
41.0000 372.0000 1.0000
41.0100 374.0000 1.0000
41.0200 380.0000 1.0000
41.0300 397.0000 1.0000
41.0400 340.0000 1.0000
41.0500 356.0000 1.0000
41.0600 388.0000 1.0000
41.0700 402.0000 1.0000
41.0800 388.0000 1.0000
41.0900 353.0000 1.0000
41.1000 361.0000 1.0000
41.1100 368.0000 1.0000
41.1200 388.0000 1.0000
41.1300 373.0000 1.0000
41.1400 384.0000 1.0000
41.1500 379.0000 1.0000
41.1600 393.0000 1.0000
41.1700 375.0000 1.0000
41.1800 362.0000 1.0000
41.1900 384.0000 1.0000
41.2000 389.0000 1.0000
41.2100 379.0000 1.0000
41.2200 391.0000 1.0000
41.2300 384.0000 1.0000
41.2400 403.0000 1.0000
41.2500 379.0000 1.0000
41.2600 365.0000 1.0000
41.2700 362.0000 1.0000
41.2800 359.0000 1.0000
41.2900 395.0000 1.0000
41.3000 371.0000 1.0000
41.3100 400.0000 1.0000
41.3200 371.0000 1.0000
41.3300 359.0000 1.0000
41.3400 400.0000 1.0000
41.3500 384.0000 1.0000
41.3600 377.0000 1.0000
41.3700 380.0000 1.0000
41.3800 382.0000 1.0000
41.3900 373.0000 1.0000
41.4000 379.0000 1.0000
41.4100 371.0000 1.0000
41.4200 375.0000 1.0000
41.4300 354.0000 1.0000
41.4400 353.0000 1.0000
41.4500 361.0000 1.0000
41.4600 372.0000 1.0000
41.4700 367.0000 1.0000
41.4800 397.0000 1.0000
41.4900 368.0000 1.0000
41.5000 381.0000 1.0000
41.5100 371.0000 1.0000
41.5200 359.0000 1.0000
41.5300 374.0000 1.0000
41.5400 401.0000 1.0000
41.5500 349.0000 1.0000
41.5600 402.0000 1.0000
41.5700 390.0000 1.0000
41.5800 384.0000 1.0000
41.5900 398.0000 1.0000
41.6000 379.0000 1.0000
41.6100 365.0000 1.0000
41.6200 374.0000 1.0000
41.6300 381.0000 1.0000
41.6400 358.0000 1.0000
41.6500 371.0000 1.0000
41.6600 387.0000 1.0000
41.6700 353.0000 1.0000
41.6800 388.0000 1.0000
41.6900 362.0000 1.0000
41.7000 375.0000 1.0000
41.7100 389.0000 1.0000
41.7200 386.0000 1.0000
41.7300 346.0000 1.0000
41.7400 369.0000 1.0000
41.7500 343.0000 1.0000
41.7600 359.0000 1.0000
41.7700 348.0000 1.0000
41.7800 397.0000 1.0000
41.7900 370.0000 1.0000
41.8000 363.0000 1.0000
41.8100 350.0000 1.0000
41.8200 366.0000 1.0000
41.8300 354.0000 1.0000
41.8400 364.0000 1.0000
41.8500 399.0000 1.0000
41.8600 384.0000 1.0000
41.8700 380.0000 1.0000
41.8800 344.0000 1.0000
41.8900 376.0000 1.0000
41.9000 389.0000 1.0000
41.9100 348.0000 1.0000
41.9200 356.0000 1.0000
41.9300 378.0000 1.0000
41.9400 388.0000 1.0000
41.9500 362.0000 1.0000
41.9600 376.0000 1.0000
41.9700 380.0000 1.0000
41.9800 374.0000 1.0000
41.9900 394.0000 1.0000
42.0000 370.0000 1.0000
42.0100 385.0000 1.0000
42.0200 356.0000 1.0000
42.0300 358.0000 1.0000
42.0400 366.0000 1.0000
42.0500 370.0000 1.0000
42.0600 353.0000 1.0000
42.0700 371.0000 1.0000
42.0800 386.0000 1.0000
42.0900 382.0000 1.0000
42.1000 360.0000 1.0000
42.1100 358.0000 1.0000
42.1200 372.0000 1.0000
42.1300 369.0000 1.0000
42.1400 325.0000 1.0000
42.1500 366.0000 1.0000
42.1600 375.0000 1.0000
42.1700 356.0000 1.0000
42.1800 373.0000 1.0000
42.1900 359.0000 1.0000
42.2000 377.0000 1.0000
42.2100 359.0000 1.0000
42.2200 357.0000 1.0000
42.2300 376.0000 1.0000
42.2400 344.0000 1.0000
42.2500 346.0000 1.0000
42.2600 362.0000 1.0000
42.2700 376.0000 1.0000
42.2800 360.0000 1.0000
42.2900 329.0000 1.0000
42.3000 354.0000 1.0000
42.3100 336.0000 1.0000
42.3200 359.0000 1.0000
42.3300 390.0000 1.0000
42.3400 353.0000 1.0000
42.3500 354.0000 1.0000
42.3600 336.0000 1.0000
42.3700 336.0000 1.0000
42.3800 383.0000 1.0000
42.3900 341.0000 1.0000
42.4000 367.0000 1.0000
42.4100 363.0000 1.0000
42.4200 349.0000 1.0000
42.4300 377.0000 1.0000
42.4400 351.0000 1.0000
42.4500 346.0000 1.0000
42.4600 360.0000 1.0000
42.4700 335.0000 1.0000
42.4800 323.0000 1.0000
42.4900 380.0000 1.0000
42.5000 356.0000 1.0000
42.5100 332.0000 1.0000
42.5200 343.0000 1.0000
42.5300 362.0000 1.0000
42.5400 347.0000 1.0000
42.5500 377.0000 1.0000
42.5600 338.0000 1.0000
42.5700 364.0000 1.0000
42.5800 354.0000 1.0000
42.5900 373.0000 1.0000
42.6000 388.0000 1.0000
42.6100 375.0000 1.0000
42.6200 339.0000 1.0000
42.6300 338.0000 1.0000
42.6400 365.0000 1.0000
42.6500 352.0000 1.0000
42.6600 337.0000 1.0000
42.6700 364.0000 1.0000
42.6800 351.0000 1.0000
42.6900 371.0000 1.0000
42.7000 358.0000 1.0000
42.7100 357.0000 1.0000
42.7200 365.0000 1.0000
42.7300 359.0000 1.0000
42.7400 332.0000 1.0000
42.7500 350.0000 1.0000
42.7600 341.0000 1.0000
42.7700 388.0000 1.0000
42.7800 372.0000 1.0000
42.7900 365.0000 1.0000
42.8000 375.0000 1.0000
42.8100 374.0000 1.0000
42.8200 366.0000 1.0000
42.8300 358.0000 1.0000
42.8400 353.0000 1.0000
42.8500 359.0000 1.0000
42.8600 380.0000 1.0000
42.8700 352.0000 1.0000
42.8800 354.0000 1.0000
42.8900 328.0000 1.0000
42.9000 351.0000 1.0000
42.9100 345.0000 1.0000
42.9200 354.0000 1.0000
42.9300 399.0000 1.0000
42.9400 352.0000 1.0000
42.9500 345.0000 1.0000
42.9600 369.0000 1.0000
42.9700 333.0000 1.0000
42.9800 355.0000 1.0000
42.9900 369.0000 1.0000
43.0000 340.0000 1.0000
43.0100 385.0000 1.0000
43.0200 362.0000 1.0000
43.0300 344.0000 1.0000
43.0400 363.0000 1.0000
43.0500 382.0000 1.0000
43.0600 390.0000 1.0000
43.0700 369.0000 1.0000
43.0800 380.0000 1.0000
43.0900 362.0000 1.0000
43.1000 347.0000 1.0000
43.1100 343.0000 1.0000
43.1200 365.0000 1.0000
43.1300 408.0000 1.0000
43.1400 372.0000 1.0000
43.1500 375.0000 1.0000
43.1600 406.0000 1.0000
43.1700 370.0000 1.0000
43.1800 378.0000 1.0000
43.1900 393.0000 1.0000
43.2000 397.0000 1.0000
43.2100 393.0000 1.0000
43.2200 332.0000 1.0000
43.2300 391.0000 1.0000
43.2400 372.0000 1.0000
43.2500 389.0000 1.0000
43.2600 371.0000 1.0000
43.2700 407.0000 1.0000
43.2800 398.0000 1.0000
43.2900 403.0000 1.0000
43.3000 391.0000 1.0000
43.3100 370.0000 1.0000
43.3200 415.0000 1.0000
43.3300 372.0000 1.0000
43.3400 364.0000 1.0000
43.3500 403.0000 1.0000
43.3600 387.0000 1.0000
43.3700 403.0000 1.0000
43.3800 372.0000 1.0000
43.3900 373.0000 1.0000
43.4000 398.0000 1.0000
43.4100 366.0000 1.0000
43.4200 348.0000 1.0000
43.4300 377.0000 1.0000
43.4400 404.0000 1.0000
43.4500 378.0000 1.0000
43.4600 356.0000 1.0000
43.4700 328.0000 1.0000
43.4800 367.0000 1.0000
43.4900 344.0000 1.0000
43.5000 357.0000 1.0000
43.5100 347.0000 1.0000
43.5200 357.0000 1.0000
43.5300 380.0000 1.0000
43.5400 378.0000 1.0000
43.5500 362.0000 1.0000
43.5600 369.0000 1.0000
43.5700 361.0000 1.0000
43.5800 342.0000 1.0000
43.5900 381.0000 1.0000
43.6000 355.0000 1.0000
43.6100 334.0000 1.0000
43.6200 354.0000 1.0000
43.6300 328.0000 1.0000
43.6400 357.0000 1.0000
43.6500 351.0000 1.0000
43.6600 353.0000 1.0000
43.6700 359.0000 1.0000
43.6800 341.0000 1.0000
43.6900 339.0000 1.0000
43.7000 362.0000 1.0000
43.7100 350.0000 1.0000
43.7200 378.0000 1.0000
43.7300 341.0000 1.0000
43.7400 323.0000 1.0000
43.7500 333.0000 1.0000
43.7600 367.0000 1.0000
43.7700 370.0000 1.0000
43.7800 356.0000 1.0000
43.7900 367.0000 1.0000
43.8000 355.0000 1.0000
43.8100 344.0000 1.0000
43.8200 359.0000 1.0000
43.8300 346.0000 1.0000
43.8400 358.0000 1.0000
43.8500 353.0000 1.0000
43.8600 323.0000 1.0000
43.8700 360.0000 1.0000
43.8800 319.0000 1.0000
43.8900 338.0000 1.0000
43.9000 348.0000 1.0000
43.9100 361.0000 1.0000
43.9200 356.0000 1.0000
43.9300 398.0000 1.0000
43.9400 353.0000 1.0000
43.9500 346.0000 1.0000
43.9600 369.0000 1.0000
43.9700 366.0000 1.0000
43.9800 367.0000 1.0000
43.9900 365.0000 1.0000
44.0000 352.0000 1.0000
44.0100 361.0000 1.0000
44.0200 341.0000 1.0000
44.0300 345.0000 1.0000
44.0400 326.0000 1.0000
44.0500 340.0000 1.0000
44.0600 336.0000 1.0000
44.0700 348.0000 1.0000
44.0800 405.0000 1.0000
44.0900 353.0000 1.0000
44.1000 347.0000 1.0000
44.1100 338.0000 1.0000
44.1200 374.0000 1.0000
44.1300 383.0000 1.0000
44.1400 311.0000 1.0000
44.1500 349.0000 1.0000
44.1600 353.0000 1.0000
44.1700 366.0000 1.0000
44.1800 356.0000 1.0000
44.1900 365.0000 1.0000
44.2000 356.0000 1.0000
44.2100 360.0000 1.0000
44.2200 378.0000 1.0000
44.2300 373.0000 1.0000
44.2400 383.0000 1.0000
44.2500 354.0000 1.0000
44.2600 327.0000 1.0000
44.2700 354.0000 1.0000
44.2800 350.0000 1.0000
44.2900 333.0000 1.0000
44.3000 355.0000 1.0000
44.3100 321.0000 1.0000
44.3200 323.0000 1.0000
44.3300 350.0000 1.0000
44.3400 343.0000 1.0000
44.3500 328.0000 1.0000
44.3600 333.0000 1.0000
44.3700 340.0000 1.0000
44.3800 383.0000 1.0000
44.3900 360.0000 1.0000
44.4000 356.0000 1.0000
44.4100 346.0000 1.0000
44.4200 334.0000 1.0000
44.4300 357.0000 1.0000
44.4400 353.0000 1.0000
44.4500 344.0000 1.0000
44.4600 337.0000 1.0000
44.4700 355.0000 1.0000
44.4800 367.0000 1.0000
44.4900 362.0000 1.0000
44.5000 343.0000 1.0000
44.5100 341.0000 1.0000
44.5200 365.0000 1.0000
44.5300 340.0000 1.0000
44.5400 325.0000 1.0000
44.5500 344.0000 1.0000
44.5600 368.0000 1.0000
44.5700 348.0000 1.0000
44.5800 361.0000 1.0000
44.5900 350.0000 1.0000
44.6000 329.0000 1.0000
44.6100 344.0000 1.0000
44.6200 331.0000 1.0000
44.6300 339.0000 1.0000
44.6400 344.0000 1.0000
44.6500 372.0000 1.0000
44.6600 386.0000 1.0000
44.6700 373.0000 1.0000
44.6800 332.0000 1.0000
44.6900 329.0000 1.0000
44.7000 332.0000 1.0000
44.7100 317.0000 1.0000
44.7200 333.0000 1.0000
44.7300 337.0000 1.0000
44.7400 359.0000 1.0000
44.7500 345.0000 1.0000
44.7600 359.0000 1.0000
44.7700 308.0000 1.0000
44.7800 331.0000 1.0000
44.7900 375.0000 1.0000
44.8000 336.0000 1.0000
44.8100 316.0000 1.0000
44.8200 331.0000 1.0000
44.8300 332.0000 1.0000
44.8400 348.0000 1.0000
44.8500 347.0000 1.0000
44.8600 325.0000 1.0000
44.8700 347.0000 1.0000
44.8800 337.0000 1.0000
44.8900 342.0000 1.0000
44.9000 342.0000 1.0000
44.9100 356.0000 1.0000
44.9200 334.0000 1.0000
44.9300 317.0000 1.0000
44.9400 301.0000 1.0000
44.9500 336.0000 1.0000
44.9600 338.0000 1.0000
44.9700 307.0000 1.0000
44.9800 355.0000 1.0000
44.9900 321.0000 1.0000
45.0000 351.0000 1.0000
45.0100 326.0000 1.0000
45.0200 338.0000 1.0000
45.0300 327.0000 1.0000
45.0400 352.0000 1.0000
45.0500 342.0000 1.0000
45.0600 356.0000 1.0000
45.0700 343.0000 1.0000
45.0800 338.0000 1.0000
45.0900 335.0000 1.0000
45.1000 351.0000 1.0000
45.1100 346.0000 1.0000
45.1200 347.0000 1.0000
45.1300 329.0000 1.0000
45.1400 336.0000 1.0000
45.1500 357.0000 1.0000
45.1600 358.0000 1.0000
45.1700 322.0000 1.0000
45.1800 358.0000 1.0000
45.1900 326.0000 1.0000
45.2000 313.0000 1.0000
45.2100 348.0000 1.0000
45.2200 353.0000 1.0000
45.2300 347.0000 1.0000
45.2400 348.0000 1.0000
45.2500 345.0000 1.0000
45.2600 333.0000 1.0000
45.2700 337.0000 1.0000
45.2800 353.0000 1.0000
45.2900 312.0000 1.0000
45.3000 341.0000 1.0000
45.3100 350.0000 1.0000
45.3200 320.0000 1.0000
45.3300 355.0000 1.0000
45.3400 343.0000 1.0000
45.3500 342.0000 1.0000
45.3600 351.0000 1.0000
45.3700 346.0000 1.0000
45.3800 336.0000 1.0000
45.3900 331.0000 1.0000
45.4000 343.0000 1.0000
45.4100 333.0000 1.0000
45.4200 345.0000 1.0000
45.4300 356.0000 1.0000
45.4400 333.0000 1.0000
45.4500 321.0000 1.0000
45.4600 340.0000 1.0000
45.4700 311.0000 1.0000
45.4800 334.0000 1.0000
45.4900 333.0000 1.0000
45.5000 346.0000 1.0000
45.5100 316.0000 1.0000
45.5200 343.0000 1.0000
45.5300 323.0000 1.0000
45.5400 350.0000 1.0000
45.5500 314.0000 1.0000
45.5600 357.0000 1.0000
45.5700 326.0000 1.0000
45.5800 310.0000 1.0000
45.5900 354.0000 1.0000
45.6000 349.0000 1.0000
45.6100 355.0000 1.0000
45.6200 339.0000 1.0000
45.6300 336.0000 1.0000
45.6400 338.0000 1.0000
45.6500 327.0000 1.0000
45.6600 344.0000 1.0000
45.6700 356.0000 1.0000
45.6800 337.0000 1.0000
45.6900 330.0000 1.0000
45.7000 335.0000 1.0000
45.7100 340.0000 1.0000
45.7200 338.0000 1.0000
45.7300 343.0000 1.0000
45.7400 345.0000 1.0000
45.7500 317.0000 1.0000
45.7600 309.0000 1.0000
45.7700 337.0000 1.0000
45.7800 325.0000 1.0000
45.7900 330.0000 1.0000
45.8000 331.0000 1.0000
45.8100 365.0000 1.0000
45.8200 353.0000 1.0000
45.8300 354.0000 1.0000
45.8400 362.0000 1.0000
45.8500 338.0000 1.0000
45.8600 324.0000 1.0000
45.8700 322.0000 1.0000
45.8800 309.0000 1.0000
45.8900 320.0000 1.0000
45.9000 318.0000 1.0000
45.9100 335.0000 1.0000
45.9200 329.0000 1.0000
45.9300 333.0000 1.0000
45.9400 350.0000 1.0000
45.9500 346.0000 1.0000
45.9600 349.0000 1.0000
45.9700 319.0000 1.0000
45.9800 311.0000 1.0000
45.9900 309.0000 1.0000
46.0000 330.0000 1.0000
46.0100 322.0000 1.0000
46.0200 338.0000 1.0000
46.0300 310.0000 1.0000
46.0400 332.0000 1.0000
46.0500 322.0000 1.0000
46.0600 342.0000 1.0000
46.0700 339.0000 1.0000
46.0800 362.0000 1.0000
46.0900 333.0000 1.0000
46.1000 342.0000 1.0000
46.1100 303.0000 1.0000
46.1200 345.0000 1.0000
46.1300 315.0000 1.0000
46.1400 336.0000 1.0000
46.1500 357.0000 1.0000
46.1600 345.0000 1.0000
46.1700 333.0000 1.0000
46.1800 333.0000 1.0000
46.1900 326.0000 1.0000
46.2000 341.0000 1.0000
46.2100 316.0000 1.0000
46.2200 320.0000 1.0000
46.2300 316.0000 1.0000
46.2400 318.0000 1.0000
46.2500 321.0000 1.0000
46.2600 323.0000 1.0000
46.2700 358.0000 1.0000
46.2800 361.0000 1.0000
46.2900 354.0000 1.0000
46.3000 313.0000 1.0000
46.3100 354.0000 1.0000
46.3200 338.0000 1.0000
46.3300 345.0000 1.0000
46.3400 334.0000 1.0000
46.3500 356.0000 1.0000
46.3600 331.0000 1.0000
46.3700 334.0000 1.0000
46.3800 292.0000 1.0000
46.3900 296.0000 1.0000
46.4000 330.0000 1.0000
46.4100 323.0000 1.0000
46.4200 319.0000 1.0000
46.4300 346.0000 1.0000
46.4400 337.0000 1.0000
46.4500 307.0000 1.0000
46.4600 318.0000 1.0000
46.4700 323.0000 1.0000
46.4800 333.0000 1.0000
46.4900 381.0000 1.0000
46.5000 349.0000 1.0000
46.5100 328.0000 1.0000
46.5200 333.0000 1.0000
46.5300 326.0000 1.0000
46.5400 318.0000 1.0000
46.5500 338.0000 1.0000
46.5600 328.0000 1.0000
46.5700 328.0000 1.0000
46.5800 330.0000 1.0000
46.5900 312.0000 1.0000
46.6000 311.0000 1.0000
46.6100 324.0000 1.0000
46.6200 318.0000 1.0000
46.6300 335.0000 1.0000
46.6400 307.0000 1.0000
46.6500 344.0000 1.0000
46.6600 346.0000 1.0000
46.6700 325.0000 1.0000
46.6800 332.0000 1.0000
46.6900 345.0000 1.0000
46.7000 310.0000 1.0000
46.7100 309.0000 1.0000
46.7200 304.0000 1.0000
46.7300 335.0000 1.0000
46.7400 313.0000 1.0000
46.7500 317.0000 1.0000
46.7600 333.0000 1.0000
46.7700 309.0000 1.0000
46.7800 328.0000 1.0000
46.7900 297.0000 1.0000
46.8000 330.0000 1.0000
46.8100 322.0000 1.0000
46.8200 358.0000 1.0000
46.8300 366.0000 1.0000
46.8400 350.0000 1.0000
46.8500 322.0000 1.0000
46.8600 325.0000 1.0000
46.8700 348.0000 1.0000
46.8800 323.0000 1.0000
46.8900 324.0000 1.0000
46.9000 322.0000 1.0000
46.9100 331.0000 1.0000
46.9200 340.0000 1.0000
46.9300 345.0000 1.0000
46.9400 336.0000 1.0000
46.9500 338.0000 1.0000
46.9600 325.0000 1.0000
46.9700 322.0000 1.0000
46.9800 327.0000 1.0000
46.9900 326.0000 1.0000
47.0000 323.0000 1.0000
47.0100 347.0000 1.0000
47.0200 348.0000 1.0000
47.0300 316.0000 1.0000
47.0400 345.0000 1.0000
47.0500 361.0000 1.0000
47.0600 349.0000 1.0000
47.0700 325.0000 1.0000
47.0800 351.0000 1.0000
47.0900 355.0000 1.0000
47.1000 329.0000 1.0000
47.1100 338.0000 1.0000
47.1200 344.0000 1.0000
47.1300 331.0000 1.0000
47.1400 340.0000 1.0000
47.1500 313.0000 1.0000
47.1600 291.0000 1.0000
47.1700 315.0000 1.0000
47.1800 334.0000 1.0000
47.1900 313.0000 1.0000
47.2000 327.0000 1.0000
47.2100 369.0000 1.0000
47.2200 335.0000 1.0000
47.2300 330.0000 1.0000
47.2400 387.0000 1.0000
47.2500 298.0000 1.0000
47.2600 313.0000 1.0000
47.2700 290.0000 1.0000
47.2800 321.0000 1.0000
47.2900 352.0000 1.0000
47.3000 311.0000 1.0000
47.3100 312.0000 1.0000
47.3200 319.0000 1.0000
47.3300 303.0000 1.0000
47.3400 341.0000 1.0000
47.3500 319.0000 1.0000
47.3600 312.0000 1.0000
47.3700 329.0000 1.0000
47.3800 314.0000 1.0000
47.3900 290.0000 1.0000
47.4000 293.0000 1.0000
47.4100 302.0000 1.0000
47.4200 312.0000 1.0000
47.4300 314.0000 1.0000
47.4400 301.0000 1.0000
47.4500 310.0000 1.0000
47.4600 346.0000 1.0000
47.4700 333.0000 1.0000
47.4800 306.0000 1.0000
47.4900 319.0000 1.0000
47.5000 306.0000 1.0000
47.5100 305.0000 1.0000
47.5200 303.0000 1.0000
47.5300 312.0000 1.0000
47.5400 322.0000 1.0000
47.5500 309.0000 1.0000
47.5600 332.0000 1.0000
47.5700 329.0000 1.0000
47.5800 329.0000 1.0000
47.5900 316.0000 1.0000
47.6000 323.0000 1.0000
47.6100 327.0000 1.0000
47.6200 298.0000 1.0000
47.6300 289.0000 1.0000
47.6400 343.0000 1.0000
47.6500 311.0000 1.0000
47.6600 315.0000 1.0000
47.6700 338.0000 1.0000
47.6800 296.0000 1.0000
47.6900 279.0000 1.0000
47.7000 326.0000 1.0000
47.7100 303.0000 1.0000
47.7200 324.0000 1.0000
47.7300 326.0000 1.0000
47.7400 333.0000 1.0000
47.7500 302.0000 1.0000
47.7600 309.0000 1.0000
47.7700 312.0000 1.0000
47.7800 290.0000 1.0000
47.7900 296.0000 1.0000
47.8000 328.0000 1.0000
47.8100 315.0000 1.0000
47.8200 304.0000 1.0000
47.8300 306.0000 1.0000
47.8400 315.0000 1.0000
47.8500 307.0000 1.0000
47.8600 339.0000 1.0000
47.8700 315.0000 1.0000
47.8800 299.0000 1.0000
47.8900 327.0000 1.0000
47.9000 318.0000 1.0000
47.9100 318.0000 1.0000
47.9200 311.0000 1.0000
47.9300 314.0000 1.0000
47.9400 315.0000 1.0000
47.9500 293.0000 1.0000
47.9600 315.0000 1.0000
47.9700 291.0000 1.0000
47.9800 357.0000 1.0000
47.9900 314.0000 1.0000
48.0000 291.0000 1.0000
48.0100 331.0000 1.0000
48.0200 310.0000 1.0000
48.0300 313.0000 1.0000
48.0400 319.0000 1.0000
48.0500 323.0000 1.0000
48.0600 317.0000 1.0000
48.0700 330.0000 1.0000
48.0800 322.0000 1.0000
48.0900 296.0000 1.0000
48.1000 286.0000 1.0000
48.1100 315.0000 1.0000
48.1200 311.0000 1.0000
48.1300 318.0000 1.0000
48.1400 325.0000 1.0000
48.1500 319.0000 1.0000
48.1600 331.0000 1.0000
48.1700 330.0000 1.0000
48.1800 312.0000 1.0000
48.1900 307.0000 1.0000
48.2000 317.0000 1.0000
48.2100 298.0000 1.0000
48.2200 315.0000 1.0000
48.2300 314.0000 1.0000
48.2400 275.0000 1.0000
48.2500 282.0000 1.0000
48.2600 324.0000 1.0000
48.2700 289.0000 1.0000
48.2800 344.0000 1.0000
48.2900 344.0000 1.0000
48.3000 328.0000 1.0000
48.3100 290.0000 1.0000
48.3200 319.0000 1.0000
48.3300 322.0000 1.0000
48.3400 319.0000 1.0000
48.3500 310.0000 1.0000
48.3600 308.0000 1.0000
48.3700 310.0000 1.0000
48.3800 329.0000 1.0000
48.3900 337.0000 1.0000
48.4000 305.0000 1.0000
48.4100 319.0000 1.0000
48.4200 311.0000 1.0000
48.4300 314.0000 1.0000
48.4400 324.0000 1.0000
48.4500 342.0000 1.0000
48.4600 319.0000 1.0000
48.4700 337.0000 1.0000
48.4800 327.0000 1.0000
48.4900 305.0000 1.0000
48.5000 312.0000 1.0000
48.5100 315.0000 1.0000
48.5200 265.0000 1.0000
48.5300 320.0000 1.0000
48.5400 325.0000 1.0000
48.5500 346.0000 1.0000
48.5600 332.0000 1.0000
48.5700 316.0000 1.0000
48.5800 303.0000 1.0000
48.5900 323.0000 1.0000
48.6000 330.0000 1.0000
48.6100 308.0000 1.0000
48.6200 320.0000 1.0000
48.6300 315.0000 1.0000
48.6400 306.0000 1.0000
48.6500 311.0000 1.0000
48.6600 317.0000 1.0000
48.6700 299.0000 1.0000
48.6800 326.0000 1.0000
48.6900 302.0000 1.0000
48.7000 297.0000 1.0000
48.7100 315.0000 1.0000
48.7200 324.0000 1.0000
48.7300 304.0000 1.0000
48.7400 303.0000 1.0000
48.7500 282.0000 1.0000
48.7600 292.0000 1.0000
48.7700 315.0000 1.0000
48.7800 298.0000 1.0000
48.7900 314.0000 1.0000
48.8000 301.0000 1.0000
48.8100 306.0000 1.0000
48.8200 308.0000 1.0000
48.8300 301.0000 1.0000
48.8400 287.0000 1.0000
48.8500 300.0000 1.0000
48.8600 328.0000 1.0000
48.8700 296.0000 1.0000
48.8800 288.0000 1.0000
48.8900 297.0000 1.0000
48.9000 312.0000 1.0000
48.9100 290.0000 1.0000
48.9200 291.0000 1.0000
48.9300 304.0000 1.0000
48.9400 335.0000 1.0000
48.9500 331.0000 1.0000
48.9600 327.0000 1.0000
48.9700 316.0000 1.0000
48.9800 309.0000 1.0000
48.9900 336.0000 1.0000
49.0000 316.0000 1.0000
49.0100 315.0000 1.0000
49.0200 304.0000 1.0000
49.0300 321.0000 1.0000
49.0400 323.0000 1.0000
49.0500 294.0000 1.0000
49.0600 292.0000 1.0000
49.0700 326.0000 1.0000
49.0800 317.0000 1.0000
49.0900 289.0000 1.0000
49.1000 331.0000 1.0000
49.1100 309.0000 1.0000
49.1200 298.0000 1.0000
49.1300 301.0000 1.0000
49.1400 294.0000 1.0000
49.1500 318.0000 1.0000
49.1600 328.0000 1.0000
49.1700 315.0000 1.0000
49.1800 303.0000 1.0000
49.1900 295.0000 1.0000
49.2000 303.0000 1.0000
49.2100 317.0000 1.0000
49.2200 302.0000 1.0000
49.2300 280.0000 1.0000
49.2400 316.0000 1.0000
49.2500 290.0000 1.0000
49.2600 286.0000 1.0000
49.2700 304.0000 1.0000
49.2800 326.0000 1.0000
49.2900 288.0000 1.0000
49.3000 281.0000 1.0000
49.3100 293.0000 1.0000
49.3200 302.0000 1.0000
49.3300 312.0000 1.0000
49.3400 317.0000 1.0000
49.3500 320.0000 1.0000
49.3600 308.0000 1.0000
49.3700 333.0000 1.0000
49.3800 298.0000 1.0000
49.3900 341.0000 1.0000
49.4000 309.0000 1.0000
49.4100 326.0000 1.0000
49.4200 324.0000 1.0000
49.4300 297.0000 1.0000
49.4400 284.0000 1.0000
49.4500 305.0000 1.0000
49.4600 297.0000 1.0000
49.4700 338.0000 1.0000
49.4800 285.0000 1.0000
49.4900 317.0000 1.0000
49.5000 301.0000 1.0000
49.5100 305.0000 1.0000
49.5200 311.0000 1.0000
49.5300 325.0000 1.0000
49.5400 307.0000 1.0000
49.5500 303.0000 1.0000
49.5600 293.0000 1.0000
49.5700 315.0000 1.0000
49.5800 293.0000 1.0000
49.5900 304.0000 1.0000
49.6000 313.0000 1.0000
49.6100 320.0000 1.0000
49.6200 326.0000 1.0000
49.6300 301.0000 1.0000
49.6400 297.0000 1.0000
49.6500 322.0000 1.0000
49.6600 306.0000 1.0000
49.6700 294.0000 1.0000
49.6800 318.0000 1.0000
49.6900 332.0000 1.0000
49.7000 327.0000 1.0000
49.7100 309.0000 1.0000
49.7200 309.0000 1.0000
49.7300 303.0000 1.0000
49.7400 316.0000 1.0000
49.7500 314.0000 1.0000
49.7600 303.0000 1.0000
49.7700 324.0000 1.0000
49.7800 321.0000 1.0000
49.7900 315.0000 1.0000
49.8000 327.0000 1.0000
49.8100 307.0000 1.0000
49.8200 304.0000 1.0000
49.8300 278.0000 1.0000
49.8400 323.0000 1.0000
49.8500 323.0000 1.0000
49.8600 321.0000 1.0000
49.8700 331.0000 1.0000
49.8800 328.0000 1.0000
49.8900 308.0000 1.0000
49.9000 282.0000 1.0000
49.9100 305.0000 1.0000
49.9200 318.0000 1.0000
49.9300 312.0000 1.0000
49.9400 316.0000 1.0000
49.9500 294.0000 1.0000
49.9600 278.0000 1.0000
49.9700 317.0000 1.0000
49.9800 304.0000 1.0000
49.9900 290.0000 1.0000
50.0000 283.0000 1.0000
50.0100 308.0000 1.0000
50.0200 315.0000 1.0000
50.0300 304.0000 1.0000
50.0400 304.0000 1.0000
50.0500 344.0000 1.0000
50.0600 308.0000 1.0000
50.0700 319.0000 1.0000
50.0800 350.0000 1.0000
50.0900 316.0000 1.0000
50.1000 309.0000 1.0000
50.1100 327.0000 1.0000
50.1200 320.0000 1.0000
50.1300 313.0000 1.0000
50.1400 295.0000 1.0000
50.1500 299.0000 1.0000
50.1600 320.0000 1.0000
50.1700 326.0000 1.0000
50.1800 324.0000 1.0000
50.1900 320.0000 1.0000
50.2000 321.0000 1.0000
50.2100 314.0000 1.0000
50.2200 329.0000 1.0000
50.2300 346.0000 1.0000
50.2400 289.0000 1.0000
50.2500 324.0000 1.0000
50.2600 345.0000 1.0000
50.2700 354.0000 1.0000
50.2800 350.0000 1.0000
50.2900 310.0000 1.0000
50.3000 320.0000 1.0000
50.3100 293.0000 1.0000
50.3200 303.0000 1.0000
50.3300 307.0000 1.0000
50.3400 313.0000 1.0000
50.3500 330.0000 1.0000
50.3600 316.0000 1.0000
50.3700 315.0000 1.0000
50.3800 304.0000 1.0000
50.3900 330.0000 1.0000
50.4000 296.0000 1.0000
50.4100 320.0000 1.0000
50.4200 307.0000 1.0000
50.4300 309.0000 1.0000
50.4400 307.0000 1.0000
50.4500 312.0000 1.0000
50.4600 348.0000 1.0000
50.4700 319.0000 1.0000
50.4800 328.0000 1.0000
50.4900 322.0000 1.0000
50.5000 295.0000 1.0000
50.5100 330.0000 1.0000
50.5200 308.0000 1.0000
50.5300 308.0000 1.0000
50.5400 305.0000 1.0000
50.5500 329.0000 1.0000
50.5600 309.0000 1.0000
50.5700 306.0000 1.0000
50.5800 331.0000 1.0000
50.5900 300.0000 1.0000
50.6000 323.0000 1.0000
50.6100 310.0000 1.0000
50.6200 345.0000 1.0000
50.6300 343.0000 1.0000
50.6400 314.0000 1.0000
50.6500 285.0000 1.0000
50.6600 276.0000 1.0000
50.6700 301.0000 1.0000
50.6800 308.0000 1.0000
50.6900 290.0000 1.0000
50.7000 289.0000 1.0000
50.7100 300.0000 1.0000
50.7200 355.0000 1.0000
50.7300 304.0000 1.0000
50.7400 308.0000 1.0000
50.7500 294.0000 1.0000
50.7600 325.0000 1.0000
50.7700 334.0000 1.0000
50.7800 291.0000 1.0000
50.7900 318.0000 1.0000
50.8000 307.0000 1.0000
50.8100 289.0000 1.0000
50.8200 307.0000 1.0000
50.8300 325.0000 1.0000
50.8400 309.0000 1.0000
50.8500 314.0000 1.0000
50.8600 335.0000 1.0000
50.8700 304.0000 1.0000
50.8800 309.0000 1.0000
50.8900 340.0000 1.0000
50.9000 345.0000 1.0000
50.9100 321.0000 1.0000
50.9200 296.0000 1.0000
50.9300 295.0000 1.0000
50.9400 305.0000 1.0000
50.9500 317.0000 1.0000
50.9600 332.0000 1.0000
50.9700 299.0000 1.0000
50.9800 311.0000 1.0000
50.9900 297.0000 1.0000
51.0000 292.0000 1.0000
51.0100 308.0000 1.0000
51.0200 327.0000 1.0000
51.0300 297.0000 1.0000
51.0400 307.0000 1.0000
51.0500 323.0000 1.0000
51.0600 302.0000 1.0000
51.0700 322.0000 1.0000
51.0800 300.0000 1.0000
51.0900 289.0000 1.0000
51.1000 337.0000 1.0000
51.1100 325.0000 1.0000
51.1200 304.0000 1.0000
51.1300 334.0000 1.0000
51.1400 312.0000 1.0000
51.1500 336.0000 1.0000
51.1600 350.0000 1.0000
51.1700 313.0000 1.0000
51.1800 307.0000 1.0000
51.1900 279.0000 1.0000
51.2000 300.0000 1.0000
51.2100 322.0000 1.0000
51.2200 317.0000 1.0000
51.2300 338.0000 1.0000
51.2400 335.0000 1.0000
51.2500 328.0000 1.0000
51.2600 326.0000 1.0000
51.2700 307.0000 1.0000
51.2800 294.0000 1.0000
51.2900 320.0000 1.0000
51.3000 289.0000 1.0000
51.3100 312.0000 1.0000
51.3200 325.0000 1.0000
51.3300 331.0000 1.0000
51.3400 312.0000 1.0000
51.3500 318.0000 1.0000
51.3600 310.0000 1.0000
51.3700 333.0000 1.0000
51.3800 340.0000 1.0000
51.3900 295.0000 1.0000
51.4000 293.0000 1.0000
51.4100 322.0000 1.0000
51.4200 325.0000 1.0000
51.4300 317.0000 1.0000
51.4400 323.0000 1.0000
51.4500 356.0000 1.0000
51.4600 345.0000 1.0000
51.4700 310.0000 1.0000
51.4800 321.0000 1.0000
51.4900 322.0000 1.0000
51.5000 348.0000 1.0000
51.5100 311.0000 1.0000
51.5200 303.0000 1.0000
51.5300 347.0000 1.0000
51.5400 323.0000 1.0000
51.5500 343.0000 1.0000
51.5600 319.0000 1.0000
51.5700 334.0000 1.0000
51.5800 322.0000 1.0000
51.5900 306.0000 1.0000
51.6000 332.0000 1.0000
51.6100 333.0000 1.0000
51.6200 301.0000 1.0000
51.6300 299.0000 1.0000
51.6400 306.0000 1.0000
51.6500 328.0000 1.0000
51.6600 313.0000 1.0000
51.6700 324.0000 1.0000
51.6800 352.0000 1.0000
51.6900 349.0000 1.0000
51.7000 338.0000 1.0000
51.7100 318.0000 1.0000
51.7200 301.0000 1.0000
51.7300 309.0000 1.0000
51.7400 343.0000 1.0000
51.7500 320.0000 1.0000
51.7600 305.0000 1.0000
51.7700 325.0000 1.0000
51.7800 348.0000 1.0000
51.7900 341.0000 1.0000
51.8000 371.0000 1.0000
51.8100 341.0000 1.0000
51.8200 337.0000 1.0000
51.8300 361.0000 1.0000
51.8400 346.0000 1.0000
51.8500 349.0000 1.0000
51.8600 366.0000 1.0000
51.8700 339.0000 1.0000
51.8800 376.0000 1.0000
51.8900 373.0000 1.0000
51.9000 387.0000 1.0000
51.9100 437.0000 1.0000
51.9200 373.0000 1.0000
51.9300 382.0000 1.0000
51.9400 380.0000 1.0000
51.9500 410.0000 1.0000
51.9600 430.0000 1.0000
51.9700 454.0000 1.0000
51.9800 454.0000 1.0000
51.9900 467.0000 1.0000
52.0000 497.0000 1.0000
52.0100 489.0000 1.0000
52.0200 491.0000 1.0000
52.0300 511.0000 1.0000
52.0400 553.0000 1.0000
52.0500 565.0000 1.0000
52.0600 589.0000 1.0000
52.0700 596.0000 1.0000
52.0800 617.0000 1.0000
52.0900 646.0000 1.0000
52.1000 682.0000 1.0000
52.1100 718.0000 1.0000
52.1200 776.0000 1.0000
52.1300 787.0000 1.0000
52.1400 889.0000 1.0000
52.1500 927.0000 1.0000
52.1600 966.0000 1.0000
52.1700 1036.0000 1.0000
52.1800 1166.0000 1.0000
52.1900 1266.0000 1.0000
52.2000 1340.0000 1.0000
52.2100 1515.0000 1.0000
52.2200 1708.0000 1.0000
52.2300 1826.0000 1.0000
52.2400 1899.0000 1.0000
52.2500 1971.0000 1.0000
52.2600 2120.0000 1.0000
52.2700 2192.0000 1.0000
52.2800 2325.0000 1.0000
52.2900 2347.0000 1.0000
52.3000 2380.0000 1.0000
52.3100 2305.0000 1.0000
52.3200 2210.0000 1.0000
52.3300 2300.0000 1.0000
52.3400 2185.0000 1.0000
52.3500 2060.0000 1.0000
52.3600 1968.0000 1.0000
52.3700 1910.0000 1.0000
52.3800 1857.0000 1.0000
52.3900 1839.0000 1.0000
52.4000 1800.0000 1.0000
52.4100 1762.0000 1.0000
52.4200 1725.0000 1.0000
52.4300 1662.0000 1.0000
52.4400 1598.0000 1.0000
52.4500 1531.0000 1.0000
52.4600 1415.0000 1.0000
52.4700 1341.0000 1.0000
52.4800 1264.0000 1.0000
52.4900 1154.0000 1.0000
52.5000 1079.0000 1.0000
52.5100 971.0000 1.0000
52.5200 931.0000 1.0000
52.5300 840.0000 1.0000
52.5400 784.0000 1.0000
52.5500 749.0000 1.0000
52.5600 702.0000 1.0000
52.5700 669.0000 1.0000
52.5800 619.0000 1.0000
52.5900 559.0000 1.0000
52.6000 504.0000 1.0000
52.6100 559.0000 1.0000
52.6200 576.0000 1.0000
52.6300 549.0000 1.0000
52.6400 524.0000 1.0000
52.6500 512.0000 1.0000
52.6600 506.0000 1.0000
52.6700 470.0000 1.0000
52.6800 460.0000 1.0000
52.6900 393.0000 1.0000
52.7000 417.0000 1.0000
52.7100 428.0000 1.0000
52.7200 378.0000 1.0000
52.7300 400.0000 1.0000
52.7400 390.0000 1.0000
52.7500 388.0000 1.0000
52.7600 371.0000 1.0000
52.7700 391.0000 1.0000
52.7800 376.0000 1.0000
52.7900 379.0000 1.0000
52.8000 356.0000 1.0000
52.8100 388.0000 1.0000
52.8200 361.0000 1.0000
52.8300 395.0000 1.0000
52.8400 372.0000 1.0000
52.8500 385.0000 1.0000
52.8600 351.0000 1.0000
52.8700 349.0000 1.0000
52.8800 340.0000 1.0000
52.8900 347.0000 1.0000
52.9000 353.0000 1.0000
52.9100 341.0000 1.0000
52.9200 369.0000 1.0000
52.9300 335.0000 1.0000
52.9400 334.0000 1.0000
52.9500 326.0000 1.0000
52.9600 335.0000 1.0000
52.9700 305.0000 1.0000
52.9800 362.0000 1.0000
52.9900 344.0000 1.0000
53.0000 367.0000 1.0000
53.0100 328.0000 1.0000
53.0200 359.0000 1.0000
53.0300 305.0000 1.0000
53.0400 327.0000 1.0000
53.0500 316.0000 1.0000
53.0600 314.0000 1.0000
53.0700 318.0000 1.0000
53.0800 302.0000 1.0000
53.0900 337.0000 1.0000
53.1000 325.0000 1.0000
53.1100 327.0000 1.0000
53.1200 323.0000 1.0000
53.1300 343.0000 1.0000
53.1400 306.0000 1.0000
53.1500 304.0000 1.0000
53.1600 321.0000 1.0000
53.1700 357.0000 1.0000
53.1800 325.0000 1.0000
53.1900 331.0000 1.0000
53.2000 301.0000 1.0000
53.2100 319.0000 1.0000
53.2200 323.0000 1.0000
53.2300 347.0000 1.0000
53.2400 299.0000 1.0000
53.2500 319.0000 1.0000
53.2600 309.0000 1.0000
53.2700 315.0000 1.0000
53.2800 332.0000 1.0000
53.2900 324.0000 1.0000
53.3000 338.0000 1.0000
53.3100 314.0000 1.0000
53.3200 310.0000 1.0000
53.3300 325.0000 1.0000
53.3400 349.0000 1.0000
53.3500 316.0000 1.0000
53.3600 315.0000 1.0000
53.3700 291.0000 1.0000
53.3800 313.0000 1.0000
53.3900 303.0000 1.0000
53.4000 313.0000 1.0000
53.4100 317.0000 1.0000
53.4200 306.0000 1.0000
53.4300 302.0000 1.0000
53.4400 312.0000 1.0000
53.4500 310.0000 1.0000
53.4600 317.0000 1.0000
53.4700 306.0000 1.0000
53.4800 285.0000 1.0000
53.4900 304.0000 1.0000
53.5000 325.0000 1.0000
53.5100 338.0000 1.0000
53.5200 308.0000 1.0000
53.5300 277.0000 1.0000
53.5400 293.0000 1.0000
53.5500 296.0000 1.0000
53.5600 337.0000 1.0000
53.5700 315.0000 1.0000
53.5800 316.0000 1.0000
53.5900 281.0000 1.0000
53.6000 325.0000 1.0000
53.6100 339.0000 1.0000
53.6200 299.0000 1.0000
53.6300 307.0000 1.0000
53.6400 303.0000 1.0000
53.6500 301.0000 1.0000
53.6600 304.0000 1.0000
53.6700 303.0000 1.0000
53.6800 292.0000 1.0000
53.6900 316.0000 1.0000
53.7000 321.0000 1.0000
53.7100 301.0000 1.0000
53.7200 310.0000 1.0000
53.7300 329.0000 1.0000
53.7400 304.0000 1.0000
53.7500 310.0000 1.0000
53.7600 315.0000 1.0000
53.7700 286.0000 1.0000
53.7800 334.0000 1.0000
53.7900 265.0000 1.0000
53.8000 282.0000 1.0000
53.8100 298.0000 1.0000
53.8200 298.0000 1.0000
53.8300 299.0000 1.0000
53.8400 307.0000 1.0000
53.8500 339.0000 1.0000
53.8600 307.0000 1.0000
53.8700 306.0000 1.0000
53.8800 307.0000 1.0000
53.8900 323.0000 1.0000
53.9000 300.0000 1.0000
53.9100 302.0000 1.0000
53.9200 305.0000 1.0000
53.9300 301.0000 1.0000
53.9400 287.0000 1.0000
53.9500 313.0000 1.0000
53.9600 302.0000 1.0000
53.9700 306.0000 1.0000
53.9800 298.0000 1.0000
53.9900 284.0000 1.0000
54.0000 305.0000 1.0000
54.0100 312.0000 1.0000
54.0200 320.0000 1.0000
54.0300 298.0000 1.0000
54.0400 294.0000 1.0000
54.0500 277.0000 1.0000
54.0600 276.0000 1.0000
54.0700 307.0000 1.0000
54.0800 288.0000 1.0000
54.0900 316.0000 1.0000
54.1000 306.0000 1.0000
54.1100 306.0000 1.0000
54.1200 308.0000 1.0000
54.1300 313.0000 1.0000
54.1400 301.0000 1.0000
54.1500 323.0000 1.0000
54.1600 319.0000 1.0000
54.1700 314.0000 1.0000
54.1800 339.0000 1.0000
54.1900 320.0000 1.0000
54.2000 304.0000 1.0000
54.2100 302.0000 1.0000
54.2200 315.0000 1.0000
54.2300 304.0000 1.0000
54.2400 299.0000 1.0000
54.2500 326.0000 1.0000
54.2600 294.0000 1.0000
54.2700 281.0000 1.0000
54.2800 298.0000 1.0000
54.2900 268.0000 1.0000
54.3000 314.0000 1.0000
54.3100 288.0000 1.0000
54.3200 278.0000 1.0000
54.3300 282.0000 1.0000
54.3400 280.0000 1.0000
54.3500 277.0000 1.0000
54.3600 297.0000 1.0000
54.3700 315.0000 1.0000
54.3800 301.0000 1.0000
54.3900 289.0000 1.0000
54.4000 308.0000 1.0000
54.4100 279.0000 1.0000
54.4200 297.0000 1.0000
54.4300 311.0000 1.0000
54.4400 284.0000 1.0000
54.4500 307.0000 1.0000
54.4600 292.0000 1.0000
54.4700 310.0000 1.0000
54.4800 288.0000 1.0000
54.4900 312.0000 1.0000
54.5000 291.0000 1.0000
54.5100 316.0000 1.0000
54.5200 333.0000 1.0000
54.5300 323.0000 1.0000
54.5400 350.0000 1.0000
54.5500 316.0000 1.0000
54.5600 291.0000 1.0000
54.5700 290.0000 1.0000
54.5800 302.0000 1.0000
54.5900 318.0000 1.0000
54.6000 316.0000 1.0000
54.6100 298.0000 1.0000
54.6200 313.0000 1.0000
54.6300 320.0000 1.0000
54.6400 304.0000 1.0000
54.6500 296.0000 1.0000
54.6600 307.0000 1.0000
54.6700 309.0000 1.0000
54.6800 328.0000 1.0000
54.6900 313.0000 1.0000
54.7000 297.0000 1.0000
54.7100 331.0000 1.0000
54.7200 327.0000 1.0000
54.7300 334.0000 1.0000
54.7400 319.0000 1.0000
54.7500 316.0000 1.0000
54.7600 292.0000 1.0000
54.7700 314.0000 1.0000
54.7800 324.0000 1.0000
54.7900 320.0000 1.0000
54.8000 330.0000 1.0000
54.8100 304.0000 1.0000
54.8200 319.0000 1.0000
54.8300 342.0000 1.0000
54.8400 331.0000 1.0000
54.8500 326.0000 1.0000
54.8600 322.0000 1.0000
54.8700 298.0000 1.0000
54.8800 343.0000 1.0000
54.8900 315.0000 1.0000
54.9000 309.0000 1.0000
54.9100 338.0000 1.0000
54.9200 326.0000 1.0000
54.9300 313.0000 1.0000
54.9400 291.0000 1.0000
54.9500 323.0000 1.0000
54.9600 321.0000 1.0000
54.9700 311.0000 1.0000
54.9800 340.0000 1.0000
54.9900 352.0000 1.0000
55.0000 320.0000 1.0000
55.0100 346.0000 1.0000
55.0200 346.0000 1.0000
55.0300 349.0000 1.0000
55.0400 305.0000 1.0000
55.0500 323.0000 1.0000
55.0600 326.0000 1.0000
55.0700 368.0000 1.0000
55.0800 375.0000 1.0000
55.0900 330.0000 1.0000
55.1000 375.0000 1.0000
55.1100 354.0000 1.0000
55.1200 389.0000 1.0000
55.1300 368.0000 1.0000
55.1400 365.0000 1.0000
55.1500 369.0000 1.0000
55.1600 387.0000 1.0000
55.1700 416.0000 1.0000
55.1800 371.0000 1.0000
55.1900 364.0000 1.0000
55.2000 428.0000 1.0000
55.2100 420.0000 1.0000
55.2200 431.0000 1.0000
55.2300 404.0000 1.0000
55.2400 389.0000 1.0000
55.2500 431.0000 1.0000
55.2600 409.0000 1.0000
55.2700 447.0000 1.0000
55.2800 445.0000 1.0000
55.2900 465.0000 1.0000
55.3000 464.0000 1.0000
55.3100 460.0000 1.0000
55.3200 479.0000 1.0000
55.3300 459.0000 1.0000
55.3400 450.0000 1.0000
55.3500 428.0000 1.0000
55.3600 478.0000 1.0000
55.3700 454.0000 1.0000
55.3800 456.0000 1.0000
55.3900 467.0000 1.0000
55.4000 445.0000 1.0000
55.4100 443.0000 1.0000
55.4200 449.0000 1.0000
55.4300 441.0000 1.0000
55.4400 399.0000 1.0000
55.4500 384.0000 1.0000
55.4600 420.0000 1.0000
55.4700 412.0000 1.0000
55.4800 400.0000 1.0000
55.4900 395.0000 1.0000
55.5000 404.0000 1.0000
55.5100 390.0000 1.0000
55.5200 388.0000 1.0000
55.5300 369.0000 1.0000
55.5400 374.0000 1.0000
55.5500 383.0000 1.0000
55.5600 364.0000 1.0000
55.5700 332.0000 1.0000
55.5800 353.0000 1.0000
55.5900 341.0000 1.0000
55.6000 332.0000 1.0000
55.6100 323.0000 1.0000
55.6200 337.0000 1.0000
55.6300 320.0000 1.0000
55.6400 297.0000 1.0000
55.6500 314.0000 1.0000
55.6600 350.0000 1.0000
55.6700 325.0000 1.0000
55.6800 314.0000 1.0000
55.6900 321.0000 1.0000
55.7000 329.0000 1.0000
55.7100 299.0000 1.0000
55.7200 295.0000 1.0000
55.7300 322.0000 1.0000
55.7400 302.0000 1.0000
55.7500 320.0000 1.0000
55.7600 326.0000 1.0000
55.7700 320.0000 1.0000
55.7800 310.0000 1.0000
55.7900 308.0000 1.0000
55.8000 316.0000 1.0000
55.8100 302.0000 1.0000
55.8200 312.0000 1.0000
55.8300 313.0000 1.0000
55.8400 293.0000 1.0000
55.8500 288.0000 1.0000
55.8600 312.0000 1.0000
55.8700 277.0000 1.0000
55.8800 294.0000 1.0000
55.8900 317.0000 1.0000
55.9000 279.0000 1.0000
55.9100 289.0000 1.0000
55.9200 301.0000 1.0000
55.9300 308.0000 1.0000
55.9400 293.0000 1.0000
55.9500 317.0000 1.0000
55.9600 315.0000 1.0000
55.9700 317.0000 1.0000
55.9800 287.0000 1.0000
55.9900 282.0000 1.0000
56.0000 301.0000 1.0000
56.0100 320.0000 1.0000
56.0200 288.0000 1.0000
56.0300 302.0000 1.0000
56.0400 290.0000 1.0000
56.0500 293.0000 1.0000
56.0600 295.0000 1.0000
56.0700 301.0000 1.0000
56.0800 273.0000 1.0000
56.0900 285.0000 1.0000
56.1000 280.0000 1.0000
56.1100 307.0000 1.0000
56.1200 296.0000 1.0000
56.1300 268.0000 1.0000
56.1400 296.0000 1.0000
56.1500 287.0000 1.0000
56.1600 319.0000 1.0000
56.1700 292.0000 1.0000
56.1800 279.0000 1.0000
56.1900 272.0000 1.0000
56.2000 286.0000 1.0000
56.2100 264.0000 1.0000
56.2200 273.0000 1.0000
56.2300 284.0000 1.0000
56.2400 280.0000 1.0000
56.2500 261.0000 1.0000
56.2600 286.0000 1.0000
56.2700 326.0000 1.0000
56.2800 279.0000 1.0000
56.2900 272.0000 1.0000
56.3000 297.0000 1.0000
56.3100 305.0000 1.0000
56.3200 275.0000 1.0000
56.3300 282.0000 1.0000
56.3400 296.0000 1.0000
56.3500 306.0000 1.0000
56.3600 271.0000 1.0000
56.3700 280.0000 1.0000
56.3800 292.0000 1.0000
56.3900 270.0000 1.0000
56.4000 294.0000 1.0000
56.4100 315.0000 1.0000
56.4200 301.0000 1.0000
56.4300 276.0000 1.0000
56.4400 294.0000 1.0000
56.4500 291.0000 1.0000
56.4600 262.0000 1.0000
56.4700 300.0000 1.0000
56.4800 309.0000 1.0000
56.4900 248.0000 1.0000
56.5000 290.0000 1.0000
56.5100 288.0000 1.0000
56.5200 295.0000 1.0000
56.5300 305.0000 1.0000
56.5400 275.0000 1.0000
56.5500 293.0000 1.0000
56.5600 303.0000 1.0000
56.5700 318.0000 1.0000
56.5800 288.0000 1.0000
56.5900 292.0000 1.0000
56.6000 306.0000 1.0000
56.6100 299.0000 1.0000
56.6200 287.0000 1.0000
56.6300 280.0000 1.0000
56.6400 278.0000 1.0000
56.6500 294.0000 1.0000
56.6600 274.0000 1.0000
56.6700 269.0000 1.0000
56.6800 283.0000 1.0000
56.6900 295.0000 1.0000
56.7000 280.0000 1.0000
56.7100 280.0000 1.0000
56.7200 290.0000 1.0000
56.7300 295.0000 1.0000
56.7400 315.0000 1.0000
56.7500 302.0000 1.0000
56.7600 285.0000 1.0000
56.7700 286.0000 1.0000
56.7800 309.0000 1.0000
56.7900 273.0000 1.0000
56.8000 291.0000 1.0000
56.8100 307.0000 1.0000
56.8200 271.0000 1.0000
56.8300 308.0000 1.0000
56.8400 298.0000 1.0000
56.8500 288.0000 1.0000
56.8600 296.0000 1.0000
56.8700 309.0000 1.0000
56.8800 298.0000 1.0000
56.8900 309.0000 1.0000
56.9000 295.0000 1.0000
56.9100 311.0000 1.0000
56.9200 290.0000 1.0000
56.9300 271.0000 1.0000
56.9400 287.0000 1.0000
56.9500 280.0000 1.0000
56.9600 286.0000 1.0000
56.9700 302.0000 1.0000
56.9800 283.0000 1.0000
56.9900 258.0000 1.0000
57.0000 311.0000 1.0000
57.0100 287.0000 1.0000
57.0200 293.0000 1.0000
57.0300 301.0000 1.0000
57.0400 270.0000 1.0000
57.0500 283.0000 1.0000
57.0600 295.0000 1.0000
57.0700 295.0000 1.0000
57.0800 286.0000 1.0000
57.0900 311.0000 1.0000
57.1000 284.0000 1.0000
57.1100 281.0000 1.0000
57.1200 312.0000 1.0000
57.1300 265.0000 1.0000
57.1400 278.0000 1.0000
57.1500 295.0000 1.0000
57.1600 275.0000 1.0000
57.1700 297.0000 1.0000
57.1800 296.0000 1.0000
57.1900 271.0000 1.0000
57.2000 269.0000 1.0000
57.2100 287.0000 1.0000
57.2200 278.0000 1.0000
57.2300 271.0000 1.0000
57.2400 286.0000 1.0000
57.2500 283.0000 1.0000
57.2600 267.0000 1.0000
57.2700 291.0000 1.0000
57.2800 290.0000 1.0000
57.2900 293.0000 1.0000
57.3000 286.0000 1.0000
57.3100 263.0000 1.0000
57.3200 307.0000 1.0000
57.3300 319.0000 1.0000
57.3400 270.0000 1.0000
57.3500 291.0000 1.0000
57.3600 295.0000 1.0000
57.3700 287.0000 1.0000
57.3800 307.0000 1.0000
57.3900 307.0000 1.0000
57.4000 308.0000 1.0000
57.4100 303.0000 1.0000
57.4200 282.0000 1.0000
57.4300 259.0000 1.0000
57.4400 285.0000 1.0000
57.4500 294.0000 1.0000
57.4600 284.0000 1.0000
57.4700 310.0000 1.0000
57.4800 325.0000 1.0000
57.4900 322.0000 1.0000
57.5000 305.0000 1.0000
57.5100 287.0000 1.0000
57.5200 296.0000 1.0000
57.5300 298.0000 1.0000
57.5400 286.0000 1.0000
57.5500 294.0000 1.0000
57.5600 286.0000 1.0000
57.5700 313.0000 1.0000
57.5800 303.0000 1.0000
57.5900 280.0000 1.0000
57.6000 270.0000 1.0000
57.6100 300.0000 1.0000
57.6200 274.0000 1.0000
57.6300 285.0000 1.0000
57.6400 267.0000 1.0000
57.6500 265.0000 1.0000
57.6600 281.0000 1.0000
57.6700 285.0000 1.0000
57.6800 297.0000 1.0000
57.6900 275.0000 1.0000
57.7000 259.0000 1.0000
57.7100 285.0000 1.0000
57.7200 259.0000 1.0000
57.7300 268.0000 1.0000
57.7400 282.0000 1.0000
57.7500 279.0000 1.0000
57.7600 275.0000 1.0000
57.7700 269.0000 1.0000
57.7800 270.0000 1.0000
57.7900 310.0000 1.0000
57.8000 275.0000 1.0000
57.8100 277.0000 1.0000
57.8200 306.0000 1.0000
57.8300 286.0000 1.0000
57.8400 274.0000 1.0000
57.8500 286.0000 1.0000
57.8600 305.0000 1.0000
57.8700 292.0000 1.0000
57.8800 298.0000 1.0000
57.8900 276.0000 1.0000
57.9000 293.0000 1.0000
57.9100 295.0000 1.0000
57.9200 312.0000 1.0000
57.9300 294.0000 1.0000
57.9400 277.0000 1.0000
57.9500 298.0000 1.0000
57.9600 277.0000 1.0000
57.9700 285.0000 1.0000
57.9800 281.0000 1.0000
57.9900 275.0000 1.0000
58.0000 295.0000 1.0000
58.0100 324.0000 1.0000
58.0200 308.0000 1.0000
58.0300 298.0000 1.0000
58.0400 298.0000 1.0000
58.0500 289.0000 1.0000
58.0600 294.0000 1.0000
58.0700 298.0000 1.0000
58.0800 304.0000 1.0000
58.0900 316.0000 1.0000
58.1000 304.0000 1.0000
58.1100 287.0000 1.0000
58.1200 278.0000 1.0000
58.1300 273.0000 1.0000
58.1400 305.0000 1.0000
58.1500 317.0000 1.0000
58.1600 306.0000 1.0000
58.1700 305.0000 1.0000
58.1800 297.0000 1.0000
58.1900 275.0000 1.0000
58.2000 264.0000 1.0000
58.2100 290.0000 1.0000
58.2200 334.0000 1.0000
58.2300 326.0000 1.0000
58.2400 308.0000 1.0000
58.2500 283.0000 1.0000
58.2600 320.0000 1.0000
58.2700 293.0000 1.0000
58.2800 306.0000 1.0000
58.2900 331.0000 1.0000
58.3000 301.0000 1.0000
58.3100 291.0000 1.0000
58.3200 268.0000 1.0000
58.3300 289.0000 1.0000
58.3400 303.0000 1.0000
58.3500 281.0000 1.0000
58.3600 285.0000 1.0000
58.3700 294.0000 1.0000
58.3800 308.0000 1.0000
58.3900 299.0000 1.0000
58.4000 286.0000 1.0000
58.4100 294.0000 1.0000
58.4200 293.0000 1.0000
58.4300 303.0000 1.0000
58.4400 281.0000 1.0000
58.4500 284.0000 1.0000
58.4600 261.0000 1.0000
58.4700 296.0000 1.0000
58.4800 317.0000 1.0000
58.4900 308.0000 1.0000
58.5000 315.0000 1.0000
58.5100 298.0000 1.0000
58.5200 297.0000 1.0000
58.5300 272.0000 1.0000
58.5400 280.0000 1.0000
58.5500 307.0000 1.0000
58.5600 299.0000 1.0000
58.5700 280.0000 1.0000
58.5800 282.0000 1.0000
58.5900 278.0000 1.0000
58.6000 265.0000 1.0000
58.6100 301.0000 1.0000
58.6200 270.0000 1.0000
58.6300 285.0000 1.0000
58.6400 259.0000 1.0000
58.6500 284.0000 1.0000
58.6600 291.0000 1.0000
58.6700 304.0000 1.0000
58.6800 296.0000 1.0000
58.6900 273.0000 1.0000
58.7000 305.0000 1.0000
58.7100 285.0000 1.0000
58.7200 317.0000 1.0000
58.7300 294.0000 1.0000
58.7400 286.0000 1.0000
58.7500 280.0000 1.0000
58.7600 308.0000 1.0000
58.7700 291.0000 1.0000
58.7800 289.0000 1.0000
58.7900 281.0000 1.0000
58.8000 291.0000 1.0000
58.8100 287.0000 1.0000
58.8200 290.0000 1.0000
58.8300 252.0000 1.0000
58.8400 272.0000 1.0000
58.8500 270.0000 1.0000
58.8600 275.0000 1.0000
58.8700 293.0000 1.0000
58.8800 299.0000 1.0000
58.8900 281.0000 1.0000
58.9000 267.0000 1.0000
58.9100 292.0000 1.0000
58.9200 270.0000 1.0000
58.9300 242.0000 1.0000
58.9400 276.0000 1.0000
58.9500 274.0000 1.0000
58.9600 285.0000 1.0000
58.9700 271.0000 1.0000
58.9800 291.0000 1.0000
58.9900 296.0000 1.0000
59.0000 314.0000 1.0000
59.0100 265.0000 1.0000
59.0200 276.0000 1.0000
59.0300 288.0000 1.0000
59.0400 298.0000 1.0000
59.0500 293.0000 1.0000
59.0600 264.0000 1.0000
59.0700 309.0000 1.0000
59.0800 313.0000 1.0000
59.0900 286.0000 1.0000
59.1000 287.0000 1.0000
59.1100 288.0000 1.0000
59.1200 259.0000 1.0000
59.1300 296.0000 1.0000
59.1400 294.0000 1.0000
59.1500 263.0000 1.0000
59.1600 270.0000 1.0000
59.1700 284.0000 1.0000
59.1800 284.0000 1.0000
59.1900 274.0000 1.0000
59.2000 300.0000 1.0000
59.2100 306.0000 1.0000
59.2200 300.0000 1.0000
59.2300 303.0000 1.0000
59.2400 282.0000 1.0000
59.2500 280.0000 1.0000
59.2600 293.0000 1.0000
59.2700 319.0000 1.0000
59.2800 301.0000 1.0000
59.2900 306.0000 1.0000
59.3000 290.0000 1.0000
59.3100 308.0000 1.0000
59.3200 295.0000 1.0000
59.3300 292.0000 1.0000
59.3400 287.0000 1.0000
59.3500 277.0000 1.0000
59.3600 303.0000 1.0000
59.3700 297.0000 1.0000
59.3800 301.0000 1.0000
59.3900 294.0000 1.0000
59.4000 276.0000 1.0000
59.4100 292.0000 1.0000
59.4200 272.0000 1.0000
59.4300 305.0000 1.0000
59.4400 309.0000 1.0000
59.4500 296.0000 1.0000
59.4600 299.0000 1.0000
59.4700 296.0000 1.0000
59.4800 300.0000 1.0000
59.4900 249.0000 1.0000
59.5000 281.0000 1.0000
59.5100 306.0000 1.0000
59.5200 280.0000 1.0000
59.5300 309.0000 1.0000
59.5400 275.0000 1.0000
59.5500 292.0000 1.0000
59.5600 282.0000 1.0000
59.5700 315.0000 1.0000
59.5800 306.0000 1.0000
59.5900 295.0000 1.0000
59.6000 278.0000 1.0000
59.6100 286.0000 1.0000
59.6200 290.0000 1.0000
59.6300 304.0000 1.0000
59.6400 291.0000 1.0000
59.6500 312.0000 1.0000
59.6600 291.0000 1.0000
59.6700 288.0000 1.0000
59.6800 274.0000 1.0000
59.6900 261.0000 1.0000
59.7000 264.0000 1.0000
59.7100 264.0000 1.0000
59.7200 298.0000 1.0000
59.7300 275.0000 1.0000
59.7400 286.0000 1.0000
59.7500 277.0000 1.0000
59.7600 268.0000 1.0000
59.7700 276.0000 1.0000
59.7800 297.0000 1.0000
59.7900 289.0000 1.0000
59.8000 299.0000 1.0000
59.8100 306.0000 1.0000
59.8200 279.0000 1.0000
59.8300 278.0000 1.0000
59.8400 273.0000 1.0000
59.8500 300.0000 1.0000
59.8600 275.0000 1.0000
59.8700 303.0000 1.0000
59.8800 288.0000 1.0000
59.8900 317.0000 1.0000
59.9000 290.0000 1.0000
59.9100 320.0000 1.0000
59.9200 301.0000 1.0000
59.9300 267.0000 1.0000
59.9400 300.0000 1.0000
59.9500 297.0000 1.0000
59.9600 263.0000 1.0000
59.9700 270.0000 1.0000
59.9800 256.0000 1.0000
59.9900 285.0000 1.0000
60.0000 274.0000 1.0000
60.0100 294.0000 1.0000
60.0200 291.0000 1.0000
60.0300 290.0000 1.0000
60.0400 274.0000 1.0000
60.0500 299.0000 1.0000
60.0600 268.0000 1.0000
60.0700 271.0000 1.0000
60.0800 284.0000 1.0000
60.0900 271.0000 1.0000
60.1000 274.0000 1.0000
60.1100 280.0000 1.0000
60.1200 275.0000 1.0000
60.1300 286.0000 1.0000
60.1400 281.0000 1.0000
60.1500 290.0000 1.0000
60.1600 304.0000 1.0000
60.1700 291.0000 1.0000
60.1800 273.0000 1.0000
60.1900 264.0000 1.0000
60.2000 290.0000 1.0000
60.2100 270.0000 1.0000
60.2200 309.0000 1.0000
60.2300 263.0000 1.0000
60.2400 272.0000 1.0000
60.2500 285.0000 1.0000
60.2600 280.0000 1.0000
60.2700 291.0000 1.0000
60.2800 294.0000 1.0000
60.2900 262.0000 1.0000
60.3000 305.0000 1.0000
60.3100 276.0000 1.0000
60.3200 284.0000 1.0000
60.3300 286.0000 1.0000
60.3400 268.0000 1.0000
60.3500 267.0000 1.0000
60.3600 294.0000 1.0000
60.3700 283.0000 1.0000
60.3800 281.0000 1.0000
60.3900 277.0000 1.0000
60.4000 271.0000 1.0000
60.4100 269.0000 1.0000
60.4200 268.0000 1.0000
60.4300 283.0000 1.0000
60.4400 285.0000 1.0000
60.4500 279.0000 1.0000
60.4600 285.0000 1.0000
60.4700 279.0000 1.0000
60.4800 293.0000 1.0000
60.4900 323.0000 1.0000
60.5000 283.0000 1.0000
60.5100 258.0000 1.0000
60.5200 273.0000 1.0000
60.5300 303.0000 1.0000
60.5400 275.0000 1.0000
60.5500 263.0000 1.0000
60.5600 256.0000 1.0000
60.5700 297.0000 1.0000
60.5800 295.0000 1.0000
60.5900 272.0000 1.0000
60.6000 313.0000 1.0000
60.6100 289.0000 1.0000
60.6200 292.0000 1.0000
60.6300 270.0000 1.0000
60.6400 266.0000 1.0000
60.6500 305.0000 1.0000
60.6600 300.0000 1.0000
60.6700 271.0000 1.0000
60.6800 283.0000 1.0000
60.6900 310.0000 1.0000
60.7000 263.0000 1.0000
60.7100 304.0000 1.0000
60.7200 303.0000 1.0000
60.7300 293.0000 1.0000
60.7400 282.0000 1.0000
60.7500 278.0000 1.0000
60.7600 307.0000 1.0000
60.7700 278.0000 1.0000
60.7800 277.0000 1.0000
60.7900 290.0000 1.0000
60.8000 299.0000 1.0000
60.8100 304.0000 1.0000
60.8200 304.0000 1.0000
60.8300 298.0000 1.0000
60.8400 287.0000 1.0000
60.8500 274.0000 1.0000
60.8600 281.0000 1.0000
60.8700 282.0000 1.0000
60.8800 295.0000 1.0000
60.8900 286.0000 1.0000
60.9000 274.0000 1.0000
60.9100 285.0000 1.0000
60.9200 290.0000 1.0000
60.9300 305.0000 1.0000
60.9400 270.0000 1.0000
60.9500 295.0000 1.0000
60.9600 306.0000 1.0000
60.9700 309.0000 1.0000
60.9800 294.0000 1.0000
60.9900 278.0000 1.0000
61.0000 269.0000 1.0000
61.0100 298.0000 1.0000
61.0200 325.0000 1.0000
61.0300 289.0000 1.0000
61.0400 301.0000 1.0000
61.0500 324.0000 1.0000
61.0600 295.0000 1.0000
61.0700 285.0000 1.0000
61.0800 302.0000 1.0000
61.0900 306.0000 1.0000
61.1000 283.0000 1.0000
61.1100 303.0000 1.0000
61.1200 274.0000 1.0000
61.1300 261.0000 1.0000
61.1400 286.0000 1.0000
61.1500 311.0000 1.0000
61.1600 301.0000 1.0000
61.1700 284.0000 1.0000
61.1800 269.0000 1.0000
61.1900 266.0000 1.0000
61.2000 273.0000 1.0000
61.2100 320.0000 1.0000
61.2200 306.0000 1.0000
61.2300 310.0000 1.0000
61.2400 266.0000 1.0000
61.2500 259.0000 1.0000
61.2600 267.0000 1.0000
61.2700 274.0000 1.0000
61.2800 275.0000 1.0000
61.2900 290.0000 1.0000
61.3000 243.0000 1.0000
61.3100 283.0000 1.0000
61.3200 293.0000 1.0000
61.3300 288.0000 1.0000
61.3400 278.0000 1.0000
61.3500 292.0000 1.0000
61.3600 259.0000 1.0000
61.3700 297.0000 1.0000
61.3800 285.0000 1.0000
61.3900 303.0000 1.0000
61.4000 290.0000 1.0000
61.4100 296.0000 1.0000
61.4200 302.0000 1.0000
61.4300 290.0000 1.0000
61.4400 292.0000 1.0000
61.4500 286.0000 1.0000
61.4600 303.0000 1.0000
61.4700 306.0000 1.0000
61.4800 290.0000 1.0000
61.4900 286.0000 1.0000
61.5000 291.0000 1.0000
61.5100 294.0000 1.0000
61.5200 292.0000 1.0000
61.5300 295.0000 1.0000
61.5400 317.0000 1.0000
61.5500 290.0000 1.0000
61.5600 299.0000 1.0000
61.5700 308.0000 1.0000
61.5800 256.0000 1.0000
61.5900 283.0000 1.0000
61.6000 312.0000 1.0000
61.6100 294.0000 1.0000
61.6200 279.0000 1.0000
61.6300 298.0000 1.0000
61.6400 310.0000 1.0000
61.6500 300.0000 1.0000
61.6600 267.0000 1.0000
61.6700 289.0000 1.0000
61.6800 296.0000 1.0000
61.6900 315.0000 1.0000
61.7000 288.0000 1.0000
61.7100 297.0000 1.0000
61.7200 301.0000 1.0000
61.7300 283.0000 1.0000
61.7400 312.0000 1.0000
61.7500 293.0000 1.0000
61.7600 280.0000 1.0000
61.7700 280.0000 1.0000
61.7800 306.0000 1.0000
61.7900 322.0000 1.0000
61.8000 312.0000 1.0000
61.8100 296.0000 1.0000
61.8200 303.0000 1.0000
61.8300 327.0000 1.0000
61.8400 285.0000 1.0000
61.8500 318.0000 1.0000
61.8600 331.0000 1.0000
61.8700 309.0000 1.0000
61.8800 301.0000 1.0000
61.8900 318.0000 1.0000
61.9000 316.0000 1.0000
61.9100 316.0000 1.0000
61.9200 346.0000 1.0000
61.9300 325.0000 1.0000
61.9400 285.0000 1.0000
61.9500 328.0000 1.0000
61.9600 343.0000 1.0000
61.9700 333.0000 1.0000
61.9800 361.0000 1.0000
61.9900 364.0000 1.0000
62.0000 366.0000 1.0000
62.0100 348.0000 1.0000
62.0200 356.0000 1.0000
62.0300 364.0000 1.0000
62.0400 405.0000 1.0000
62.0500 360.0000 1.0000
62.0600 371.0000 1.0000
62.0700 390.0000 1.0000
62.0800 397.0000 1.0000
62.0900 432.0000 1.0000
62.1000 442.0000 1.0000
62.1100 444.0000 1.0000
62.1200 416.0000 1.0000
62.1300 456.0000 1.0000
62.1400 459.0000 1.0000
62.1500 471.0000 1.0000
62.1600 471.0000 1.0000
62.1700 497.0000 1.0000
62.1800 509.0000 1.0000
62.1900 539.0000 1.0000
62.2000 536.0000 1.0000
62.2100 529.0000 1.0000
62.2200 562.0000 1.0000
62.2300 593.0000 1.0000
62.2400 574.0000 1.0000
62.2500 575.0000 1.0000
62.2600 593.0000 1.0000
62.2700 596.0000 1.0000
62.2800 609.0000 1.0000
62.2900 654.0000 1.0000
62.3000 641.0000 1.0000
62.3100 590.0000 1.0000
62.3200 644.0000 1.0000
62.3300 621.0000 1.0000
62.3400 610.0000 1.0000
62.3500 646.0000 1.0000
62.3600 605.0000 1.0000
62.3700 620.0000 1.0000
62.3800 560.0000 1.0000
62.3900 604.0000 1.0000
62.4000 631.0000 1.0000
62.4100 559.0000 1.0000
62.4200 601.0000 1.0000
62.4300 588.0000 1.0000
62.4400 570.0000 1.0000
62.4500 572.0000 1.0000
62.4600 566.0000 1.0000
62.4700 561.0000 1.0000
62.4800 544.0000 1.0000
62.4900 521.0000 1.0000
62.5000 474.0000 1.0000
62.5100 501.0000 1.0000
62.5200 489.0000 1.0000
62.5300 497.0000 1.0000
62.5400 478.0000 1.0000
62.5500 471.0000 1.0000
62.5600 483.0000 1.0000
62.5700 473.0000 1.0000
62.5800 451.0000 1.0000
62.5900 458.0000 1.0000
62.6000 440.0000 1.0000
62.6100 420.0000 1.0000
62.6200 407.0000 1.0000
62.6300 393.0000 1.0000
62.6400 401.0000 1.0000
62.6500 404.0000 1.0000
62.6600 386.0000 1.0000
62.6700 375.0000 1.0000
62.6800 408.0000 1.0000
62.6900 387.0000 1.0000
62.7000 363.0000 1.0000
62.7100 324.0000 1.0000
62.7200 367.0000 1.0000
62.7300 384.0000 1.0000
62.7400 347.0000 1.0000
62.7500 385.0000 1.0000
62.7600 364.0000 1.0000
62.7700 352.0000 1.0000
62.7800 350.0000 1.0000
62.7900 326.0000 1.0000
62.8000 329.0000 1.0000
62.8100 315.0000 1.0000
62.8200 315.0000 1.0000
62.8300 327.0000 1.0000
62.8400 318.0000 1.0000
62.8500 282.0000 1.0000
62.8600 302.0000 1.0000
62.8700 316.0000 1.0000
62.8800 323.0000 1.0000
62.8900 321.0000 1.0000
62.9000 331.0000 1.0000
62.9100 347.0000 1.0000
62.9200 335.0000 1.0000
62.9300 310.0000 1.0000
62.9400 337.0000 1.0000
62.9500 302.0000 1.0000
62.9600 310.0000 1.0000
62.9700 290.0000 1.0000
62.9800 310.0000 1.0000
62.9900 306.0000 1.0000
63.0000 311.0000 1.0000
63.0100 283.0000 1.0000
63.0200 311.0000 1.0000
63.0300 300.0000 1.0000
63.0400 323.0000 1.0000
63.0500 286.0000 1.0000
63.0600 320.0000 1.0000
63.0700 318.0000 1.0000
63.0800 301.0000 1.0000
63.0900 296.0000 1.0000
63.1000 320.0000 1.0000
63.1100 310.0000 1.0000
63.1200 306.0000 1.0000
63.1300 327.0000 1.0000
63.1400 332.0000 1.0000
63.1500 323.0000 1.0000
63.1600 320.0000 1.0000
63.1700 333.0000 1.0000
63.1800 298.0000 1.0000
63.1900 315.0000 1.0000
63.2000 321.0000 1.0000
63.2100 297.0000 1.0000
63.2200 285.0000 1.0000
63.2300 277.0000 1.0000
63.2400 296.0000 1.0000
63.2500 291.0000 1.0000
63.2600 307.0000 1.0000
63.2700 288.0000 1.0000
63.2800 312.0000 1.0000
63.2900 320.0000 1.0000
63.3000 292.0000 1.0000
63.3100 312.0000 1.0000
63.3200 315.0000 1.0000
63.3300 330.0000 1.0000
63.3400 336.0000 1.0000
63.3500 289.0000 1.0000
63.3600 292.0000 1.0000
63.3700 296.0000 1.0000
63.3800 330.0000 1.0000
63.3900 302.0000 1.0000
63.4000 312.0000 1.0000
63.4100 308.0000 1.0000
63.4200 290.0000 1.0000
63.4300 287.0000 1.0000
63.4400 312.0000 1.0000
63.4500 279.0000 1.0000
63.4600 292.0000 1.0000
63.4700 302.0000 1.0000
63.4800 297.0000 1.0000
63.4900 282.0000 1.0000
63.5000 285.0000 1.0000
63.5100 255.0000 1.0000
63.5200 275.0000 1.0000
63.5300 291.0000 1.0000
63.5400 271.0000 1.0000
63.5500 295.0000 1.0000
63.5600 293.0000 1.0000
63.5700 286.0000 1.0000
63.5800 296.0000 1.0000
63.5900 275.0000 1.0000
63.6000 281.0000 1.0000
63.6100 276.0000 1.0000
63.6200 248.0000 1.0000
63.6300 279.0000 1.0000
63.6400 297.0000 1.0000
63.6500 275.0000 1.0000
63.6600 284.0000 1.0000
63.6700 277.0000 1.0000
63.6800 301.0000 1.0000
63.6900 295.0000 1.0000
63.7000 310.0000 1.0000
63.7100 313.0000 1.0000
63.7200 299.0000 1.0000
63.7300 327.0000 1.0000
63.7400 297.0000 1.0000
63.7500 281.0000 1.0000
63.7600 279.0000 1.0000
63.7700 261.0000 1.0000
63.7800 306.0000 1.0000
63.7900 301.0000 1.0000
63.8000 288.0000 1.0000
63.8100 266.0000 1.0000
63.8200 290.0000 1.0000
63.8300 276.0000 1.0000
63.8400 282.0000 1.0000
63.8500 283.0000 1.0000
63.8600 290.0000 1.0000
63.8700 310.0000 1.0000
63.8800 258.0000 1.0000
63.8900 299.0000 1.0000
63.9000 291.0000 1.0000
63.9100 269.0000 1.0000
63.9200 279.0000 1.0000
63.9300 301.0000 1.0000
63.9400 287.0000 1.0000
63.9500 308.0000 1.0000
63.9600 291.0000 1.0000
63.9700 296.0000 1.0000
63.9800 308.0000 1.0000
63.9900 316.0000 1.0000
64.0000 311.0000 1.0000
64.0100 282.0000 1.0000
64.0200 276.0000 1.0000
64.0300 300.0000 1.0000
64.0400 299.0000 1.0000
64.0500 287.0000 1.0000
64.0600 304.0000 1.0000
64.0700 297.0000 1.0000
64.0800 293.0000 1.0000
64.0900 268.0000 1.0000
64.1000 291.0000 1.0000
64.1100 286.0000 1.0000
64.1200 287.0000 1.0000
64.1300 275.0000 1.0000
64.1400 306.0000 1.0000
64.1500 294.0000 1.0000
64.1600 294.0000 1.0000
64.1700 275.0000 1.0000
64.1800 260.0000 1.0000
64.1900 254.0000 1.0000
64.2000 308.0000 1.0000
64.2100 276.0000 1.0000
64.2200 273.0000 1.0000
64.2300 295.0000 1.0000
64.2400 304.0000 1.0000
64.2500 275.0000 1.0000
64.2600 297.0000 1.0000
64.2700 298.0000 1.0000
64.2800 301.0000 1.0000
64.2900 294.0000 1.0000
64.3000 261.0000 1.0000
64.3100 279.0000 1.0000
64.3200 298.0000 1.0000
64.3300 287.0000 1.0000
64.3400 328.0000 1.0000
64.3500 314.0000 1.0000
64.3600 272.0000 1.0000
64.3700 311.0000 1.0000
64.3800 317.0000 1.0000
64.3900 312.0000 1.0000
64.4000 290.0000 1.0000
64.4100 315.0000 1.0000
64.4200 332.0000 1.0000
64.4300 299.0000 1.0000
64.4400 299.0000 1.0000
64.4500 311.0000 1.0000
64.4600 310.0000 1.0000
64.4700 313.0000 1.0000
64.4800 285.0000 1.0000
64.4900 295.0000 1.0000
64.5000 296.0000 1.0000
64.5100 303.0000 1.0000
64.5200 341.0000 1.0000
64.5300 327.0000 1.0000
64.5400 350.0000 1.0000
64.5500 310.0000 1.0000
64.5600 351.0000 1.0000
64.5700 330.0000 1.0000
64.5800 355.0000 1.0000
64.5900 341.0000 1.0000
64.6000 337.0000 1.0000
64.6100 341.0000 1.0000
64.6200 363.0000 1.0000
64.6300 353.0000 1.0000
64.6400 376.0000 1.0000
64.6500 378.0000 1.0000
64.6600 387.0000 1.0000
64.6700 376.0000 1.0000
64.6800 382.0000 1.0000
64.6900 380.0000 1.0000
64.7000 358.0000 1.0000
64.7100 399.0000 1.0000
64.7200 394.0000 1.0000
64.7300 391.0000 1.0000
64.7400 385.0000 1.0000
64.7500 398.0000 1.0000
64.7600 423.0000 1.0000
64.7700 391.0000 1.0000
64.7800 377.0000 1.0000
64.7900 390.0000 1.0000
64.8000 388.0000 1.0000
64.8100 366.0000 1.0000
64.8200 371.0000 1.0000
64.8300 384.0000 1.0000
64.8400 388.0000 1.0000
64.8500 343.0000 1.0000
64.8600 343.0000 1.0000
64.8700 364.0000 1.0000
64.8800 397.0000 1.0000
64.8900 348.0000 1.0000
64.9000 351.0000 1.0000
64.9100 355.0000 1.0000
64.9200 347.0000 1.0000
64.9300 347.0000 1.0000
64.9400 354.0000 1.0000
64.9500 348.0000 1.0000
64.9600 353.0000 1.0000
64.9700 347.0000 1.0000
64.9800 384.0000 1.0000
64.9900 335.0000 1.0000
65.0000 336.0000 1.0000
65.0100 312.0000 1.0000
65.0200 326.0000 1.0000
65.0300 318.0000 1.0000
65.0400 351.0000 1.0000
65.0500 346.0000 1.0000
65.0600 342.0000 1.0000
65.0700 329.0000 1.0000
65.0800 322.0000 1.0000
65.0900 303.0000 1.0000
65.1000 307.0000 1.0000
65.1100 283.0000 1.0000
65.1200 305.0000 1.0000
65.1300 304.0000 1.0000
65.1400 289.0000 1.0000
65.1500 308.0000 1.0000
65.1600 335.0000 1.0000
65.1700 342.0000 1.0000
65.1800 301.0000 1.0000
65.1900 327.0000 1.0000
65.2000 293.0000 1.0000
65.2100 285.0000 1.0000
65.2200 298.0000 1.0000
65.2300 331.0000 1.0000
65.2400 292.0000 1.0000
65.2500 295.0000 1.0000
65.2600 310.0000 1.0000
65.2700 303.0000 1.0000
65.2800 307.0000 1.0000
65.2900 323.0000 1.0000
65.3000 297.0000 1.0000
65.3100 274.0000 1.0000
65.3200 291.0000 1.0000
65.3300 321.0000 1.0000
65.3400 303.0000 1.0000
65.3500 298.0000 1.0000
65.3600 292.0000 1.0000
65.3700 300.0000 1.0000
65.3800 304.0000 1.0000
65.3900 303.0000 1.0000
65.4000 289.0000 1.0000
65.4100 310.0000 1.0000
65.4200 312.0000 1.0000
65.4300 307.0000 1.0000
65.4400 293.0000 1.0000
65.4500 293.0000 1.0000
65.4600 305.0000 1.0000
65.4700 294.0000 1.0000
65.4800 324.0000 1.0000
65.4900 305.0000 1.0000
65.5000 302.0000 1.0000
65.5100 306.0000 1.0000
65.5200 302.0000 1.0000
65.5300 296.0000 1.0000
65.5400 281.0000 1.0000
65.5500 280.0000 1.0000
65.5600 312.0000 1.0000
65.5700 308.0000 1.0000
65.5800 296.0000 1.0000
65.5900 315.0000 1.0000
65.6000 290.0000 1.0000
65.6100 324.0000 1.0000
65.6200 289.0000 1.0000
65.6300 295.0000 1.0000
65.6400 305.0000 1.0000
65.6500 283.0000 1.0000
65.6600 316.0000 1.0000
65.6700 297.0000 1.0000
65.6800 309.0000 1.0000
65.6900 307.0000 1.0000
65.7000 320.0000 1.0000
65.7100 309.0000 1.0000
65.7200 295.0000 1.0000
65.7300 315.0000 1.0000
65.7400 314.0000 1.0000
65.7500 309.0000 1.0000
65.7600 339.0000 1.0000
65.7700 321.0000 1.0000
65.7800 308.0000 1.0000
65.7900 318.0000 1.0000
65.8000 319.0000 1.0000
65.8100 307.0000 1.0000
65.8200 325.0000 1.0000
65.8300 335.0000 1.0000
65.8400 325.0000 1.0000
65.8500 320.0000 1.0000
65.8600 329.0000 1.0000
65.8700 340.0000 1.0000
65.8800 338.0000 1.0000
65.8900 341.0000 1.0000
65.9000 303.0000 1.0000
65.9100 341.0000 1.0000
65.9200 372.0000 1.0000
65.9300 368.0000 1.0000
65.9400 347.0000 1.0000
65.9500 397.0000 1.0000
65.9600 412.0000 1.0000
65.9700 390.0000 1.0000
65.9800 428.0000 1.0000
65.9900 411.0000 1.0000
66.0000 400.0000 1.0000
66.0100 431.0000 1.0000
66.0200 431.0000 1.0000
66.0300 435.0000 1.0000
66.0400 477.0000 1.0000
66.0500 476.0000 1.0000
66.0600 497.0000 1.0000
66.0700 526.0000 1.0000
66.0800 511.0000 1.0000
66.0900 520.0000 1.0000
66.1000 492.0000 1.0000
66.1100 577.0000 1.0000
66.1200 619.0000 1.0000
66.1300 652.0000 1.0000
66.1400 696.0000 1.0000
66.1500 680.0000 1.0000
66.1600 710.0000 1.0000
66.1700 795.0000 1.0000
66.1800 828.0000 1.0000
66.1900 852.0000 1.0000
66.2000 905.0000 1.0000
66.2100 992.0000 1.0000
66.2200 970.0000 1.0000
66.2300 1011.0000 1.0000
66.2400 1044.0000 1.0000
66.2500 1146.0000 1.0000
66.2600 1147.0000 1.0000
66.2700 1120.0000 1.0000
66.2800 1165.0000 1.0000
66.2900 1159.0000 1.0000
66.3000 1128.0000 1.0000
66.3100 1138.0000 1.0000
66.3200 1160.0000 1.0000
66.3300 1116.0000 1.0000
66.3400 1092.0000 1.0000
66.3500 1061.0000 1.0000
66.3600 1026.0000 1.0000
66.3700 1015.0000 1.0000
66.3800 1043.0000 1.0000
66.3900 965.0000 1.0000
66.4000 972.0000 1.0000
66.4100 956.0000 1.0000
66.4200 994.0000 1.0000
66.4300 978.0000 1.0000
66.4400 970.0000 1.0000
66.4500 873.0000 1.0000
66.4600 861.0000 1.0000
66.4700 921.0000 1.0000
66.4800 837.0000 1.0000
66.4900 838.0000 1.0000
66.5000 815.0000 1.0000
66.5100 766.0000 1.0000
66.5200 682.0000 1.0000
66.5300 693.0000 1.0000
66.5400 637.0000 1.0000
66.5500 671.0000 1.0000
66.5600 620.0000 1.0000
66.5700 598.0000 1.0000
66.5800 599.0000 1.0000
66.5900 600.0000 1.0000
66.6000 515.0000 1.0000
66.6100 526.0000 1.0000
66.6200 531.0000 1.0000
66.6300 482.0000 1.0000
66.6400 474.0000 1.0000
66.6500 441.0000 1.0000
66.6600 471.0000 1.0000
66.6700 454.0000 1.0000
66.6800 455.0000 1.0000
66.6900 431.0000 1.0000
66.7000 384.0000 1.0000
66.7100 398.0000 1.0000
66.7200 387.0000 1.0000
66.7300 393.0000 1.0000
66.7400 363.0000 1.0000
66.7500 353.0000 1.0000
66.7600 355.0000 1.0000
66.7700 357.0000 1.0000
66.7800 354.0000 1.0000
66.7900 328.0000 1.0000
66.8000 365.0000 1.0000
66.8100 379.0000 1.0000
66.8200 356.0000 1.0000
66.8300 294.0000 1.0000
66.8400 297.0000 1.0000
66.8500 304.0000 1.0000
66.8600 330.0000 1.0000
66.8700 319.0000 1.0000
66.8800 317.0000 1.0000
66.8900 321.0000 1.0000
66.9000 290.0000 1.0000
66.9100 308.0000 1.0000
66.9200 301.0000 1.0000
66.9300 347.0000 1.0000
66.9400 316.0000 1.0000
66.9500 296.0000 1.0000
66.9600 304.0000 1.0000
66.9700 286.0000 1.0000
66.9800 293.0000 1.0000
66.9900 308.0000 1.0000
67.0000 312.0000 1.0000
67.0100 321.0000 1.0000
67.0200 285.0000 1.0000
67.0300 293.0000 1.0000
67.0400 286.0000 1.0000
67.0500 294.0000 1.0000
67.0600 298.0000 1.0000
67.0700 295.0000 1.0000
67.0800 272.0000 1.0000
67.0900 269.0000 1.0000
67.1000 267.0000 1.0000
67.1100 300.0000 1.0000
67.1200 303.0000 1.0000
67.1300 289.0000 1.0000
67.1400 280.0000 1.0000
67.1500 291.0000 1.0000
67.1600 305.0000 1.0000
67.1700 308.0000 1.0000
67.1800 303.0000 1.0000
67.1900 272.0000 1.0000
67.2000 256.0000 1.0000
67.2100 267.0000 1.0000
67.2200 294.0000 1.0000
67.2300 290.0000 1.0000
67.2400 299.0000 1.0000
67.2500 284.0000 1.0000
67.2600 244.0000 1.0000
67.2700 282.0000 1.0000
67.2800 295.0000 1.0000
67.2900 271.0000 1.0000
67.3000 271.0000 1.0000
67.3100 288.0000 1.0000
67.3200 306.0000 1.0000
67.3300 271.0000 1.0000
67.3400 281.0000 1.0000
67.3500 285.0000 1.0000
67.3600 271.0000 1.0000
67.3700 288.0000 1.0000
67.3800 292.0000 1.0000
67.3900 243.0000 1.0000
67.4000 266.0000 1.0000
67.4100 251.0000 1.0000
67.4200 279.0000 1.0000
67.4300 248.0000 1.0000
67.4400 267.0000 1.0000
67.4500 278.0000 1.0000
67.4600 286.0000 1.0000
67.4700 255.0000 1.0000
67.4800 271.0000 1.0000
67.4900 268.0000 1.0000
67.5000 284.0000 1.0000
67.5100 277.0000 1.0000
67.5200 296.0000 1.0000
67.5300 239.0000 1.0000
67.5400 270.0000 1.0000
67.5500 276.0000 1.0000
67.5600 271.0000 1.0000
67.5700 272.0000 1.0000
67.5800 280.0000 1.0000
67.5900 291.0000 1.0000
67.6000 291.0000 1.0000
67.6100 300.0000 1.0000
67.6200 272.0000 1.0000
67.6300 281.0000 1.0000
67.6400 280.0000 1.0000
67.6500 266.0000 1.0000
67.6600 273.0000 1.0000
67.6700 259.0000 1.0000
67.6800 256.0000 1.0000
67.6900 244.0000 1.0000
67.7000 266.0000 1.0000
67.7100 287.0000 1.0000
67.7200 261.0000 1.0000
67.7300 231.0000 1.0000
67.7400 257.0000 1.0000
67.7500 254.0000 1.0000
67.7600 260.0000 1.0000
67.7700 285.0000 1.0000
67.7800 293.0000 1.0000
67.7900 256.0000 1.0000
67.8000 261.0000 1.0000
67.8100 256.0000 1.0000
67.8200 274.0000 1.0000
67.8300 251.0000 1.0000
67.8400 275.0000 1.0000
67.8500 263.0000 1.0000
67.8600 248.0000 1.0000
67.8700 257.0000 1.0000
67.8800 262.0000 1.0000
67.8900 244.0000 1.0000
67.9000 270.0000 1.0000
67.9100 262.0000 1.0000
67.9200 258.0000 1.0000
67.9300 272.0000 1.0000
67.9400 260.0000 1.0000
67.9500 267.0000 1.0000
67.9600 245.0000 1.0000
67.9700 247.0000 1.0000
67.9800 251.0000 1.0000
67.9900 284.0000 1.0000
68.0000 280.0000 1.0000
68.0100 235.0000 1.0000
68.0200 264.0000 1.0000
68.0300 284.0000 1.0000
68.0400 270.0000 1.0000
68.0500 249.0000 1.0000
68.0600 249.0000 1.0000
68.0700 265.0000 1.0000
68.0800 265.0000 1.0000
68.0900 254.0000 1.0000
68.1000 251.0000 1.0000
68.1100 269.0000 1.0000
68.1200 281.0000 1.0000
68.1300 271.0000 1.0000
68.1400 254.0000 1.0000
68.1500 256.0000 1.0000
68.1600 254.0000 1.0000
68.1700 265.0000 1.0000
68.1800 280.0000 1.0000
68.1900 269.0000 1.0000
68.2000 285.0000 1.0000
68.2100 279.0000 1.0000
68.2200 294.0000 1.0000
68.2300 265.0000 1.0000
68.2400 234.0000 1.0000
68.2500 266.0000 1.0000
68.2600 277.0000 1.0000
68.2700 267.0000 1.0000
68.2800 251.0000 1.0000
68.2900 247.0000 1.0000
68.3000 263.0000 1.0000
68.3100 255.0000 1.0000
68.3200 270.0000 1.0000
68.3300 272.0000 1.0000
68.3400 250.0000 1.0000
68.3500 245.0000 1.0000
68.3600 267.0000 1.0000
68.3700 242.0000 1.0000
68.3800 249.0000 1.0000
68.3900 247.0000 1.0000
68.4000 238.0000 1.0000
68.4100 266.0000 1.0000
68.4200 284.0000 1.0000
68.4300 273.0000 1.0000
68.4400 272.0000 1.0000
68.4500 247.0000 1.0000
68.4600 274.0000 1.0000
68.4700 257.0000 1.0000
68.4800 251.0000 1.0000
68.4900 257.0000 1.0000
68.5000 267.0000 1.0000
68.5100 278.0000 1.0000
68.5200 239.0000 1.0000
68.5300 256.0000 1.0000
68.5400 272.0000 1.0000
68.5500 241.0000 1.0000
68.5600 243.0000 1.0000
68.5700 265.0000 1.0000
68.5800 269.0000 1.0000
68.5900 253.0000 1.0000
68.6000 259.0000 1.0000
68.6100 291.0000 1.0000
68.6200 274.0000 1.0000
68.6300 267.0000 1.0000
68.6400 247.0000 1.0000
68.6500 260.0000 1.0000
68.6600 265.0000 1.0000
68.6700 251.0000 1.0000
68.6800 257.0000 1.0000
68.6900 283.0000 1.0000
68.7000 267.0000 1.0000
68.7100 238.0000 1.0000
68.7200 244.0000 1.0000
68.7300 263.0000 1.0000
68.7400 232.0000 1.0000
68.7500 275.0000 1.0000
68.7600 262.0000 1.0000
68.7700 264.0000 1.0000
68.7800 253.0000 1.0000
68.7900 237.0000 1.0000
68.8000 259.0000 1.0000
68.8100 276.0000 1.0000
68.8200 261.0000 1.0000
68.8300 271.0000 1.0000
68.8400 272.0000 1.0000
68.8500 241.0000 1.0000
68.8600 227.0000 1.0000
68.8700 258.0000 1.0000
68.8800 256.0000 1.0000
68.8900 279.0000 1.0000
68.9000 252.0000 1.0000
68.9100 259.0000 1.0000
68.9200 255.0000 1.0000
68.9300 240.0000 1.0000
68.9400 248.0000 1.0000
68.9500 249.0000 1.0000
68.9600 255.0000 1.0000
68.9700 276.0000 1.0000
68.9800 260.0000 1.0000
68.9900 269.0000 1.0000
69.0000 233.0000 1.0000
69.0100 253.0000 1.0000
69.0200 240.0000 1.0000
69.0300 244.0000 1.0000
69.0400 249.0000 1.0000
69.0500 268.0000 1.0000
69.0600 239.0000 1.0000
69.0700 248.0000 1.0000
69.0800 266.0000 1.0000
69.0900 290.0000 1.0000
69.1000 258.0000 1.0000
69.1100 264.0000 1.0000
69.1200 255.0000 1.0000
69.1300 275.0000 1.0000
69.1400 269.0000 1.0000
69.1500 265.0000 1.0000
69.1600 270.0000 1.0000
69.1700 264.0000 1.0000
69.1800 257.0000 1.0000
69.1900 275.0000 1.0000
69.2000 271.0000 1.0000
69.2100 265.0000 1.0000
69.2200 244.0000 1.0000
69.2300 276.0000 1.0000
69.2400 221.0000 1.0000
69.2500 268.0000 1.0000
69.2600 237.0000 1.0000
69.2700 267.0000 1.0000
69.2800 265.0000 1.0000
69.2900 259.0000 1.0000
69.3000 253.0000 1.0000
69.3100 256.0000 1.0000
69.3200 273.0000 1.0000
69.3300 251.0000 1.0000
69.3400 275.0000 1.0000
69.3500 284.0000 1.0000
69.3600 238.0000 1.0000
69.3700 256.0000 1.0000
69.3800 241.0000 1.0000
69.3900 253.0000 1.0000
69.4000 265.0000 1.0000
69.4100 251.0000 1.0000
69.4200 243.0000 1.0000
69.4300 262.0000 1.0000
69.4400 271.0000 1.0000
69.4500 260.0000 1.0000
69.4600 244.0000 1.0000
69.4700 263.0000 1.0000
69.4800 252.0000 1.0000
69.4900 229.0000 1.0000
69.5000 258.0000 1.0000
69.5100 259.0000 1.0000
69.5200 229.0000 1.0000
69.5300 248.0000 1.0000
69.5400 248.0000 1.0000
69.5500 269.0000 1.0000
69.5600 245.0000 1.0000
69.5700 254.0000 1.0000
69.5800 229.0000 1.0000
69.5900 246.0000 1.0000
69.6000 252.0000 1.0000
69.6100 244.0000 1.0000
69.6200 250.0000 1.0000
69.6300 270.0000 1.0000
69.6400 262.0000 1.0000
69.6500 252.0000 1.0000
69.6600 289.0000 1.0000
69.6700 269.0000 1.0000
69.6800 259.0000 1.0000
69.6900 242.0000 1.0000
69.7000 242.0000 1.0000
69.7100 248.0000 1.0000
69.7200 231.0000 1.0000
69.7300 248.0000 1.0000
69.7400 259.0000 1.0000
69.7500 280.0000 1.0000
69.7600 271.0000 1.0000
69.7700 275.0000 1.0000
69.7800 255.0000 1.0000
69.7900 260.0000 1.0000
69.8000 255.0000 1.0000
69.8100 256.0000 1.0000
69.8200 227.0000 1.0000
69.8300 256.0000 1.0000
69.8400 243.0000 1.0000
69.8500 255.0000 1.0000
69.8600 269.0000 1.0000
69.8700 233.0000 1.0000
69.8800 256.0000 1.0000
69.8900 250.0000 1.0000
69.9000 272.0000 1.0000
69.9100 238.0000 1.0000
69.9200 224.0000 1.0000
69.9300 227.0000 1.0000
69.9400 235.0000 1.0000
69.9500 246.0000 1.0000
69.9600 279.0000 1.0000
69.9700 259.0000 1.0000
69.9800 274.0000 1.0000
69.9900 248.0000 1.0000
70.0000 258.0000 1.0000
*RAS_INT_END
*RAS_TEMPERATURE_START
*RAS_TEMPERATURE_END
*RAS_DATA_END
