*RAS_DATA_START
*RAS_HEADER_START
*DISP_FMT_X "%.2f"
*DISP_FMT_Y "%.0f"
*DISP_FULLSCALE "14545.0000000000"
*DISP_LINE_COLOR "255.0000000000"
*DISP_LINE_STYLE "0.0000000000"
*DISP_LINE_WIDTH "0.2500000000"
*DISP_NOTE "測定データ-5"
*DISP_OFFSET_Y "0.0000000000"
*DISP_PEAKSEARCH_UNIT_Y "cps"
*DISP_RANGE_BOTTOM "0.0000000000"
*DISP_RANGE_LEFT "20.0000000000"
*DISP_RANGE_LOGCUTOFF "0.0100000000"
*DISP_RANGE_RIGHT "70.0000000000"
*DISP_RANGE_TOP "14545.0000000000"
*DISP_SCALE_MODE_Y "0.0000000000"
*DISP_TAB_NAME "2θ/θ"
*DISP_TITLE_Y "強度"
*DISP_UNIT_Y "cps"
*DISP_WINDOW_NAME "MSG_MACROENGINE"
*FILE_COMMENT " "
*FILE_MD5 ""
*FILE_MEMO " "
*FILE_OPERATOR "Administrator"
*FILE_SAMPLE " "
*FILE_TYPE "RAS_RAW"
*FILE_USERGROUP "システムマネージャ"
*FILE_VERSION "1.0000000000"
*HW_ATTACHMENT_ID "ATT0025"
*HW_ATTACHMENT_NAME "標準|Standard"
*HW_COUNTER_ID-0 "CUT0025"
*HW_COUNTER_ID-1 "CUT0020"
*HW_COUNTER_ID-2 "CUT0020"
*HW_COUNTER_ID-3 "CSL0021"
*HW_COUNTER_ID-4 "CMC0021"
*HW_COUNTER_NAME-0 "D/teX Ultra|D/teX Ultra"
*HW_COUNTER_NAME-1 "None|None"
*HW_COUNTER_NAME-2 "None|None"
*HW_COUNTER_NAME-3 "BBM|BBM"
*HW_COUNTER_NAME-4 "検出器モノクロメータ|Detector monochromator"
*HW_COUNTER_SELECT_NAME "D/teX Ultra|D/teX Ultra"
*HW_GONIOMETER_ID "GON0023"
*HW_GONIOMETER_NAME "SmartLab|SmartLab"
*HW_GONIOMETER_RADIUS-0 "90.0"
*HW_GONIOMETER_RADIUS-1 "114.0"
*HW_GONIOMETER_RADIUS-2 "190.0"
*HW_GONIOMETER_RADIUS-3 "300.0"
*HW_GONIOMETER_RADIUS-4 "187.0"
*HW_GONIOMETER_RADIUS-5 "300.0"
*HW_GONIOMETER_RADIUS-6 "113.0"
*HW_GONIOMETER_RADIUS-7 "331.0"
*HW_I_OPT_ID-0 "CBO0021"
*HW_I_OPT_ID-1 "ICR0023"
*HW_I_OPT_ID-2 "ISL0021"
*HW_I_OPT_ID-3 "ISO0021"
*HW_I_OPT_ID-4 "IAD0021"
*HW_I_OPT_ID-5 "IPR0001"
*HW_I_OPT_NAME-0 "CBOユニット|CBO unit"
*HW_I_OPT_NAME-1 "標準入射光学ユニット|Standard incident optical unit"
*HW_I_OPT_NAME-2 "標準入射スリットボックス|Standard incident slit box"
*HW_I_OPT_NAME-3 "入射平行スリット|Incident parallel slit"
*HW_I_OPT_NAME-4 "長手制限スリット|Length limiting slit"
*HW_I_OPT_NAME-5 "None|None"
*HW_R_ATTENUATER_AUTOMODE "0"
*HW_R_OPT_ID-0 "RSS0021"
*HW_R_OPT_ID-1 "RCR0023"
*HW_R_OPT_ID-2 "RSO0021"
*HW_R_OPT_ID-3 "RRS0021"
*HW_R_OPT_ID-4 "ATN0021"
*HW_R_OPT_ID-5 "RFL0021"
*HW_R_OPT_ID-6 "RAD0021"
*HW_R_OPT_NAME-0 "標準受光スリットボックス1|Standard receiving slit box # 1"
*HW_R_OPT_NAME-1 "標準受光光学ユニット1|Standard receiving unit # 1"
*HW_R_OPT_NAME-2 "標準受光光学ユニット2|Standard receiving optical unit # 2"
*HW_R_OPT_NAME-3 "標準受光スリットボックス2|Standard receiving slit box # 2"
*HW_R_OPT_NAME-4 "標準アッテネータ|Standard Attenuator"
*HW_R_OPT_NAME-5 "Cu Kβ|Cu K-beta"
*HW_R_OPT_NAME-6 "調整用受光スリット|Alignment receiving slit"
*HW_SAMPLE_HOLDER_ID "SMP0023"
*HW_SAMPLE_HOLDER_NAME "標準Zステージ|Standard Z stage"
*HW_XG_CURRENT_MAX "50"
*HW_XG_CURRENT_MIN "2"
*HW_XG_CURRENT_RESOLUTION "1"
*HW_XG_CURRENT_UNIT "mA"
*HW_XG_FOCUS "1mm x 10mm"
*HW_XG_FOCUS_TYPE "Normal"
*HW_XG_ID ""
*HW_XG_NAME "3kW 封入管(ID:1200)|3kW Sealed tube(ID:1200)"
*HW_XG_TARGET_ATOMIC_NUMBER "29.0000000000"
*HW_XG_TARGET_NAME "Cu"
*HW_XG_TYPE "Hermetic"
*HW_XG_VOLTAGE_MAX "60"
*HW_XG_VOLTAGE_MIN "20"
*HW_XG_VOLTAGE_RESOLUTION "1"
*HW_XG_VOLTAGE_UNIT "kV"
*HW_XG_WATT_MAX "1.500"
*HW_XG_WATT_UNIT "kW"
*HW_XG_WAVE_LENGTH_ALPHA1 "1.540593"
*HW_XG_WAVE_LENGTH_ALPHA2 "1.544414"
*HW_XG_WAVE_LENGTH_BETA "1.392250"
*MEAS_COND_AXIS_NAME-0 "2θ/θ"
*MEAS_COND_AXIS_NAME-1 "2θ"
*MEAS_COND_AXIS_NAME-2 "ω"
*MEAS_COND_AXIS_NAME-3 "Z"
*MEAS_COND_AXIS_NAME-4 "2θ/ω"
*MEAS_COND_AXIS_NAME-5 "θs"
*MEAS_COND_AXIS_NAME-6 "θd"
*MEAS_COND_AXIS_NAME-7 "Ts"
*MEAS_COND_AXIS_NAME-8 "CBO選択スリット"
*MEAS_COND_AXIS_NAME-9 "M"
*MEAS_COND_AXIS_NAME-10 "入射平行スリット"
*MEAS_COND_AXIS_NAME-11 "入射スリット"
*MEAS_COND_AXIS_NAME-12 ""
*MEAS_COND_AXIS_NAME-13 "Zs"
*MEAS_COND_AXIS_NAME-14 "入射光学素子"
*MEAS_COND_AXIS_NAME-15 "長手制限スリット"
*MEAS_COND_AXIS_NAME-16 "センタースリット"
*MEAS_COND_AXIS_NAME-17 "フィルター"
*MEAS_COND_AXIS_NAME-18 "受光スリット1"
*MEAS_COND_AXIS_NAME-19 "受光スリット2"
*MEAS_COND_AXIS_NAME-20 "受光光学素子"
*MEAS_COND_AXIS_NAME-21 "受光平行スリット"
*MEAS_COND_AXIS_NAME-22 "調整用受光スリット"
*MEAS_COND_AXIS_NAME-23 ""
*MEAS_COND_AXIS_NAME-24 ""
*MEAS_COND_AXIS_NAME-25 "Zd"
*MEAS_COND_AXIS_NAME-26 "アッテネータ"
*MEAS_COND_AXIS_NAME-27 "検出器モノクロメータ"
*MEAS_COND_AXIS_NAME-28 "モノクロメータスリット"
*MEAS_COND_AXIS_NAME-29 "プライマリビーム"
*MEAS_COND_AXIS_NAME-30 "PHA"
*MEAS_COND_AXIS_NAME_INTERNAL-0 "TwoThetaTheta"
*MEAS_COND_AXIS_NAME_INTERNAL-1 "TwoTheta"
*MEAS_COND_AXIS_NAME_INTERNAL-2 "Omega"
*MEAS_COND_AXIS_NAME_INTERNAL-3 "Z"
*MEAS_COND_AXIS_NAME_INTERNAL-4 "TwoThetaOmega"
*MEAS_COND_AXIS_NAME_INTERNAL-5 "ThetaS"
*MEAS_COND_AXIS_NAME_INTERNAL-6 "ThetaD"
*MEAS_COND_AXIS_NAME_INTERNAL-7 "Ts"
*MEAS_COND_AXIS_NAME_INTERNAL-8 "CBO"
*MEAS_COND_AXIS_NAME_INTERNAL-9 "CBO-M"
*MEAS_COND_AXIS_NAME_INTERNAL-10 "IncidentSollerSlit"
*MEAS_COND_AXIS_NAME_INTERNAL-11 "IncidentSlitBox"
*MEAS_COND_AXIS_NAME_INTERNAL-12 "IncidentSlitBox-_Axis"
*MEAS_COND_AXIS_NAME_INTERNAL-13 "Zs"
*MEAS_COND_AXIS_NAME_INTERNAL-14 "IncidentMonochromator"
*MEAS_COND_AXIS_NAME_INTERNAL-15 "IncidentAxdSlit"
*MEAS_COND_AXIS_NAME_INTERNAL-16 "CenterSlit"
*MEAS_COND_AXIS_NAME_INTERNAL-17 "Filter"
*MEAS_COND_AXIS_NAME_INTERNAL-18 "ReceivingSlitBox1"
*MEAS_COND_AXIS_NAME_INTERNAL-19 "ReceivingSlitBox2"
*MEAS_COND_AXIS_NAME_INTERNAL-20 "ReceivingOptics"
*MEAS_COND_AXIS_NAME_INTERNAL-21 "ReceivingSollerSlit"
*MEAS_COND_AXIS_NAME_INTERNAL-22 "ReceivingAxdSlit"
*MEAS_COND_AXIS_NAME_INTERNAL-23 "ReceivingSlitBox1-_Axis"
*MEAS_COND_AXIS_NAME_INTERNAL-24 "ReceivingSlitBox2-_Axis"
*MEAS_COND_AXIS_NAME_INTERNAL-25 "ReceivingSlitBox2-Zd"
*MEAS_COND_AXIS_NAME_INTERNAL-26 "Attenuator"
*MEAS_COND_AXIS_NAME_INTERNAL-27 "CounterMonochromator"
*MEAS_COND_AXIS_NAME_INTERNAL-28 "CounterSlit"
*MEAS_COND_AXIS_NAME_INTERNAL-29 "IncidentPrimary"
*MEAS_COND_AXIS_NAME_INTERNAL-30 "PHA"
*MEAS_COND_AXIS_NAME_MAGICNO-0 "83951616.0000000000"
*MEAS_COND_AXIS_NAME_MAGICNO-1 "268632064.0000000000"
*MEAS_COND_AXIS_NAME_MAGICNO-2 "268500992.0000000000"
*MEAS_COND_AXIS_NAME_MAGICNO-3 "285278208.0000000000"
*MEAS_COND_AXIS_NAME_MAGICNO-4 "83951616.0000000000"
*MEAS_COND_AXIS_NAME_MAGICNO-5 "131072.0000000000"
*MEAS_COND_AXIS_NAME_MAGICNO-6 "131072.0000000000"
*MEAS_COND_AXIS_NAME_MAGICNO-7 "318898176.0000000000"
*MEAS_COND_AXIS_NAME_MAGICNO-8 "20971521.0000000000"
*MEAS_COND_AXIS_NAME_MAGICNO-9 "285343744.0000000000"
*MEAS_COND_AXIS_NAME_MAGICNO-10 "20971521.0000000000"
*MEAS_COND_AXIS_NAME_MAGICNO-11 "22020097.0000000000"
*MEAS_COND_AXIS_NAME_MAGICNO-12 "25165824.0000000000"
*MEAS_COND_AXIS_NAME_MAGICNO-13 "318898176.0000000000"
*MEAS_COND_AXIS_NAME_MAGICNO-14 "1.0000000000"
*MEAS_COND_AXIS_NAME_MAGICNO-15 "20971521.0000000000"
*MEAS_COND_AXIS_NAME_MAGICNO-16 "20971521.0000000000"
*MEAS_COND_AXIS_NAME_MAGICNO-17 "20971521.0000000000"
*MEAS_COND_AXIS_NAME_MAGICNO-18 "23068673.0000000000"
*MEAS_COND_AXIS_NAME_MAGICNO-19 "23068673.0000000000"
*MEAS_COND_AXIS_NAME_MAGICNO-20 "20971521.0000000000"
*MEAS_COND_AXIS_NAME_MAGICNO-21 "20971521.0000000000"
*MEAS_COND_AXIS_NAME_MAGICNO-22 "20971521.0000000000"
*MEAS_COND_AXIS_NAME_MAGICNO-23 "25165824.0000000000"
*MEAS_COND_AXIS_NAME_MAGICNO-24 "25165824.0000000000"
*MEAS_COND_AXIS_NAME_MAGICNO-25 "285343744.0000000000"
*MEAS_COND_AXIS_NAME_MAGICNO-26 "17301505.0000000000"
*MEAS_COND_AXIS_NAME_MAGICNO-27 "20971521.0000000000"
*MEAS_COND_AXIS_NAME_MAGICNO-28 "20971521.0000000000"
*MEAS_COND_AXIS_NAME_MAGICNO-29 "20971521.0000000000"
*MEAS_COND_AXIS_NAME_MAGICNO-30 "0.0000000000"
*MEAS_COND_AXIS_OFFSET-0 "-"
*MEAS_COND_AXIS_OFFSET-1 "-0.0801000000"
*MEAS_COND_AXIS_OFFSET-2 "-0.1703000000"
*MEAS_COND_AXIS_OFFSET-3 "-"
*MEAS_COND_AXIS_OFFSET-4 "-"
*MEAS_COND_AXIS_OFFSET-5 "-0.1703000000"
*MEAS_COND_AXIS_OFFSET-6 "0.0902000000"
*MEAS_COND_AXIS_OFFSET-7 "-"
*MEAS_COND_AXIS_OFFSET-8 "-"
*MEAS_COND_AXIS_OFFSET-9 "-"
*MEAS_COND_AXIS_OFFSET-10 "-"
*MEAS_COND_AXIS_OFFSET-11 "-"
*MEAS_COND_AXIS_OFFSET-12 "-"
*MEAS_COND_AXIS_OFFSET-13 "-"
*MEAS_COND_AXIS_OFFSET-14 "-"
*MEAS_COND_AXIS_OFFSET-15 "-"
*MEAS_COND_AXIS_OFFSET-16 "-"
*MEAS_COND_AXIS_OFFSET-17 "-"
*MEAS_COND_AXIS_OFFSET-18 "-"
*MEAS_COND_AXIS_OFFSET-19 "-"
*MEAS_COND_AXIS_OFFSET-20 "-"
*MEAS_COND_AXIS_OFFSET-21 "-"
*MEAS_COND_AXIS_OFFSET-22 "-"
*MEAS_COND_AXIS_OFFSET-23 "-"
*MEAS_COND_AXIS_OFFSET-24 "-"
*MEAS_COND_AXIS_OFFSET-25 "-"
*MEAS_COND_AXIS_OFFSET-26 "-"
*MEAS_COND_AXIS_OFFSET-27 "-"
*MEAS_COND_AXIS_OFFSET-28 "-"
*MEAS_COND_AXIS_OFFSET-29 "-"
*MEAS_COND_AXIS_OFFSET-30 "-"
*MEAS_COND_AXIS_POSITION-0 "0.0000000000"
*MEAS_COND_AXIS_POSITION-1 "0.0000000000"
*MEAS_COND_AXIS_POSITION-2 "0.0000000000"
*MEAS_COND_AXIS_POSITION-3 "-2.8463000000"
*MEAS_COND_AXIS_POSITION-4 "0.0000000000"
*MEAS_COND_AXIS_POSITION-5 "0.0000000000"
*MEAS_COND_AXIS_POSITION-6 "0.0000000000"
*MEAS_COND_AXIS_POSITION-7 "-0.4278800000"
*MEAS_COND_AXIS_POSITION-8 "BB"
*MEAS_COND_AXIS_POSITION-9 "0.0000000000"
*MEAS_COND_AXIS_POSITION-10 "Soller_slit_5.0deg"
*MEAS_COND_AXIS_POSITION-11 "2/3deg"
*MEAS_COND_AXIS_POSITION-12 "2.2088000000"
*MEAS_COND_AXIS_POSITION-13 "-1.0609400000"
*MEAS_COND_AXIS_POSITION-14 "0.0000000000"
*MEAS_COND_AXIS_POSITION-15 "10.0mm"
*MEAS_COND_AXIS_POSITION-16 "None"
*MEAS_COND_AXIS_POSITION-17 "Cu_K-beta"
*MEAS_COND_AXIS_POSITION-18 "13.000mm"
*MEAS_COND_AXIS_POSITION-19 "13.000mm"
*MEAS_COND_AXIS_POSITION-20 "No_unit"
*MEAS_COND_AXIS_POSITION-21 "Soller_slit_5.0deg"
*MEAS_COND_AXIS_POSITION-22 "None"
*MEAS_COND_AXIS_POSITION-23 "13.0000000000"
*MEAS_COND_AXIS_POSITION-24 "13.0000000000"
*MEAS_COND_AXIS_POSITION-25 "0.0081300000"
*MEAS_COND_AXIS_POSITION-26 "Open"
*MEAS_COND_AXIS_POSITION-27 "None"
*MEAS_COND_AXIS_POSITION-28 "None"
*MEAS_COND_AXIS_POSITION-29 "None"
*MEAS_COND_AXIS_POSITION-30 "38.0000000000"
*MEAS_COND_AXIS_UNIT-0 "deg"
*MEAS_COND_AXIS_UNIT-1 "deg"
*MEAS_COND_AXIS_UNIT-2 "deg"
*MEAS_COND_AXIS_UNIT-3 "mm"
*MEAS_COND_AXIS_UNIT-4 "deg"
*MEAS_COND_AXIS_UNIT-5 "deg"
*MEAS_COND_AXIS_UNIT-6 "deg"
*MEAS_COND_AXIS_UNIT-7 "mm"
*MEAS_COND_AXIS_UNIT-8 ""
*MEAS_COND_AXIS_UNIT-9 "pulse"
*MEAS_COND_AXIS_UNIT-10 ""
*MEAS_COND_AXIS_UNIT-11 ""
*MEAS_COND_AXIS_UNIT-12 "mm"
*MEAS_COND_AXIS_UNIT-13 "mm"
*MEAS_COND_AXIS_UNIT-14 ""
*MEAS_COND_AXIS_UNIT-15 ""
*MEAS_COND_AXIS_UNIT-16 ""
*MEAS_COND_AXIS_UNIT-17 ""
*MEAS_COND_AXIS_UNIT-18 ""
*MEAS_COND_AXIS_UNIT-19 ""
*MEAS_COND_AXIS_UNIT-20 ""
*MEAS_COND_AXIS_UNIT-21 ""
*MEAS_COND_AXIS_UNIT-22 ""
*MEAS_COND_AXIS_UNIT-23 "mm"
*MEAS_COND_AXIS_UNIT-24 "mm"
*MEAS_COND_AXIS_UNIT-25 "mm"
*MEAS_COND_AXIS_UNIT-26 ""
*MEAS_COND_AXIS_UNIT-27 ""
*MEAS_COND_AXIS_UNIT-28 ""
*MEAS_COND_AXIS_UNIT-29 ""
*MEAS_COND_AXIS_UNIT-30 "div"
*MEAS_COND_COUNTER_CNTLOSS_CORR "0.0000000000"
*MEAS_COND_COUNTER_PHABASE "38.0000000000"
*MEAS_COND_COUNTER_PHAWINDOW "16.0000000000"
*MEAS_COND_COUNTER_PHA_UNIT "div"
*MEAS_COND_COUNTER_TAUDIFF "30.0000000000"
*MEAS_COND_COUNTER_TAUINT "0.0000000000"
*MEAS_COND_IRRADIATION_MODE "OFF"
*MEAS_COND_IRRADIATION_WIDTH ""
*MEAS_COND_OPT_ATTR "集中法"
*MEAS_COND_OPT_NAME "@集中法"
*MEAS_COND_UNSYMMETRIC_MODE "OFF"
*MEAS_COND_XG_CURRENT "30.0000000000"
*MEAS_COND_XG_VOLTAGE "40.0000000000"
*MEAS_COND_XG_WAVE_TYPE "Ka"
*MEAS_DATA_COUNT "5001.0000000000"
*MEAS_SCAN_AXIS_X "2θ/θ"
*MEAS_SCAN_AXIS_X_INTERNAL "TwoThetaTheta"
*MEAS_SCAN_END_TIME "07/02/22 16:18:14"
*MEAS_SCAN_MODE "CONTINUOUS"
*MEAS_SCAN_MONITOR "0"
*MEAS_SCAN_RESOLUTION_X "0.0002"
*MEAS_SCAN_SPEED "2.5"
*MEAS_SCAN_SPEED_UNIT "deg/min"
*MEAS_SCAN_START "20.0000000000"
*MEAS_SCAN_START_TIME "07/02/22 15:56:50"
*MEAS_SCAN_STEP "0.0100000000"
*MEAS_SCAN_STOP "70.0000000000"
*MEAS_SCAN_UNIT_X "deg"
*MEAS_SCAN_UNIT_Y "counts"
*RAS_HEADER_END
*RAS_INT_START
20.0000 854.0000 1.0000
20.0100 806.0000 1.0000
20.0200 809.0000 1.0000
20.0300 834.0000 1.0000
20.0400 823.0000 1.0000
20.0500 830.0000 1.0000
20.0600 824.0000 1.0000
20.0700 839.0000 1.0000
20.0800 831.0000 1.0000
20.0900 840.0000 1.0000
20.1000 882.0000 1.0000
20.1100 845.0000 1.0000
20.1200 857.0000 1.0000
20.1300 868.0000 1.0000
20.1400 830.0000 1.0000
20.1500 841.0000 1.0000
20.1600 807.0000 1.0000
20.1700 816.0000 1.0000
20.1800 804.0000 1.0000
20.1900 810.0000 1.0000
20.2000 800.0000 1.0000
20.2100 857.0000 1.0000
20.2200 856.0000 1.0000
20.2300 784.0000 1.0000
20.2400 865.0000 1.0000
20.2500 849.0000 1.0000
20.2600 859.0000 1.0000
20.2700 852.0000 1.0000
20.2800 824.0000 1.0000
20.2900 821.0000 1.0000
20.3000 823.0000 1.0000
20.3100 810.0000 1.0000
20.3200 821.0000 1.0000
20.3300 813.0000 1.0000
20.3400 822.0000 1.0000
20.3500 824.0000 1.0000
20.3600 811.0000 1.0000
20.3700 731.0000 1.0000
20.3800 816.0000 1.0000
20.3900 806.0000 1.0000
20.4000 801.0000 1.0000
20.4100 828.0000 1.0000
20.4200 882.0000 1.0000
20.4300 872.0000 1.0000
20.4400 842.0000 1.0000
20.4500 787.0000 1.0000
20.4600 873.0000 1.0000
20.4700 817.0000 1.0000
20.4800 831.0000 1.0000
20.4900 842.0000 1.0000
20.5000 853.0000 1.0000
20.5100 893.0000 1.0000
20.5200 839.0000 1.0000
20.5300 887.0000 1.0000
20.5400 868.0000 1.0000
20.5500 871.0000 1.0000
20.5600 819.0000 1.0000
20.5700 879.0000 1.0000
20.5800 803.0000 1.0000
20.5900 805.0000 1.0000
20.6000 845.0000 1.0000
20.6100 857.0000 1.0000
20.6200 843.0000 1.0000
20.6300 795.0000 1.0000
20.6400 813.0000 1.0000
20.6500 834.0000 1.0000
20.6600 822.0000 1.0000
20.6700 821.0000 1.0000
20.6800 835.0000 1.0000
20.6900 840.0000 1.0000
20.7000 843.0000 1.0000
20.7100 821.0000 1.0000
20.7200 822.0000 1.0000
20.7300 835.0000 1.0000
20.7400 819.0000 1.0000
20.7500 794.0000 1.0000
20.7600 825.0000 1.0000
20.7700 878.0000 1.0000
20.7800 814.0000 1.0000
20.7900 812.0000 1.0000
20.8000 831.0000 1.0000
20.8100 823.0000 1.0000
20.8200 871.0000 1.0000
20.8300 812.0000 1.0000
20.8400 838.0000 1.0000
20.8500 826.0000 1.0000
20.8600 823.0000 1.0000
20.8700 829.0000 1.0000
20.8800 822.0000 1.0000
20.8900 846.0000 1.0000
20.9000 828.0000 1.0000
20.9100 822.0000 1.0000
20.9200 839.0000 1.0000
20.9300 843.0000 1.0000
20.9400 820.0000 1.0000
20.9500 792.0000 1.0000
20.9600 792.0000 1.0000
20.9700 823.0000 1.0000
20.9800 819.0000 1.0000
20.9900 831.0000 1.0000
21.0000 865.0000 1.0000
21.0100 877.0000 1.0000
21.0200 856.0000 1.0000
21.0300 838.0000 1.0000
21.0400 826.0000 1.0000
21.0500 816.0000 1.0000
21.0600 821.0000 1.0000
21.0700 776.0000 1.0000
21.0800 835.0000 1.0000
21.0900 790.0000 1.0000
21.1000 855.0000 1.0000
21.1100 872.0000 1.0000
21.1200 840.0000 1.0000
21.1300 849.0000 1.0000
21.1400 829.0000 1.0000
21.1500 823.0000 1.0000
21.1600 856.0000 1.0000
21.1700 804.0000 1.0000
21.1800 816.0000 1.0000
21.1900 801.0000 1.0000
21.2000 878.0000 1.0000
21.2100 806.0000 1.0000
21.2200 823.0000 1.0000
21.2300 857.0000 1.0000
21.2400 850.0000 1.0000
21.2500 847.0000 1.0000
21.2600 855.0000 1.0000
21.2700 826.0000 1.0000
21.2800 800.0000 1.0000
21.2900 791.0000 1.0000
21.3000 811.0000 1.0000
21.3100 819.0000 1.0000
21.3200 843.0000 1.0000
21.3300 851.0000 1.0000
21.3400 810.0000 1.0000
21.3500 801.0000 1.0000
21.3600 820.0000 1.0000
21.3700 816.0000 1.0000
21.3800 766.0000 1.0000
21.3900 835.0000 1.0000
21.4000 861.0000 1.0000
21.4100 841.0000 1.0000
21.4200 864.0000 1.0000
21.4300 867.0000 1.0000
21.4400 786.0000 1.0000
21.4500 809.0000 1.0000
21.4600 835.0000 1.0000
21.4700 797.0000 1.0000
21.4800 847.0000 1.0000
21.4900 800.0000 1.0000
21.5000 784.0000 1.0000
21.5100 827.0000 1.0000
21.5200 854.0000 1.0000
21.5300 814.0000 1.0000
21.5400 801.0000 1.0000
21.5500 850.0000 1.0000
21.5600 847.0000 1.0000
21.5700 840.0000 1.0000
21.5800 848.0000 1.0000
21.5900 833.0000 1.0000
21.6000 861.0000 1.0000
21.6100 806.0000 1.0000
21.6200 836.0000 1.0000
21.6300 851.0000 1.0000
21.6400 756.0000 1.0000
21.6500 806.0000 1.0000
21.6600 774.0000 1.0000
21.6700 777.0000 1.0000
21.6800 829.0000 1.0000
21.6900 802.0000 1.0000
21.7000 888.0000 1.0000
21.7100 839.0000 1.0000
21.7200 801.0000 1.0000
21.7300 819.0000 1.0000
21.7400 828.0000 1.0000
21.7500 812.0000 1.0000
21.7600 821.0000 1.0000
21.7700 781.0000 1.0000
21.7800 769.0000 1.0000
21.7900 851.0000 1.0000
21.8000 855.0000 1.0000
21.8100 849.0000 1.0000
21.8200 821.0000 1.0000
21.8300 820.0000 1.0000
21.8400 798.0000 1.0000
21.8500 838.0000 1.0000
21.8600 874.0000 1.0000
21.8700 820.0000 1.0000
21.8800 844.0000 1.0000
21.8900 813.0000 1.0000
21.9000 857.0000 1.0000
21.9100 824.0000 1.0000
21.9200 829.0000 1.0000
21.9300 846.0000 1.0000
21.9400 792.0000 1.0000
21.9500 772.0000 1.0000
21.9600 838.0000 1.0000
21.9700 865.0000 1.0000
21.9800 838.0000 1.0000
21.9900 795.0000 1.0000
22.0000 851.0000 1.0000
22.0100 859.0000 1.0000
22.0200 856.0000 1.0000
22.0300 789.0000 1.0000
22.0400 789.0000 1.0000
22.0500 790.0000 1.0000
22.0600 829.0000 1.0000
22.0700 785.0000 1.0000
22.0800 806.0000 1.0000
22.0900 837.0000 1.0000
22.1000 805.0000 1.0000
22.1100 811.0000 1.0000
22.1200 801.0000 1.0000
22.1300 800.0000 1.0000
22.1400 821.0000 1.0000
22.1500 759.0000 1.0000
22.1600 842.0000 1.0000
22.1700 824.0000 1.0000
22.1800 797.0000 1.0000
22.1900 830.0000 1.0000
22.2000 815.0000 1.0000
22.2100 850.0000 1.0000
22.2200 845.0000 1.0000
22.2300 801.0000 1.0000
22.2400 809.0000 1.0000
22.2500 788.0000 1.0000
22.2600 861.0000 1.0000
22.2700 857.0000 1.0000
22.2800 808.0000 1.0000
22.2900 850.0000 1.0000
22.3000 803.0000 1.0000
22.3100 871.0000 1.0000
22.3200 833.0000 1.0000
22.3300 800.0000 1.0000
22.3400 835.0000 1.0000
22.3500 798.0000 1.0000
22.3600 807.0000 1.0000
22.3700 826.0000 1.0000
22.3800 853.0000 1.0000
22.3900 842.0000 1.0000
22.4000 824.0000 1.0000
22.4100 842.0000 1.0000
22.4200 856.0000 1.0000
22.4300 847.0000 1.0000
22.4400 861.0000 1.0000
22.4500 826.0000 1.0000
22.4600 816.0000 1.0000
22.4700 798.0000 1.0000
22.4800 848.0000 1.0000
22.4900 800.0000 1.0000
22.5000 800.0000 1.0000
22.5100 856.0000 1.0000
22.5200 870.0000 1.0000
22.5300 855.0000 1.0000
22.5400 815.0000 1.0000
22.5500 843.0000 1.0000
22.5600 873.0000 1.0000
22.5700 836.0000 1.0000
22.5800 815.0000 1.0000
22.5900 838.0000 1.0000
22.6000 835.0000 1.0000
22.6100 858.0000 1.0000
22.6200 831.0000 1.0000
22.6300 843.0000 1.0000
22.6400 802.0000 1.0000
22.6500 846.0000 1.0000
22.6600 845.0000 1.0000
22.6700 801.0000 1.0000
22.6800 834.0000 1.0000
22.6900 838.0000 1.0000
22.7000 879.0000 1.0000
22.7100 827.0000 1.0000
22.7200 815.0000 1.0000
22.7300 819.0000 1.0000
22.7400 845.0000 1.0000
22.7500 821.0000 1.0000
22.7600 815.0000 1.0000
22.7700 822.0000 1.0000
22.7800 865.0000 1.0000
22.7900 819.0000 1.0000
22.8000 804.0000 1.0000
22.8100 826.0000 1.0000
22.8200 861.0000 1.0000
22.8300 816.0000 1.0000
22.8400 824.0000 1.0000
22.8500 859.0000 1.0000
22.8600 818.0000 1.0000
22.8700 806.0000 1.0000
22.8800 837.0000 1.0000
22.8900 837.0000 1.0000
22.9000 809.0000 1.0000
22.9100 797.0000 1.0000
22.9200 827.0000 1.0000
22.9300 793.0000 1.0000
22.9400 874.0000 1.0000
22.9500 838.0000 1.0000
22.9600 817.0000 1.0000
22.9700 818.0000 1.0000
22.9800 804.0000 1.0000
22.9900 839.0000 1.0000
23.0000 829.0000 1.0000
23.0100 827.0000 1.0000
23.0200 818.0000 1.0000
23.0300 840.0000 1.0000
23.0400 788.0000 1.0000
23.0500 832.0000 1.0000
23.0600 810.0000 1.0000
23.0700 803.0000 1.0000
23.0800 826.0000 1.0000
23.0900 829.0000 1.0000
23.1000 778.0000 1.0000
23.1100 785.0000 1.0000
23.1200 805.0000 1.0000
23.1300 821.0000 1.0000
23.1400 796.0000 1.0000
23.1500 800.0000 1.0000
23.1600 813.0000 1.0000
23.1700 804.0000 1.0000
23.1800 819.0000 1.0000
23.1900 806.0000 1.0000
23.2000 863.0000 1.0000
23.2100 899.0000 1.0000
23.2200 798.0000 1.0000
23.2300 844.0000 1.0000
23.2400 838.0000 1.0000
23.2500 768.0000 1.0000
23.2600 846.0000 1.0000
23.2700 817.0000 1.0000
23.2800 829.0000 1.0000
23.2900 817.0000 1.0000
23.3000 819.0000 1.0000
23.3100 849.0000 1.0000
23.3200 804.0000 1.0000
23.3300 809.0000 1.0000
23.3400 816.0000 1.0000
23.3500 815.0000 1.0000
23.3600 813.0000 1.0000
23.3700 810.0000 1.0000
23.3800 731.0000 1.0000
23.3900 791.0000 1.0000
23.4000 822.0000 1.0000
23.4100 796.0000 1.0000
23.4200 850.0000 1.0000
23.4300 804.0000 1.0000
23.4400 811.0000 1.0000
23.4500 749.0000 1.0000
23.4600 788.0000 1.0000
23.4700 804.0000 1.0000
23.4800 809.0000 1.0000
23.4900 824.0000 1.0000
23.5000 823.0000 1.0000
23.5100 849.0000 1.0000
23.5200 801.0000 1.0000
23.5300 804.0000 1.0000
23.5400 820.0000 1.0000
23.5500 804.0000 1.0000
23.5600 811.0000 1.0000
23.5700 797.0000 1.0000
23.5800 806.0000 1.0000
23.5900 816.0000 1.0000
23.6000 830.0000 1.0000
23.6100 807.0000 1.0000
23.6200 809.0000 1.0000
23.6300 816.0000 1.0000
23.6400 822.0000 1.0000
23.6500 803.0000 1.0000
23.6600 822.0000 1.0000
23.6700 849.0000 1.0000
23.6800 796.0000 1.0000
23.6900 779.0000 1.0000
23.7000 792.0000 1.0000
23.7100 833.0000 1.0000
23.7200 805.0000 1.0000
23.7300 799.0000 1.0000
23.7400 774.0000 1.0000
23.7500 815.0000 1.0000
23.7600 849.0000 1.0000
23.7700 823.0000 1.0000
23.7800 812.0000 1.0000
23.7900 823.0000 1.0000
23.8000 808.0000 1.0000
23.8100 831.0000 1.0000
23.8200 819.0000 1.0000
23.8300 836.0000 1.0000
23.8400 877.0000 1.0000
23.8500 829.0000 1.0000
23.8600 819.0000 1.0000
23.8700 867.0000 1.0000
23.8800 831.0000 1.0000
23.8900 816.0000 1.0000
23.9000 892.0000 1.0000
23.9100 851.0000 1.0000
23.9200 870.0000 1.0000
23.9300 836.0000 1.0000
23.9400 847.0000 1.0000
23.9500 847.0000 1.0000
23.9600 813.0000 1.0000
23.9700 843.0000 1.0000
23.9800 844.0000 1.0000
23.9900 856.0000 1.0000
24.0000 902.0000 1.0000
24.0100 852.0000 1.0000
24.0200 877.0000 1.0000
24.0300 896.0000 1.0000
24.0400 888.0000 1.0000
24.0500 804.0000 1.0000
24.0600 886.0000 1.0000
24.0700 856.0000 1.0000
24.0800 812.0000 1.0000
24.0900 874.0000 1.0000
24.1000 865.0000 1.0000
24.1100 871.0000 1.0000
24.1200 909.0000 1.0000
24.1300 866.0000 1.0000
24.1400 842.0000 1.0000
24.1500 822.0000 1.0000
24.1600 865.0000 1.0000
24.1700 915.0000 1.0000
24.1800 862.0000 1.0000
24.1900 892.0000 1.0000
24.2000 879.0000 1.0000
24.2100 861.0000 1.0000
24.2200 879.0000 1.0000
24.2300 878.0000 1.0000
24.2400 840.0000 1.0000
24.2500 847.0000 1.0000
24.2600 866.0000 1.0000
24.2700 823.0000 1.0000
24.2800 797.0000 1.0000
24.2900 799.0000 1.0000
24.3000 805.0000 1.0000
24.3100 819.0000 1.0000
24.3200 840.0000 1.0000
24.3300 817.0000 1.0000
24.3400 767.0000 1.0000
24.3500 838.0000 1.0000
24.3600 812.0000 1.0000
24.3700 839.0000 1.0000
24.3800 810.0000 1.0000
24.3900 773.0000 1.0000
24.4000 823.0000 1.0000
24.4100 827.0000 1.0000
24.4200 815.0000 1.0000
24.4300 784.0000 1.0000
24.4400 810.0000 1.0000
24.4500 853.0000 1.0000
24.4600 820.0000 1.0000
24.4700 826.0000 1.0000
24.4800 824.0000 1.0000
24.4900 807.0000 1.0000
24.5000 799.0000 1.0000
24.5100 770.0000 1.0000
24.5200 833.0000 1.0000
24.5300 810.0000 1.0000
24.5400 830.0000 1.0000
24.5500 821.0000 1.0000
24.5600 778.0000 1.0000
24.5700 866.0000 1.0000
24.5800 788.0000 1.0000
24.5900 777.0000 1.0000
24.6000 793.0000 1.0000
24.6100 813.0000 1.0000
24.6200 812.0000 1.0000
24.6300 799.0000 1.0000
24.6400 799.0000 1.0000
24.6500 775.0000 1.0000
24.6600 743.0000 1.0000
24.6700 771.0000 1.0000
24.6800 795.0000 1.0000
24.6900 853.0000 1.0000
24.7000 823.0000 1.0000
24.7100 768.0000 1.0000
24.7200 779.0000 1.0000
24.7300 787.0000 1.0000
24.7400 776.0000 1.0000
24.7500 801.0000 1.0000
24.7600 782.0000 1.0000
24.7700 826.0000 1.0000
24.7800 793.0000 1.0000
24.7900 795.0000 1.0000
24.8000 773.0000 1.0000
24.8100 797.0000 1.0000
24.8200 822.0000 1.0000
24.8300 777.0000 1.0000
24.8400 805.0000 1.0000
24.8500 836.0000 1.0000
24.8600 811.0000 1.0000
24.8700 793.0000 1.0000
24.8800 764.0000 1.0000
24.8900 777.0000 1.0000
24.9000 804.0000 1.0000
24.9100 778.0000 1.0000
24.9200 809.0000 1.0000
24.9300 806.0000 1.0000
24.9400 782.0000 1.0000
24.9500 842.0000 1.0000
24.9600 801.0000 1.0000
24.9700 777.0000 1.0000
24.9800 761.0000 1.0000
24.9900 780.0000 1.0000
25.0000 773.0000 1.0000
25.0100 785.0000 1.0000
25.0200 776.0000 1.0000
25.0300 791.0000 1.0000
25.0400 790.0000 1.0000
25.0500 789.0000 1.0000
25.0600 808.0000 1.0000
25.0700 810.0000 1.0000
25.0800 802.0000 1.0000
25.0900 821.0000 1.0000
25.1000 791.0000 1.0000
25.1100 743.0000 1.0000
25.1200 785.0000 1.0000
25.1300 743.0000 1.0000
25.1400 754.0000 1.0000
25.1500 813.0000 1.0000
25.1600 828.0000 1.0000
25.1700 800.0000 1.0000
25.1800 747.0000 1.0000
25.1900 782.0000 1.0000
25.2000 743.0000 1.0000
25.2100 742.0000 1.0000
25.2200 805.0000 1.0000
25.2300 823.0000 1.0000
25.2400 807.0000 1.0000
25.2500 777.0000 1.0000
25.2600 804.0000 1.0000
25.2700 842.0000 1.0000
25.2800 772.0000 1.0000
25.2900 843.0000 1.0000
25.3000 803.0000 1.0000
25.3100 832.0000 1.0000
25.3200 831.0000 1.0000
25.3300 789.0000 1.0000
25.3400 792.0000 1.0000
25.3500 789.0000 1.0000
25.3600 772.0000 1.0000
25.3700 775.0000 1.0000
25.3800 773.0000 1.0000
25.3900 769.0000 1.0000
25.4000 775.0000 1.0000
25.4100 751.0000 1.0000
25.4200 772.0000 1.0000
25.4300 770.0000 1.0000
25.4400 794.0000 1.0000
25.4500 790.0000 1.0000
25.4600 808.0000 1.0000
25.4700 811.0000 1.0000
25.4800 826.0000 1.0000
25.4900 809.0000 1.0000
25.5000 797.0000 1.0000
25.5100 807.0000 1.0000
25.5200 789.0000 1.0000
25.5300 772.0000 1.0000
25.5400 776.0000 1.0000
25.5500 800.0000 1.0000
25.5600 801.0000 1.0000
25.5700 784.0000 1.0000
25.5800 822.0000 1.0000
25.5900 782.0000 1.0000
25.6000 816.0000 1.0000
25.6100 846.0000 1.0000
25.6200 755.0000 1.0000
25.6300 796.0000 1.0000
25.6400 780.0000 1.0000
25.6500 841.0000 1.0000
25.6600 796.0000 1.0000
25.6700 832.0000 1.0000
25.6800 800.0000 1.0000
25.6900 826.0000 1.0000
25.7000 784.0000 1.0000
25.7100 780.0000 1.0000
25.7200 801.0000 1.0000
25.7300 856.0000 1.0000
25.7400 798.0000 1.0000
25.7500 796.0000 1.0000
25.7600 770.0000 1.0000
25.7700 798.0000 1.0000
25.7800 847.0000 1.0000
25.7900 823.0000 1.0000
25.8000 812.0000 1.0000
25.8100 845.0000 1.0000
25.8200 864.0000 1.0000
25.8300 854.0000 1.0000
25.8400 835.0000 1.0000
25.8500 822.0000 1.0000
25.8600 795.0000 1.0000
25.8700 872.0000 1.0000
25.8800 842.0000 1.0000
25.8900 869.0000 1.0000
25.9000 901.0000 1.0000
25.9100 840.0000 1.0000
25.9200 829.0000 1.0000
25.9300 880.0000 1.0000
25.9400 850.0000 1.0000
25.9500 846.0000 1.0000
25.9600 837.0000 1.0000
25.9700 827.0000 1.0000
25.9800 843.0000 1.0000
25.9900 872.0000 1.0000
26.0000 849.0000 1.0000
26.0100 858.0000 1.0000
26.0200 858.0000 1.0000
26.0300 883.0000 1.0000
26.0400 875.0000 1.0000
26.0500 880.0000 1.0000
26.0600 918.0000 1.0000
26.0700 896.0000 1.0000
26.0800 937.0000 1.0000
26.0900 995.0000 1.0000
26.1000 938.0000 1.0000
26.1100 939.0000 1.0000
26.1200 937.0000 1.0000
26.1300 966.0000 1.0000
26.1400 947.0000 1.0000
26.1500 989.0000 1.0000
26.1600 999.0000 1.0000
26.1700 1042.0000 1.0000
26.1800 1028.0000 1.0000
26.1900 1094.0000 1.0000
26.2000 1128.0000 1.0000
26.2100 1110.0000 1.0000
26.2200 1152.0000 1.0000
26.2300 1186.0000 1.0000
26.2400 1197.0000 1.0000
26.2500 1265.0000 1.0000
26.2600 1293.0000 1.0000
26.2700 1343.0000 1.0000
26.2800 1378.0000 1.0000
26.2900 1397.0000 1.0000
26.3000 1459.0000 1.0000
26.3100 1528.0000 1.0000
26.3200 1620.0000 1.0000
26.3300 1731.0000 1.0000
26.3400 1853.0000 1.0000
26.3500 1951.0000 1.0000
26.3600 1976.0000 1.0000
26.3700 2151.0000 1.0000
26.3800 2233.0000 1.0000
26.3900 2377.0000 1.0000
26.4000 2497.0000 1.0000
26.4100 2672.0000 1.0000
26.4200 2768.0000 1.0000
26.4300 2836.0000 1.0000
26.4400 2847.0000 1.0000
26.4500 2909.0000 1.0000
26.4600 2903.0000 1.0000
26.4700 2835.0000 1.0000
26.4800 2822.0000 1.0000
26.4900 2679.0000 1.0000
26.5000 2610.0000 1.0000
26.5100 2465.0000 1.0000
26.5200 2407.0000 1.0000
26.5300 2270.0000 1.0000
26.5400 2243.0000 1.0000
26.5500 2102.0000 1.0000
26.5600 1986.0000 1.0000
26.5700 1845.0000 1.0000
26.5800 1791.0000 1.0000
26.5900 1595.0000 1.0000
26.6000 1582.0000 1.0000
26.6100 1530.0000 1.0000
26.6200 1453.0000 1.0000
26.6300 1348.0000 1.0000
26.6400 1341.0000 1.0000
26.6500 1324.0000 1.0000
26.6600 1214.0000 1.0000
26.6700 1181.0000 1.0000
26.6800 1158.0000 1.0000
26.6900 1126.0000 1.0000
26.7000 1125.0000 1.0000
26.7100 1144.0000 1.0000
26.7200 1066.0000 1.0000
26.7300 1048.0000 1.0000
26.7400 990.0000 1.0000
26.7500 1016.0000 1.0000
26.7600 1019.0000 1.0000
26.7700 1006.0000 1.0000
26.7800 961.0000 1.0000
26.7900 903.0000 1.0000
26.8000 972.0000 1.0000
26.8100 951.0000 1.0000
26.8200 874.0000 1.0000
26.8300 923.0000 1.0000
26.8400 919.0000 1.0000
26.8500 882.0000 1.0000
26.8600 885.0000 1.0000
26.8700 920.0000 1.0000
26.8800 890.0000 1.0000
26.8900 843.0000 1.0000
26.9000 853.0000 1.0000
26.9100 846.0000 1.0000
26.9200 838.0000 1.0000
26.9300 870.0000 1.0000
26.9400 796.0000 1.0000
26.9500 826.0000 1.0000
26.9600 820.0000 1.0000
26.9700 824.0000 1.0000
26.9800 797.0000 1.0000
26.9900 795.0000 1.0000
27.0000 794.0000 1.0000
27.0100 826.0000 1.0000
27.0200 781.0000 1.0000
27.0300 765.0000 1.0000
27.0400 747.0000 1.0000
27.0500 809.0000 1.0000
27.0600 814.0000 1.0000
27.0700 806.0000 1.0000
27.0800 789.0000 1.0000
27.0900 791.0000 1.0000
27.1000 761.0000 1.0000
27.1100 774.0000 1.0000
27.1200 809.0000 1.0000
27.1300 783.0000 1.0000
27.1400 781.0000 1.0000
27.1500 801.0000 1.0000
27.1600 734.0000 1.0000
27.1700 821.0000 1.0000
27.1800 810.0000 1.0000
27.1900 763.0000 1.0000
27.2000 733.0000 1.0000
27.2100 777.0000 1.0000
27.2200 760.0000 1.0000
27.2300 756.0000 1.0000
27.2400 787.0000 1.0000
27.2500 732.0000 1.0000
27.2600 754.0000 1.0000
27.2700 750.0000 1.0000
27.2800 742.0000 1.0000
27.2900 746.0000 1.0000
27.3000 766.0000 1.0000
27.3100 705.0000 1.0000
27.3200 762.0000 1.0000
27.3300 775.0000 1.0000
27.3400 762.0000 1.0000
27.3500 763.0000 1.0000
27.3600 726.0000 1.0000
27.3700 755.0000 1.0000
27.3800 793.0000 1.0000
27.3900 746.0000 1.0000
27.4000 723.0000 1.0000
27.4100 738.0000 1.0000
27.4200 729.0000 1.0000
27.4300 790.0000 1.0000
27.4400 754.0000 1.0000
27.4500 729.0000 1.0000
27.4600 747.0000 1.0000
27.4700 729.0000 1.0000
27.4800 743.0000 1.0000
27.4900 744.0000 1.0000
27.5000 737.0000 1.0000
27.5100 716.0000 1.0000
27.5200 719.0000 1.0000
27.5300 722.0000 1.0000
27.5400 719.0000 1.0000
27.5500 691.0000 1.0000
27.5600 709.0000 1.0000
27.5700 731.0000 1.0000
27.5800 753.0000 1.0000
27.5900 734.0000 1.0000
27.6000 739.0000 1.0000
27.6100 723.0000 1.0000
27.6200 723.0000 1.0000
27.6300 723.0000 1.0000
27.6400 760.0000 1.0000
27.6500 747.0000 1.0000
27.6600 723.0000 1.0000
27.6700 725.0000 1.0000
27.6800 736.0000 1.0000
27.6900 762.0000 1.0000
27.7000 743.0000 1.0000
27.7100 687.0000 1.0000
27.7200 698.0000 1.0000
27.7300 693.0000 1.0000
27.7400 725.0000 1.0000
27.7500 720.0000 1.0000
27.7600 733.0000 1.0000
27.7700 732.0000 1.0000
27.7800 735.0000 1.0000
27.7900 689.0000 1.0000
27.8000 698.0000 1.0000
27.8100 726.0000 1.0000
27.8200 722.0000 1.0000
27.8300 716.0000 1.0000
27.8400 706.0000 1.0000
27.8500 713.0000 1.0000
27.8600 712.0000 1.0000
27.8700 729.0000 1.0000
27.8800 670.0000 1.0000
27.8900 664.0000 1.0000
27.9000 696.0000 1.0000
27.9100 705.0000 1.0000
27.9200 718.0000 1.0000
27.9300 718.0000 1.0000
27.9400 712.0000 1.0000
27.9500 696.0000 1.0000
27.9600 708.0000 1.0000
27.9700 730.0000 1.0000
27.9800 708.0000 1.0000
27.9900 729.0000 1.0000
28.0000 666.0000 1.0000
28.0100 730.0000 1.0000
28.0200 714.0000 1.0000
28.0300 709.0000 1.0000
28.0400 718.0000 1.0000
28.0500 729.0000 1.0000
28.0600 690.0000 1.0000
28.0700 707.0000 1.0000
28.0800 656.0000 1.0000
28.0900 716.0000 1.0000
28.1000 705.0000 1.0000
28.1100 725.0000 1.0000
28.1200 697.0000 1.0000
28.1300 680.0000 1.0000
28.1400 699.0000 1.0000
28.1500 683.0000 1.0000
28.1600 698.0000 1.0000
28.1700 680.0000 1.0000
28.1800 692.0000 1.0000
28.1900 757.0000 1.0000
28.2000 729.0000 1.0000
28.2100 712.0000 1.0000
28.2200 688.0000 1.0000
28.2300 670.0000 1.0000
28.2400 672.0000 1.0000
28.2500 688.0000 1.0000
28.2600 680.0000 1.0000
28.2700 701.0000 1.0000
28.2800 730.0000 1.0000
28.2900 715.0000 1.0000
28.3000 671.0000 1.0000
28.3100 672.0000 1.0000
28.3200 682.0000 1.0000
28.3300 664.0000 1.0000
28.3400 671.0000 1.0000
28.3500 695.0000 1.0000
28.3600 672.0000 1.0000
28.3700 685.0000 1.0000
28.3800 700.0000 1.0000
28.3900 724.0000 1.0000
28.4000 707.0000 1.0000
28.4100 724.0000 1.0000
28.4200 707.0000 1.0000
28.4300 662.0000 1.0000
28.4400 670.0000 1.0000
28.4500 687.0000 1.0000
28.4600 705.0000 1.0000
28.4700 722.0000 1.0000
28.4800 682.0000 1.0000
28.4900 701.0000 1.0000
28.5000 696.0000 1.0000
28.5100 711.0000 1.0000
28.5200 715.0000 1.0000
28.5300 663.0000 1.0000
28.5400 688.0000 1.0000
28.5500 703.0000 1.0000
28.5600 667.0000 1.0000
28.5700 652.0000 1.0000
28.5800 669.0000 1.0000
28.5900 664.0000 1.0000
28.6000 671.0000 1.0000
28.6100 715.0000 1.0000
28.6200 683.0000 1.0000
28.6300 684.0000 1.0000
28.6400 678.0000 1.0000
28.6500 668.0000 1.0000
28.6600 663.0000 1.0000
28.6700 687.0000 1.0000
28.6800 683.0000 1.0000
28.6900 668.0000 1.0000
28.7000 647.0000 1.0000
28.7100 649.0000 1.0000
28.7200 658.0000 1.0000
28.7300 634.0000 1.0000
28.7400 677.0000 1.0000
28.7500 694.0000 1.0000
28.7600 667.0000 1.0000
28.7700 695.0000 1.0000
28.7800 683.0000 1.0000
28.7900 696.0000 1.0000
28.8000 686.0000 1.0000
28.8100 672.0000 1.0000
28.8200 664.0000 1.0000
28.8300 702.0000 1.0000
28.8400 689.0000 1.0000
28.8500 690.0000 1.0000
28.8600 656.0000 1.0000
28.8700 636.0000 1.0000
28.8800 654.0000 1.0000
28.8900 686.0000 1.0000
28.9000 634.0000 1.0000
28.9100 628.0000 1.0000
28.9200 625.0000 1.0000
28.9300 659.0000 1.0000
28.9400 687.0000 1.0000
28.9500 691.0000 1.0000
28.9600 707.0000 1.0000
28.9700 699.0000 1.0000
28.9800 672.0000 1.0000
28.9900 693.0000 1.0000
29.0000 658.0000 1.0000
29.0100 666.0000 1.0000
29.0200 674.0000 1.0000
29.0300 693.0000 1.0000
29.0400 684.0000 1.0000
29.0500 697.0000 1.0000
29.0600 677.0000 1.0000
29.0700 708.0000 1.0000
29.0800 640.0000 1.0000
29.0900 698.0000 1.0000
29.1000 674.0000 1.0000
29.1100 681.0000 1.0000
29.1200 670.0000 1.0000
29.1300 695.0000 1.0000
29.1400 640.0000 1.0000
29.1500 673.0000 1.0000
29.1600 663.0000 1.0000
29.1700 677.0000 1.0000
29.1800 672.0000 1.0000
29.1900 684.0000 1.0000
29.2000 681.0000 1.0000
29.2100 650.0000 1.0000
29.2200 636.0000 1.0000
29.2300 662.0000 1.0000
29.2400 663.0000 1.0000
29.2500 679.0000 1.0000
29.2600 655.0000 1.0000
29.2700 670.0000 1.0000
29.2800 646.0000 1.0000
29.2900 668.0000 1.0000
29.3000 661.0000 1.0000
29.3100 667.0000 1.0000
29.3200 671.0000 1.0000
29.3300 685.0000 1.0000
29.3400 658.0000 1.0000
29.3500 674.0000 1.0000
29.3600 662.0000 1.0000
29.3700 663.0000 1.0000
29.3800 642.0000 1.0000
29.3900 650.0000 1.0000
29.4000 686.0000 1.0000
29.4100 653.0000 1.0000
29.4200 664.0000 1.0000
29.4300 669.0000 1.0000
29.4400 633.0000 1.0000
29.4500 660.0000 1.0000
29.4600 676.0000 1.0000
29.4700 651.0000 1.0000
29.4800 650.0000 1.0000
29.4900 654.0000 1.0000
29.5000 650.0000 1.0000
29.5100 660.0000 1.0000
29.5200 624.0000 1.0000
29.5300 667.0000 1.0000
29.5400 675.0000 1.0000
29.5500 636.0000 1.0000
29.5600 641.0000 1.0000
29.5700 641.0000 1.0000
29.5800 650.0000 1.0000
29.5900 658.0000 1.0000
29.6000 643.0000 1.0000
29.6100 649.0000 1.0000
29.6200 643.0000 1.0000
29.6300 640.0000 1.0000
29.6400 628.0000 1.0000
29.6500 709.0000 1.0000
29.6600 704.0000 1.0000
29.6700 664.0000 1.0000
29.6800 653.0000 1.0000
29.6900 637.0000 1.0000
29.7000 671.0000 1.0000
29.7100 672.0000 1.0000
29.7200 636.0000 1.0000
29.7300 672.0000 1.0000
29.7400 672.0000 1.0000
29.7500 644.0000 1.0000
29.7600 696.0000 1.0000
29.7700 666.0000 1.0000
29.7800 668.0000 1.0000
29.7900 631.0000 1.0000
29.8000 656.0000 1.0000
29.8100 670.0000 1.0000
29.8200 639.0000 1.0000
29.8300 642.0000 1.0000
29.8400 639.0000 1.0000
29.8500 622.0000 1.0000
29.8600 654.0000 1.0000
29.8700 644.0000 1.0000
29.8800 665.0000 1.0000
29.8900 691.0000 1.0000
29.9000 628.0000 1.0000
29.9100 657.0000 1.0000
29.9200 609.0000 1.0000
29.9300 585.0000 1.0000
29.9400 626.0000 1.0000
29.9500 620.0000 1.0000
29.9600 669.0000 1.0000
29.9700 611.0000 1.0000
29.9800 635.0000 1.0000
29.9900 633.0000 1.0000
30.0000 638.0000 1.0000
30.0100 624.0000 1.0000
30.0200 652.0000 1.0000
30.0300 638.0000 1.0000
30.0400 674.0000 1.0000
30.0500 635.0000 1.0000
30.0600 670.0000 1.0000
30.0700 681.0000 1.0000
30.0800 634.0000 1.0000
30.0900 634.0000 1.0000
30.1000 637.0000 1.0000
30.1100 661.0000 1.0000
30.1200 648.0000 1.0000
30.1300 636.0000 1.0000
30.1400 646.0000 1.0000
30.1500 652.0000 1.0000
30.1600 641.0000 1.0000
30.1700 639.0000 1.0000
30.1800 647.0000 1.0000
30.1900 622.0000 1.0000
30.2000 632.0000 1.0000
30.2100 675.0000 1.0000
30.2200 588.0000 1.0000
30.2300 620.0000 1.0000
30.2400 598.0000 1.0000
30.2500 628.0000 1.0000
30.2600 654.0000 1.0000
30.2700 641.0000 1.0000
30.2800 645.0000 1.0000
30.2900 657.0000 1.0000
30.3000 643.0000 1.0000
30.3100 633.0000 1.0000
30.3200 639.0000 1.0000
30.3300 627.0000 1.0000
30.3400 636.0000 1.0000
30.3500 614.0000 1.0000
30.3600 632.0000 1.0000
30.3700 643.0000 1.0000
30.3800 663.0000 1.0000
30.3900 661.0000 1.0000
30.4000 647.0000 1.0000
30.4100 656.0000 1.0000
30.4200 628.0000 1.0000
30.4300 624.0000 1.0000
30.4400 605.0000 1.0000
30.4500 639.0000 1.0000
30.4600 648.0000 1.0000
30.4700 640.0000 1.0000
30.4800 639.0000 1.0000
30.4900 632.0000 1.0000
30.5000 628.0000 1.0000
30.5100 637.0000 1.0000
30.5200 606.0000 1.0000
30.5300 636.0000 1.0000
30.5400 616.0000 1.0000
30.5500 618.0000 1.0000
30.5600 591.0000 1.0000
30.5700 621.0000 1.0000
30.5800 625.0000 1.0000
30.5900 617.0000 1.0000
30.6000 580.0000 1.0000
30.6100 625.0000 1.0000
30.6200 629.0000 1.0000
30.6300 651.0000 1.0000
30.6400 652.0000 1.0000
30.6500 604.0000 1.0000
30.6600 634.0000 1.0000
30.6700 603.0000 1.0000
30.6800 626.0000 1.0000
30.6900 633.0000 1.0000
30.7000 662.0000 1.0000
30.7100 614.0000 1.0000
30.7200 627.0000 1.0000
30.7300 568.0000 1.0000
30.7400 657.0000 1.0000
30.7500 584.0000 1.0000
30.7600 657.0000 1.0000
30.7700 604.0000 1.0000
30.7800 619.0000 1.0000
30.7900 628.0000 1.0000
30.8000 621.0000 1.0000
30.8100 592.0000 1.0000
30.8200 637.0000 1.0000
30.8300 641.0000 1.0000
30.8400 627.0000 1.0000
30.8500 585.0000 1.0000
30.8600 623.0000 1.0000
30.8700 599.0000 1.0000
30.8800 589.0000 1.0000
30.8900 640.0000 1.0000
30.9000 646.0000 1.0000
30.9100 578.0000 1.0000
30.9200 640.0000 1.0000
30.9300 641.0000 1.0000
30.9400 598.0000 1.0000
30.9500 621.0000 1.0000
30.9600 618.0000 1.0000
30.9700 617.0000 1.0000
30.9800 640.0000 1.0000
30.9900 628.0000 1.0000
31.0000 615.0000 1.0000
31.0100 618.0000 1.0000
31.0200 607.0000 1.0000
31.0300 669.0000 1.0000
31.0400 587.0000 1.0000
31.0500 624.0000 1.0000
31.0600 610.0000 1.0000
31.0700 572.0000 1.0000
31.0800 633.0000 1.0000
31.0900 659.0000 1.0000
31.1000 646.0000 1.0000
31.1100 638.0000 1.0000
31.1200 626.0000 1.0000
31.1300 608.0000 1.0000
31.1400 609.0000 1.0000
31.1500 656.0000 1.0000
31.1600 636.0000 1.0000
31.1700 648.0000 1.0000
31.1800 632.0000 1.0000
31.1900 621.0000 1.0000
31.2000 618.0000 1.0000
31.2100 601.0000 1.0000
31.2200 602.0000 1.0000
31.2300 590.0000 1.0000
31.2400 610.0000 1.0000
31.2500 614.0000 1.0000
31.2600 620.0000 1.0000
31.2700 642.0000 1.0000
31.2800 627.0000 1.0000
31.2900 566.0000 1.0000
31.3000 610.0000 1.0000
31.3100 616.0000 1.0000
31.3200 621.0000 1.0000
31.3300 661.0000 1.0000
31.3400 617.0000 1.0000
31.3500 665.0000 1.0000
31.3600 582.0000 1.0000
31.3700 619.0000 1.0000
31.3800 606.0000 1.0000
31.3900 583.0000 1.0000
31.4000 624.0000 1.0000
31.4100 613.0000 1.0000
31.4200 605.0000 1.0000
31.4300 634.0000 1.0000
31.4400 600.0000 1.0000
31.4500 599.0000 1.0000
31.4600 567.0000 1.0000
31.4700 606.0000 1.0000
31.4800 581.0000 1.0000
31.4900 575.0000 1.0000
31.5000 634.0000 1.0000
31.5100 607.0000 1.0000
31.5200 644.0000 1.0000
31.5300 604.0000 1.0000
31.5400 589.0000 1.0000
31.5500 578.0000 1.0000
31.5600 581.0000 1.0000
31.5700 610.0000 1.0000
31.5800 610.0000 1.0000
31.5900 614.0000 1.0000
31.6000 609.0000 1.0000
31.6100 630.0000 1.0000
31.6200 578.0000 1.0000
31.6300 625.0000 1.0000
31.6400 625.0000 1.0000
31.6500 610.0000 1.0000
31.6600 618.0000 1.0000
31.6700 591.0000 1.0000
31.6800 617.0000 1.0000
31.6900 597.0000 1.0000
31.7000 569.0000 1.0000
31.7100 569.0000 1.0000
31.7200 590.0000 1.0000
31.7300 572.0000 1.0000
31.7400 571.0000 1.0000
31.7500 578.0000 1.0000
31.7600 638.0000 1.0000
31.7700 574.0000 1.0000
31.7800 594.0000 1.0000
31.7900 609.0000 1.0000
31.8000 627.0000 1.0000
31.8100 572.0000 1.0000
31.8200 592.0000 1.0000
31.8300 608.0000 1.0000
31.8400 614.0000 1.0000
31.8500 557.0000 1.0000
31.8600 633.0000 1.0000
31.8700 587.0000 1.0000
31.8800 585.0000 1.0000
31.8900 581.0000 1.0000
31.9000 590.0000 1.0000
31.9100 583.0000 1.0000
31.9200 560.0000 1.0000
31.9300 593.0000 1.0000
31.9400 603.0000 1.0000
31.9500 606.0000 1.0000
31.9600 570.0000 1.0000
31.9700 550.0000 1.0000
31.9800 589.0000 1.0000
31.9900 599.0000 1.0000
32.0000 565.0000 1.0000
32.0100 587.0000 1.0000
32.0200 570.0000 1.0000
32.0300 562.0000 1.0000
32.0400 567.0000 1.0000
32.0500 561.0000 1.0000
32.0600 605.0000 1.0000
32.0700 595.0000 1.0000
32.0800 560.0000 1.0000
32.0900 547.0000 1.0000
32.1000 549.0000 1.0000
32.1100 564.0000 1.0000
32.1200 616.0000 1.0000
32.1300 589.0000 1.0000
32.1400 584.0000 1.0000
32.1500 586.0000 1.0000
32.1600 578.0000 1.0000
32.1700 579.0000 1.0000
32.1800 548.0000 1.0000
32.1900 554.0000 1.0000
32.2000 590.0000 1.0000
32.2100 586.0000 1.0000
32.2200 602.0000 1.0000
32.2300 560.0000 1.0000
32.2400 551.0000 1.0000
32.2500 580.0000 1.0000
32.2600 605.0000 1.0000
32.2700 614.0000 1.0000
32.2800 584.0000 1.0000
32.2900 588.0000 1.0000
32.3000 586.0000 1.0000
32.3100 558.0000 1.0000
32.3200 553.0000 1.0000
32.3300 549.0000 1.0000
32.3400 583.0000 1.0000
32.3500 575.0000 1.0000
32.3600 550.0000 1.0000
32.3700 598.0000 1.0000
32.3800 580.0000 1.0000
32.3900 566.0000 1.0000
32.4000 573.0000 1.0000
32.4100 569.0000 1.0000
32.4200 574.0000 1.0000
32.4300 558.0000 1.0000
32.4400 569.0000 1.0000
32.4500 582.0000 1.0000
32.4600 579.0000 1.0000
32.4700 570.0000 1.0000
32.4800 555.0000 1.0000
32.4900 572.0000 1.0000
32.5000 601.0000 1.0000
32.5100 563.0000 1.0000
32.5200 564.0000 1.0000
32.5300 592.0000 1.0000
32.5400 563.0000 1.0000
32.5500 592.0000 1.0000
32.5600 605.0000 1.0000
32.5700 595.0000 1.0000
32.5800 566.0000 1.0000
32.5900 574.0000 1.0000
32.6000 614.0000 1.0000
32.6100 581.0000 1.0000
32.6200 547.0000 1.0000
32.6300 566.0000 1.0000
32.6400 586.0000 1.0000
32.6500 572.0000 1.0000
32.6600 559.0000 1.0000
32.6700 588.0000 1.0000
32.6800 577.0000 1.0000
32.6900 602.0000 1.0000
32.7000 567.0000 1.0000
32.7100 552.0000 1.0000
32.7200 563.0000 1.0000
32.7300 565.0000 1.0000
32.7400 581.0000 1.0000
32.7500 617.0000 1.0000
32.7600 597.0000 1.0000
32.7700 578.0000 1.0000
32.7800 565.0000 1.0000
32.7900 571.0000 1.0000
32.8000 587.0000 1.0000
32.8100 612.0000 1.0000
32.8200 574.0000 1.0000
32.8300 592.0000 1.0000
32.8400 641.0000 1.0000
32.8500 631.0000 1.0000
32.8600 572.0000 1.0000
32.8700 538.0000 1.0000
32.8800 603.0000 1.0000
32.8900 601.0000 1.0000
32.9000 601.0000 1.0000
32.9100 630.0000 1.0000
32.9200 622.0000 1.0000
32.9300 612.0000 1.0000
32.9400 587.0000 1.0000
32.9500 604.0000 1.0000
32.9600 632.0000 1.0000
32.9700 641.0000 1.0000
32.9800 639.0000 1.0000
32.9900 638.0000 1.0000
33.0000 643.0000 1.0000
33.0100 639.0000 1.0000
33.0200 679.0000 1.0000
33.0300 676.0000 1.0000
33.0400 696.0000 1.0000
33.0500 698.0000 1.0000
33.0600 709.0000 1.0000
33.0700 684.0000 1.0000
33.0800 729.0000 1.0000
33.0900 703.0000 1.0000
33.1000 736.0000 1.0000
33.1100 741.0000 1.0000
33.1200 698.0000 1.0000
33.1300 775.0000 1.0000
33.1400 733.0000 1.0000
33.1500 711.0000 1.0000
33.1600 704.0000 1.0000
33.1700 684.0000 1.0000
33.1800 695.0000 1.0000
33.1900 694.0000 1.0000
33.2000 669.0000 1.0000
33.2100 677.0000 1.0000
33.2200 666.0000 1.0000
33.2300 652.0000 1.0000
33.2400 643.0000 1.0000
33.2500 625.0000 1.0000
33.2600 682.0000 1.0000
33.2700 681.0000 1.0000
33.2800 630.0000 1.0000
33.2900 645.0000 1.0000
33.3000 649.0000 1.0000
33.3100 626.0000 1.0000
33.3200 662.0000 1.0000
33.3300 677.0000 1.0000
33.3400 631.0000 1.0000
33.3500 653.0000 1.0000
33.3600 695.0000 1.0000
33.3700 647.0000 1.0000
33.3800 702.0000 1.0000
33.3900 706.0000 1.0000
33.4000 719.0000 1.0000
33.4100 697.0000 1.0000
33.4200 729.0000 1.0000
33.4300 737.0000 1.0000
33.4400 766.0000 1.0000
33.4500 755.0000 1.0000
33.4600 764.0000 1.0000
33.4700 748.0000 1.0000
33.4800 797.0000 1.0000
33.4900 829.0000 1.0000
33.5000 833.0000 1.0000
33.5100 910.0000 1.0000
33.5200 929.0000 1.0000
33.5300 918.0000 1.0000
33.5400 950.0000 1.0000
33.5500 1019.0000 1.0000
33.5600 1090.0000 1.0000
33.5700 1114.0000 1.0000
33.5800 1104.0000 1.0000
33.5900 1189.0000 1.0000
33.6000 1311.0000 1.0000
33.6100 1378.0000 1.0000
33.6200 1365.0000 1.0000
33.6300 1345.0000 1.0000
33.6400 1420.0000 1.0000
33.6500 1463.0000 1.0000
33.6600 1530.0000 1.0000
33.6700 1470.0000 1.0000
33.6800 1524.0000 1.0000
33.6900 1462.0000 1.0000
33.7000 1403.0000 1.0000
33.7100 1459.0000 1.0000
33.7200 1340.0000 1.0000
33.7300 1276.0000 1.0000
33.7400 1297.0000 1.0000
33.7500 1224.0000 1.0000
33.7600 1225.0000 1.0000
33.7700 1130.0000 1.0000
33.7800 1059.0000 1.0000
33.7900 1020.0000 1.0000
33.8000 984.0000 1.0000
33.8100 1007.0000 1.0000
33.8200 931.0000 1.0000
33.8300 844.0000 1.0000
33.8400 817.0000 1.0000
33.8500 906.0000 1.0000
33.8600 789.0000 1.0000
33.8700 744.0000 1.0000
33.8800 706.0000 1.0000
33.8900 719.0000 1.0000
33.9000 748.0000 1.0000
33.9100 686.0000 1.0000
33.9200 714.0000 1.0000
33.9300 682.0000 1.0000
33.9400 674.0000 1.0000
33.9500 671.0000 1.0000
33.9600 671.0000 1.0000
33.9700 670.0000 1.0000
33.9800 645.0000 1.0000
33.9900 648.0000 1.0000
34.0000 621.0000 1.0000
34.0100 659.0000 1.0000
34.0200 636.0000 1.0000
34.0300 632.0000 1.0000
34.0400 615.0000 1.0000
34.0500 581.0000 1.0000
34.0600 581.0000 1.0000
34.0700 631.0000 1.0000
34.0800 613.0000 1.0000
34.0900 573.0000 1.0000
34.1000 553.0000 1.0000
34.1100 606.0000 1.0000
34.1200 594.0000 1.0000
34.1300 562.0000 1.0000
34.1400 596.0000 1.0000
34.1500 568.0000 1.0000
34.1600 565.0000 1.0000
34.1700 552.0000 1.0000
34.1800 560.0000 1.0000
34.1900 569.0000 1.0000
34.2000 589.0000 1.0000
34.2100 573.0000 1.0000
34.2200 553.0000 1.0000
34.2300 533.0000 1.0000
34.2400 523.0000 1.0000
34.2500 535.0000 1.0000
34.2600 568.0000 1.0000
34.2700 595.0000 1.0000
34.2800 559.0000 1.0000
34.2900 509.0000 1.0000
34.3000 568.0000 1.0000
34.3100 551.0000 1.0000
34.3200 558.0000 1.0000
34.3300 533.0000 1.0000
34.3400 530.0000 1.0000
34.3500 491.0000 1.0000
34.3600 521.0000 1.0000
34.3700 534.0000 1.0000
34.3800 574.0000 1.0000
34.3900 532.0000 1.0000
34.4000 530.0000 1.0000
34.4100 515.0000 1.0000
34.4200 513.0000 1.0000
34.4300 525.0000 1.0000
34.4400 540.0000 1.0000
34.4500 512.0000 1.0000
34.4600 512.0000 1.0000
34.4700 567.0000 1.0000
34.4800 559.0000 1.0000
34.4900 522.0000 1.0000
34.5000 529.0000 1.0000
34.5100 527.0000 1.0000
34.5200 545.0000 1.0000
34.5300 567.0000 1.0000
34.5400 523.0000 1.0000
34.5500 503.0000 1.0000
34.5600 525.0000 1.0000
34.5700 522.0000 1.0000
34.5800 526.0000 1.0000
34.5900 490.0000 1.0000
34.6000 519.0000 1.0000
34.6100 478.0000 1.0000
34.6200 517.0000 1.0000
34.6300 528.0000 1.0000
34.6400 547.0000 1.0000
34.6500 522.0000 1.0000
34.6600 526.0000 1.0000
34.6700 526.0000 1.0000
34.6800 498.0000 1.0000
34.6900 538.0000 1.0000
34.7000 505.0000 1.0000
34.7100 489.0000 1.0000
34.7200 508.0000 1.0000
34.7300 465.0000 1.0000
34.7400 504.0000 1.0000
34.7500 520.0000 1.0000
34.7600 510.0000 1.0000
34.7700 508.0000 1.0000
34.7800 512.0000 1.0000
34.7900 527.0000 1.0000
34.8000 542.0000 1.0000
34.8100 519.0000 1.0000
34.8200 496.0000 1.0000
34.8300 475.0000 1.0000
34.8400 496.0000 1.0000
34.8500 485.0000 1.0000
34.8600 527.0000 1.0000
34.8700 501.0000 1.0000
34.8800 514.0000 1.0000
34.8900 485.0000 1.0000
34.9000 497.0000 1.0000
34.9100 514.0000 1.0000
34.9200 476.0000 1.0000
34.9300 496.0000 1.0000
34.9400 521.0000 1.0000
34.9500 490.0000 1.0000
34.9600 493.0000 1.0000
34.9700 481.0000 1.0000
34.9800 502.0000 1.0000
34.9900 542.0000 1.0000
35.0000 533.0000 1.0000
35.0100 481.0000 1.0000
35.0200 531.0000 1.0000
35.0300 492.0000 1.0000
35.0400 493.0000 1.0000
35.0500 490.0000 1.0000
35.0600 495.0000 1.0000
35.0700 514.0000 1.0000
35.0800 508.0000 1.0000
35.0900 484.0000 1.0000
35.1000 492.0000 1.0000
35.1100 513.0000 1.0000
35.1200 507.0000 1.0000
35.1300 504.0000 1.0000
35.1400 536.0000 1.0000
35.1500 500.0000 1.0000
35.1600 480.0000 1.0000
35.1700 482.0000 1.0000
35.1800 475.0000 1.0000
35.1900 503.0000 1.0000
35.2000 530.0000 1.0000
35.2100 497.0000 1.0000
35.2200 513.0000 1.0000
35.2300 463.0000 1.0000
35.2400 520.0000 1.0000
35.2500 532.0000 1.0000
35.2600 491.0000 1.0000
35.2700 516.0000 1.0000
35.2800 509.0000 1.0000
35.2900 539.0000 1.0000
35.3000 539.0000 1.0000
35.3100 528.0000 1.0000
35.3200 513.0000 1.0000
35.3300 519.0000 1.0000
35.3400 556.0000 1.0000
35.3500 535.0000 1.0000
35.3600 548.0000 1.0000
35.3700 531.0000 1.0000
35.3800 544.0000 1.0000
35.3900 571.0000 1.0000
35.4000 603.0000 1.0000
35.4100 598.0000 1.0000
35.4200 557.0000 1.0000
35.4300 578.0000 1.0000
35.4400 637.0000 1.0000
35.4500 638.0000 1.0000
35.4600 666.0000 1.0000
35.4700 677.0000 1.0000
35.4800 687.0000 1.0000
35.4900 704.0000 1.0000
35.5000 758.0000 1.0000
35.5100 764.0000 1.0000
35.5200 773.0000 1.0000
35.5300 809.0000 1.0000
35.5400 877.0000 1.0000
35.5500 860.0000 1.0000
35.5600 865.0000 1.0000
35.5700 887.0000 1.0000
35.5800 905.0000 1.0000
35.5900 907.0000 1.0000
35.6000 886.0000 1.0000
35.6100 887.0000 1.0000
35.6200 853.0000 1.0000
35.6300 844.0000 1.0000
35.6400 830.0000 1.0000
35.6500 793.0000 1.0000
35.6600 794.0000 1.0000
35.6700 748.0000 1.0000
35.6800 714.0000 1.0000
35.6900 772.0000 1.0000
35.7000 683.0000 1.0000
35.7100 663.0000 1.0000
35.7200 656.0000 1.0000
35.7300 602.0000 1.0000
35.7400 593.0000 1.0000
35.7500 579.0000 1.0000
35.7600 591.0000 1.0000
35.7700 572.0000 1.0000
35.7800 592.0000 1.0000
35.7900 556.0000 1.0000
35.8000 557.0000 1.0000
35.8100 552.0000 1.0000
35.8200 516.0000 1.0000
35.8300 492.0000 1.0000
35.8400 503.0000 1.0000
35.8500 506.0000 1.0000
35.8600 491.0000 1.0000
35.8700 483.0000 1.0000
35.8800 488.0000 1.0000
35.8900 486.0000 1.0000
35.9000 460.0000 1.0000
35.9100 492.0000 1.0000
35.9200 481.0000 1.0000
35.9300 466.0000 1.0000
35.9400 461.0000 1.0000
35.9500 481.0000 1.0000
35.9600 479.0000 1.0000
35.9700 477.0000 1.0000
35.9800 456.0000 1.0000
35.9900 445.0000 1.0000
36.0000 447.0000 1.0000
36.0100 494.0000 1.0000
36.0200 482.0000 1.0000
36.0300 469.0000 1.0000
36.0400 465.0000 1.0000
36.0500 473.0000 1.0000
36.0600 494.0000 1.0000
36.0700 471.0000 1.0000
36.0800 467.0000 1.0000
36.0900 476.0000 1.0000
36.1000 476.0000 1.0000
36.1100 478.0000 1.0000
36.1200 446.0000 1.0000
36.1300 461.0000 1.0000
36.1400 490.0000 1.0000
36.1500 440.0000 1.0000
36.1600 436.0000 1.0000
36.1700 469.0000 1.0000
36.1800 470.0000 1.0000
36.1900 473.0000 1.0000
36.2000 458.0000 1.0000
36.2100 456.0000 1.0000
36.2200 471.0000 1.0000
36.2300 471.0000 1.0000
36.2400 479.0000 1.0000
36.2500 446.0000 1.0000
36.2600 476.0000 1.0000
36.2700 482.0000 1.0000
36.2800 474.0000 1.0000
36.2900 498.0000 1.0000
36.3000 480.0000 1.0000
36.3100 467.0000 1.0000
36.3200 465.0000 1.0000
36.3300 430.0000 1.0000
36.3400 426.0000 1.0000
36.3500 470.0000 1.0000
36.3600 491.0000 1.0000
36.3700 450.0000 1.0000
36.3800 472.0000 1.0000
36.3900 451.0000 1.0000
36.4000 510.0000 1.0000
36.4100 508.0000 1.0000
36.4200 470.0000 1.0000
36.4300 486.0000 1.0000
36.4400 452.0000 1.0000
36.4500 466.0000 1.0000
36.4600 456.0000 1.0000
36.4700 442.0000 1.0000
36.4800 465.0000 1.0000
36.4900 435.0000 1.0000
36.5000 461.0000 1.0000
36.5100 480.0000 1.0000
36.5200 455.0000 1.0000
36.5300 455.0000 1.0000
36.5400 484.0000 1.0000
36.5500 452.0000 1.0000
36.5600 465.0000 1.0000
36.5700 453.0000 1.0000
36.5800 463.0000 1.0000
36.5900 450.0000 1.0000
36.6000 485.0000 1.0000
36.6100 456.0000 1.0000
36.6200 445.0000 1.0000
36.6300 455.0000 1.0000
36.6400 441.0000 1.0000
36.6500 446.0000 1.0000
36.6600 456.0000 1.0000
36.6700 448.0000 1.0000
36.6800 427.0000 1.0000
36.6900 449.0000 1.0000
36.7000 470.0000 1.0000
36.7100 475.0000 1.0000
36.7200 453.0000 1.0000
36.7300 483.0000 1.0000
36.7400 456.0000 1.0000
36.7500 466.0000 1.0000
36.7600 481.0000 1.0000
36.7700 436.0000 1.0000
36.7800 447.0000 1.0000
36.7900 430.0000 1.0000
36.8000 476.0000 1.0000
36.8100 459.0000 1.0000
36.8200 469.0000 1.0000
36.8300 479.0000 1.0000
36.8400 432.0000 1.0000
36.8500 462.0000 1.0000
36.8600 467.0000 1.0000
36.8700 438.0000 1.0000
36.8800 451.0000 1.0000
36.8900 455.0000 1.0000
36.9000 448.0000 1.0000
36.9100 475.0000 1.0000
36.9200 468.0000 1.0000
36.9300 475.0000 1.0000
36.9400 483.0000 1.0000
36.9500 497.0000 1.0000
36.9600 455.0000 1.0000
36.9700 459.0000 1.0000
36.9800 463.0000 1.0000
36.9900 450.0000 1.0000
37.0000 407.0000 1.0000
37.0100 453.0000 1.0000
37.0200 458.0000 1.0000
37.0300 432.0000 1.0000
37.0400 444.0000 1.0000
37.0500 470.0000 1.0000
37.0600 454.0000 1.0000
37.0700 440.0000 1.0000
37.0800 452.0000 1.0000
37.0900 473.0000 1.0000
37.1000 449.0000 1.0000
37.1100 443.0000 1.0000
37.1200 456.0000 1.0000
37.1300 479.0000 1.0000
37.1400 485.0000 1.0000
37.1500 441.0000 1.0000
37.1600 455.0000 1.0000
37.1700 534.0000 1.0000
37.1800 462.0000 1.0000
37.1900 480.0000 1.0000
37.2000 502.0000 1.0000
37.2100 460.0000 1.0000
37.2200 477.0000 1.0000
37.2300 471.0000 1.0000
37.2400 484.0000 1.0000
37.2500 462.0000 1.0000
37.2600 474.0000 1.0000
37.2700 458.0000 1.0000
37.2800 494.0000 1.0000
37.2900 503.0000 1.0000
37.3000 494.0000 1.0000
37.3100 507.0000 1.0000
37.3200 504.0000 1.0000
37.3300 484.0000 1.0000
37.3400 521.0000 1.0000
37.3500 536.0000 1.0000
37.3600 532.0000 1.0000
37.3700 570.0000 1.0000
37.3800 567.0000 1.0000
37.3900 588.0000 1.0000
37.4000 638.0000 1.0000
37.4100 637.0000 1.0000
37.4200 630.0000 1.0000
37.4300 615.0000 1.0000
37.4400 654.0000 1.0000
37.4500 667.0000 1.0000
37.4600 692.0000 1.0000
37.4700 722.0000 1.0000
37.4800 736.0000 1.0000
37.4900 766.0000 1.0000
37.5000 782.0000 1.0000
37.5100 890.0000 1.0000
37.5200 894.0000 1.0000
37.5300 929.0000 1.0000
37.5400 952.0000 1.0000
37.5500 1026.0000 1.0000
37.5600 1124.0000 1.0000
37.5700 1134.0000 1.0000
37.5800 1178.0000 1.0000
37.5900 1242.0000 1.0000
37.6000 1377.0000 1.0000
37.6100 1463.0000 1.0000
37.6200 1560.0000 1.0000
37.6300 1613.0000 1.0000
37.6400 1751.0000 1.0000
37.6500 1864.0000 1.0000
37.6600 1955.0000 1.0000
37.6700 1973.0000 1.0000
37.6800 2084.0000 1.0000
37.6900 2124.0000 1.0000
37.7000 2212.0000 1.0000
37.7100 2167.0000 1.0000
37.7200 2166.0000 1.0000
37.7300 2199.0000 1.0000
37.7400 2225.0000 1.0000
37.7500 2176.0000 1.0000
37.7600 2163.0000 1.0000
37.7700 2046.0000 1.0000
37.7800 2024.0000 1.0000
37.7900 2005.0000 1.0000
37.8000 1900.0000 1.0000
37.8100 1735.0000 1.0000
37.8200 1710.0000 1.0000
37.8300 1586.0000 1.0000
37.8400 1557.0000 1.0000
37.8500 1517.0000 1.0000
37.8600 1393.0000 1.0000
37.8700 1263.0000 1.0000
37.8800 1230.0000 1.0000
37.8900 1208.0000 1.0000
37.9000 1028.0000 1.0000
37.9100 1034.0000 1.0000
37.9200 968.0000 1.0000
37.9300 872.0000 1.0000
37.9400 898.0000 1.0000
37.9500 847.0000 1.0000
37.9600 826.0000 1.0000
37.9700 767.0000 1.0000
37.9800 728.0000 1.0000
37.9900 688.0000 1.0000
38.0000 698.0000 1.0000
38.0100 625.0000 1.0000
38.0200 649.0000 1.0000
38.0300 578.0000 1.0000
38.0400 584.0000 1.0000
38.0500 575.0000 1.0000
38.0600 563.0000 1.0000
38.0700 587.0000 1.0000
38.0800 545.0000 1.0000
38.0900 542.0000 1.0000
38.1000 519.0000 1.0000
38.1100 508.0000 1.0000
38.1200 502.0000 1.0000
38.1300 509.0000 1.0000
38.1400 505.0000 1.0000
38.1500 480.0000 1.0000
38.1600 462.0000 1.0000
38.1700 472.0000 1.0000
38.1800 490.0000 1.0000
38.1900 498.0000 1.0000
38.2000 459.0000 1.0000
38.2100 451.0000 1.0000
38.2200 440.0000 1.0000
38.2300 450.0000 1.0000
38.2400 465.0000 1.0000
38.2500 440.0000 1.0000
38.2600 458.0000 1.0000
38.2700 455.0000 1.0000
38.2800 437.0000 1.0000
38.2900 433.0000 1.0000
38.3000 423.0000 1.0000
38.3100 458.0000 1.0000
38.3200 420.0000 1.0000
38.3300 460.0000 1.0000
38.3400 430.0000 1.0000
38.3500 436.0000 1.0000
38.3600 422.0000 1.0000
38.3700 417.0000 1.0000
38.3800 430.0000 1.0000
38.3900 413.0000 1.0000
38.4000 451.0000 1.0000
38.4100 473.0000 1.0000
38.4200 423.0000 1.0000
38.4300 444.0000 1.0000
38.4400 457.0000 1.0000
38.4500 418.0000 1.0000
38.4600 394.0000 1.0000
38.4700 423.0000 1.0000
38.4800 398.0000 1.0000
38.4900 424.0000 1.0000
38.5000 406.0000 1.0000
38.5100 426.0000 1.0000
38.5200 436.0000 1.0000
38.5300 421.0000 1.0000
38.5400 424.0000 1.0000
38.5500 404.0000 1.0000
38.5600 434.0000 1.0000
38.5700 410.0000 1.0000
38.5800 449.0000 1.0000
38.5900 424.0000 1.0000
38.6000 440.0000 1.0000
38.6100 427.0000 1.0000
38.6200 430.0000 1.0000
38.6300 434.0000 1.0000
38.6400 455.0000 1.0000
38.6500 399.0000 1.0000
38.6600 429.0000 1.0000
38.6700 414.0000 1.0000
38.6800 400.0000 1.0000
38.6900 456.0000 1.0000
38.7000 449.0000 1.0000
38.7100 444.0000 1.0000
38.7200 438.0000 1.0000
38.7300 446.0000 1.0000
38.7400 410.0000 1.0000
38.7500 455.0000 1.0000
38.7600 441.0000 1.0000
38.7700 426.0000 1.0000
38.7800 427.0000 1.0000
38.7900 462.0000 1.0000
38.8000 472.0000 1.0000
38.8100 446.0000 1.0000
38.8200 453.0000 1.0000
38.8300 437.0000 1.0000
38.8400 433.0000 1.0000
38.8500 426.0000 1.0000
38.8600 425.0000 1.0000
38.8700 431.0000 1.0000
38.8800 424.0000 1.0000
38.8900 431.0000 1.0000
38.9000 412.0000 1.0000
38.9100 444.0000 1.0000
38.9200 447.0000 1.0000
38.9300 431.0000 1.0000
38.9400 418.0000 1.0000
38.9500 426.0000 1.0000
38.9600 393.0000 1.0000
38.9700 409.0000 1.0000
38.9800 419.0000 1.0000
38.9900 429.0000 1.0000
39.0000 424.0000 1.0000
39.0100 399.0000 1.0000
39.0200 394.0000 1.0000
39.0300 408.0000 1.0000
39.0400 432.0000 1.0000
39.0500 404.0000 1.0000
39.0600 414.0000 1.0000
39.0700 408.0000 1.0000
39.0800 416.0000 1.0000
39.0900 419.0000 1.0000
39.1000 427.0000 1.0000
39.1100 417.0000 1.0000
39.1200 409.0000 1.0000
39.1300 405.0000 1.0000
39.1400 399.0000 1.0000
39.1500 391.0000 1.0000
39.1600 397.0000 1.0000
39.1700 422.0000 1.0000
39.1800 409.0000 1.0000
39.1900 407.0000 1.0000
39.2000 414.0000 1.0000
39.2100 434.0000 1.0000
39.2200 429.0000 1.0000
39.2300 395.0000 1.0000
39.2400 369.0000 1.0000
39.2500 392.0000 1.0000
39.2600 379.0000 1.0000
39.2700 411.0000 1.0000
39.2800 392.0000 1.0000
39.2900 412.0000 1.0000
39.3000 366.0000 1.0000
39.3100 377.0000 1.0000
39.3200 414.0000 1.0000
39.3300 427.0000 1.0000
39.3400 401.0000 1.0000
39.3500 384.0000 1.0000
39.3600 404.0000 1.0000
39.3700 415.0000 1.0000
39.3800 389.0000 1.0000
39.3900 399.0000 1.0000
39.4000 375.0000 1.0000
39.4100 395.0000 1.0000
39.4200 380.0000 1.0000
39.4300 361.0000 1.0000
39.4400 402.0000 1.0000
39.4500 395.0000 1.0000
39.4600 397.0000 1.0000
39.4700 365.0000 1.0000
39.4800 386.0000 1.0000
39.4900 371.0000 1.0000
39.5000 389.0000 1.0000
39.5100 383.0000 1.0000
39.5200 398.0000 1.0000
39.5300 394.0000 1.0000
39.5400 407.0000 1.0000
39.5500 407.0000 1.0000
39.5600 387.0000 1.0000
39.5700 391.0000 1.0000
39.5800 381.0000 1.0000
39.5900 398.0000 1.0000
39.6000 392.0000 1.0000
39.6100 373.0000 1.0000
39.6200 378.0000 1.0000
39.6300 402.0000 1.0000
39.6400 402.0000 1.0000
39.6500 382.0000 1.0000
39.6600 403.0000 1.0000
39.6700 373.0000 1.0000
39.6800 363.0000 1.0000
39.6900 369.0000 1.0000
39.7000 396.0000 1.0000
39.7100 393.0000 1.0000
39.7200 387.0000 1.0000
39.7300 386.0000 1.0000
39.7400 411.0000 1.0000
39.7500 398.0000 1.0000
39.7600 379.0000 1.0000
39.7700 391.0000 1.0000
39.7800 424.0000 1.0000
39.7900 426.0000 1.0000
39.8000 377.0000 1.0000
39.8100 371.0000 1.0000
39.8200 380.0000 1.0000
39.8300 385.0000 1.0000
39.8400 397.0000 1.0000
39.8500 414.0000 1.0000
39.8600 401.0000 1.0000
39.8700 396.0000 1.0000
39.8800 407.0000 1.0000
39.8900 400.0000 1.0000
39.9000 398.0000 1.0000
39.9100 394.0000 1.0000
39.9200 355.0000 1.0000
39.9300 356.0000 1.0000
39.9400 389.0000 1.0000
39.9500 376.0000 1.0000
39.9600 388.0000 1.0000
39.9700 376.0000 1.0000
39.9800 372.0000 1.0000
39.9900 360.0000 1.0000
40.0000 348.0000 1.0000
40.0100 375.0000 1.0000
40.0200 377.0000 1.0000
40.0300 378.0000 1.0000
40.0400 380.0000 1.0000
40.0500 376.0000 1.0000
40.0600 345.0000 1.0000
40.0700 348.0000 1.0000
40.0800 386.0000 1.0000
40.0900 385.0000 1.0000
40.1000 400.0000 1.0000
40.1100 382.0000 1.0000
40.1200 370.0000 1.0000
40.1300 360.0000 1.0000
40.1400 386.0000 1.0000
40.1500 412.0000 1.0000
40.1600 390.0000 1.0000
40.1700 408.0000 1.0000
40.1800 351.0000 1.0000
40.1900 362.0000 1.0000
40.2000 390.0000 1.0000
40.2100 423.0000 1.0000
40.2200 350.0000 1.0000
40.2300 377.0000 1.0000
40.2400 363.0000 1.0000
40.2500 396.0000 1.0000
40.2600 399.0000 1.0000
40.2700 380.0000 1.0000
40.2800 401.0000 1.0000
40.2900 382.0000 1.0000
40.3000 351.0000 1.0000
40.3100 371.0000 1.0000
40.3200 391.0000 1.0000
40.3300 395.0000 1.0000
40.3400 378.0000 1.0000
40.3500 387.0000 1.0000
40.3600 368.0000 1.0000
40.3700 384.0000 1.0000
40.3800 382.0000 1.0000
40.3900 404.0000 1.0000
40.4000 388.0000 1.0000
40.4100 401.0000 1.0000
40.4200 379.0000 1.0000
40.4300 388.0000 1.0000
40.4400 412.0000 1.0000
40.4500 410.0000 1.0000
40.4600 383.0000 1.0000
40.4700 378.0000 1.0000
40.4800 411.0000 1.0000
40.4900 386.0000 1.0000
40.5000 412.0000 1.0000
40.5100 374.0000 1.0000
40.5200 406.0000 1.0000
40.5300 353.0000 1.0000
40.5400 340.0000 1.0000
40.5500 370.0000 1.0000
40.5600 367.0000 1.0000
40.5700 372.0000 1.0000
40.5800 367.0000 1.0000
40.5900 369.0000 1.0000
40.6000 378.0000 1.0000
40.6100 398.0000 1.0000
40.6200 384.0000 1.0000
40.6300 370.0000 1.0000
40.6400 373.0000 1.0000
40.6500 417.0000 1.0000
40.6600 359.0000 1.0000
40.6700 400.0000 1.0000
40.6800 395.0000 1.0000
40.6900 367.0000 1.0000
40.7000 383.0000 1.0000
40.7100 402.0000 1.0000
40.7200 392.0000 1.0000
40.7300 361.0000 1.0000
40.7400 344.0000 1.0000
40.7500 396.0000 1.0000
40.7600 401.0000 1.0000
40.7700 391.0000 1.0000
40.7800 397.0000 1.0000
40.7900 404.0000 1.0000
40.8000 410.0000 1.0000
40.8100 398.0000 1.0000
40.8200 386.0000 1.0000
40.8300 426.0000 1.0000
40.8400 423.0000 1.0000
40.8500 383.0000 1.0000
40.8600 408.0000 1.0000
40.8700 386.0000 1.0000
40.8800 456.0000 1.0000
40.8900 378.0000 1.0000
40.9000 407.0000 1.0000
40.9100 398.0000 1.0000
40.9200 409.0000 1.0000
40.9300 404.0000 1.0000
40.9400 374.0000 1.0000
40.9500 402.0000 1.0000
40.9600 368.0000 1.0000
40.9700 380.0000 1.0000
40.9800 394.0000 1.0000
40.9900 385.0000 1.0000
41.0000 372.0000 1.0000
41.0100 389.0000 1.0000
41.0200 387.0000 1.0000
41.0300 402.0000 1.0000
41.0400 379.0000 1.0000
41.0500 383.0000 1.0000
41.0600 377.0000 1.0000
41.0700 341.0000 1.0000
41.0800 366.0000 1.0000
41.0900 380.0000 1.0000
41.1000 389.0000 1.0000
41.1100 372.0000 1.0000
41.1200 378.0000 1.0000
41.1300 373.0000 1.0000
41.1400 355.0000 1.0000
41.1500 400.0000 1.0000
41.1600 358.0000 1.0000
41.1700 388.0000 1.0000
41.1800 372.0000 1.0000
41.1900 350.0000 1.0000
41.2000 377.0000 1.0000
41.2100 376.0000 1.0000
41.2200 359.0000 1.0000
41.2300 389.0000 1.0000
41.2400 361.0000 1.0000
41.2500 370.0000 1.0000
41.2600 371.0000 1.0000
41.2700 379.0000 1.0000
41.2800 413.0000 1.0000
41.2900 400.0000 1.0000
41.3000 379.0000 1.0000
41.3100 356.0000 1.0000
41.3200 372.0000 1.0000
41.3300 403.0000 1.0000
41.3400 369.0000 1.0000
41.3500 359.0000 1.0000
41.3600 379.0000 1.0000
41.3700 390.0000 1.0000
41.3800 409.0000 1.0000
41.3900 372.0000 1.0000
41.4000 354.0000 1.0000
41.4100 341.0000 1.0000
41.4200 375.0000 1.0000
41.4300 378.0000 1.0000
41.4400 390.0000 1.0000
41.4500 376.0000 1.0000
41.4600 374.0000 1.0000
41.4700 367.0000 1.0000
41.4800 372.0000 1.0000
41.4900 369.0000 1.0000
41.5000 404.0000 1.0000
41.5100 366.0000 1.0000
41.5200 377.0000 1.0000
41.5300 350.0000 1.0000
41.5400 352.0000 1.0000
41.5500 349.0000 1.0000
41.5600 364.0000 1.0000
41.5700 356.0000 1.0000
41.5800 358.0000 1.0000
41.5900 352.0000 1.0000
41.6000 336.0000 1.0000
41.6100 340.0000 1.0000
41.6200 370.0000 1.0000
41.6300 367.0000 1.0000
41.6400 352.0000 1.0000
41.6500 337.0000 1.0000
41.6600 341.0000 1.0000
41.6700 384.0000 1.0000
41.6800 376.0000 1.0000
41.6900 366.0000 1.0000
41.7000 358.0000 1.0000
41.7100 366.0000 1.0000
41.7200 347.0000 1.0000
41.7300 344.0000 1.0000
41.7400 344.0000 1.0000
41.7500 384.0000 1.0000
41.7600 374.0000 1.0000
41.7700 395.0000 1.0000
41.7800 378.0000 1.0000
41.7900 390.0000 1.0000
41.8000 395.0000 1.0000
41.8100 356.0000 1.0000
41.8200 363.0000 1.0000
41.8300 383.0000 1.0000
41.8400 350.0000 1.0000
41.8500 344.0000 1.0000
41.8600 386.0000 1.0000
41.8700 370.0000 1.0000
41.8800 366.0000 1.0000
41.8900 400.0000 1.0000
41.9000 376.0000 1.0000
41.9100 347.0000 1.0000
41.9200 402.0000 1.0000
41.9300 422.0000 1.0000
41.9400 386.0000 1.0000
41.9500 360.0000 1.0000
41.9600 379.0000 1.0000
41.9700 359.0000 1.0000
41.9800 398.0000 1.0000
41.9900 354.0000 1.0000
42.0000 371.0000 1.0000
42.0100 375.0000 1.0000
42.0200 357.0000 1.0000
42.0300 356.0000 1.0000
42.0400 350.0000 1.0000
42.0500 344.0000 1.0000
42.0600 399.0000 1.0000
42.0700 359.0000 1.0000
42.0800 353.0000 1.0000
42.0900 378.0000 1.0000
42.1000 351.0000 1.0000
42.1100 375.0000 1.0000
42.1200 382.0000 1.0000
42.1300 351.0000 1.0000
42.1400 361.0000 1.0000
42.1500 384.0000 1.0000
42.1600 341.0000 1.0000
42.1700 393.0000 1.0000
42.1800 374.0000 1.0000
42.1900 375.0000 1.0000
42.2000 370.0000 1.0000
42.2100 407.0000 1.0000
42.2200 393.0000 1.0000
42.2300 417.0000 1.0000
42.2400 398.0000 1.0000
42.2500 403.0000 1.0000
42.2600 335.0000 1.0000
42.2700 347.0000 1.0000
42.2800 363.0000 1.0000
42.2900 403.0000 1.0000
42.3000 389.0000 1.0000
42.3100 414.0000 1.0000
42.3200 402.0000 1.0000
42.3300 381.0000 1.0000
42.3400 370.0000 1.0000
42.3500 355.0000 1.0000
42.3600 378.0000 1.0000
42.3700 378.0000 1.0000
42.3800 402.0000 1.0000
42.3900 399.0000 1.0000
42.4000 400.0000 1.0000
42.4100 403.0000 1.0000
42.4200 440.0000 1.0000
42.4300 423.0000 1.0000
42.4400 417.0000 1.0000
42.4500 371.0000 1.0000
42.4600 393.0000 1.0000
42.4700 410.0000 1.0000
42.4800 393.0000 1.0000
42.4900 401.0000 1.0000
42.5000 399.0000 1.0000
42.5100 385.0000 1.0000
42.5200 392.0000 1.0000
42.5300 403.0000 1.0000
42.5400 406.0000 1.0000
42.5500 360.0000 1.0000
42.5600 403.0000 1.0000
42.5700 384.0000 1.0000
42.5800 386.0000 1.0000
42.5900 379.0000 1.0000
42.6000 396.0000 1.0000
42.6100 376.0000 1.0000
42.6200 391.0000 1.0000
42.6300 384.0000 1.0000
42.6400 387.0000 1.0000
42.6500 384.0000 1.0000
42.6600 362.0000 1.0000
42.6700 344.0000 1.0000
42.6800 372.0000 1.0000
42.6900 403.0000 1.0000
42.7000 336.0000 1.0000
42.7100 367.0000 1.0000
42.7200 339.0000 1.0000
42.7300 360.0000 1.0000
42.7400 329.0000 1.0000
42.7500 354.0000 1.0000
42.7600 321.0000 1.0000
42.7700 373.0000 1.0000
42.7800 351.0000 1.0000
42.7900 354.0000 1.0000
42.8000 337.0000 1.0000
42.8100 367.0000 1.0000
42.8200 379.0000 1.0000
42.8300 385.0000 1.0000
42.8400 351.0000 1.0000
42.8500 370.0000 1.0000
42.8600 370.0000 1.0000
42.8700 360.0000 1.0000
42.8800 364.0000 1.0000
42.8900 368.0000 1.0000
42.9000 346.0000 1.0000
42.9100 358.0000 1.0000
42.9200 333.0000 1.0000
42.9300 352.0000 1.0000
42.9400 367.0000 1.0000
42.9500 391.0000 1.0000
42.9600 357.0000 1.0000
42.9700 371.0000 1.0000
42.9800 352.0000 1.0000
42.9900 356.0000 1.0000
43.0000 325.0000 1.0000
43.0100 303.0000 1.0000
43.0200 374.0000 1.0000
43.0300 379.0000 1.0000
43.0400 393.0000 1.0000
43.0500 362.0000 1.0000
43.0600 385.0000 1.0000
43.0700 381.0000 1.0000
43.0800 368.0000 1.0000
43.0900 372.0000 1.0000
43.1000 347.0000 1.0000
43.1100 348.0000 1.0000
43.1200 353.0000 1.0000
43.1300 338.0000 1.0000
43.1400 349.0000 1.0000
43.1500 340.0000 1.0000
43.1600 360.0000 1.0000
43.1700 361.0000 1.0000
43.1800 379.0000 1.0000
43.1900 355.0000 1.0000
43.2000 368.0000 1.0000
43.2100 354.0000 1.0000
43.2200 322.0000 1.0000
43.2300 364.0000 1.0000
43.2400 364.0000 1.0000
43.2500 349.0000 1.0000
43.2600 366.0000 1.0000
43.2700 342.0000 1.0000
43.2800 371.0000 1.0000
43.2900 360.0000 1.0000
43.3000 340.0000 1.0000
43.3100 309.0000 1.0000
43.3200 342.0000 1.0000
43.3300 337.0000 1.0000
43.3400 333.0000 1.0000
43.3500 339.0000 1.0000
43.3600 337.0000 1.0000
43.3700 381.0000 1.0000
43.3800 334.0000 1.0000
43.3900 369.0000 1.0000
43.4000 364.0000 1.0000
43.4100 347.0000 1.0000
43.4200 358.0000 1.0000
43.4300 369.0000 1.0000
43.4400 385.0000 1.0000
43.4500 372.0000 1.0000
43.4600 383.0000 1.0000
43.4700 357.0000 1.0000
43.4800 346.0000 1.0000
43.4900 365.0000 1.0000
43.5000 384.0000 1.0000
43.5100 372.0000 1.0000
43.5200 351.0000 1.0000
43.5300 382.0000 1.0000
43.5400 346.0000 1.0000
43.5500 342.0000 1.0000
43.5600 359.0000 1.0000
43.5700 354.0000 1.0000
43.5800 367.0000 1.0000
43.5900 393.0000 1.0000
43.6000 387.0000 1.0000
43.6100 363.0000 1.0000
43.6200 393.0000 1.0000
43.6300 336.0000 1.0000
43.6400 372.0000 1.0000
43.6500 374.0000 1.0000
43.6600 375.0000 1.0000
43.6700 359.0000 1.0000
43.6800 322.0000 1.0000
43.6900 369.0000 1.0000
43.7000 368.0000 1.0000
43.7100 371.0000 1.0000
43.7200 373.0000 1.0000
43.7300 366.0000 1.0000
43.7400 364.0000 1.0000
43.7500 366.0000 1.0000
43.7600 335.0000 1.0000
43.7700 358.0000 1.0000
43.7800 363.0000 1.0000
43.7900 352.0000 1.0000
43.8000 363.0000 1.0000
43.8100 369.0000 1.0000
43.8200 372.0000 1.0000
43.8300 345.0000 1.0000
43.8400 295.0000 1.0000
43.8500 354.0000 1.0000
43.8600 385.0000 1.0000
43.8700 353.0000 1.0000
43.8800 334.0000 1.0000
43.8900 364.0000 1.0000
43.9000 326.0000 1.0000
43.9100 359.0000 1.0000
43.9200 338.0000 1.0000
43.9300 315.0000 1.0000
43.9400 363.0000 1.0000
43.9500 327.0000 1.0000
43.9600 322.0000 1.0000
43.9700 357.0000 1.0000
43.9800 338.0000 1.0000
43.9900 355.0000 1.0000
44.0000 369.0000 1.0000
44.0100 360.0000 1.0000
44.0200 345.0000 1.0000
44.0300 382.0000 1.0000
44.0400 352.0000 1.0000
44.0500 343.0000 1.0000
44.0600 333.0000 1.0000
44.0700 322.0000 1.0000
44.0800 360.0000 1.0000
44.0900 340.0000 1.0000
44.1000 362.0000 1.0000
44.1100 318.0000 1.0000
44.1200 345.0000 1.0000
44.1300 350.0000 1.0000
44.1400 358.0000 1.0000
44.1500 331.0000 1.0000
44.1600 364.0000 1.0000
44.1700 340.0000 1.0000
44.1800 342.0000 1.0000
44.1900 351.0000 1.0000
44.2000 353.0000 1.0000
44.2100 356.0000 1.0000
44.2200 345.0000 1.0000
44.2300 368.0000 1.0000
44.2400 351.0000 1.0000
44.2500 374.0000 1.0000
44.2600 355.0000 1.0000
44.2700 367.0000 1.0000
44.2800 350.0000 1.0000
44.2900 293.0000 1.0000
44.3000 362.0000 1.0000
44.3100 320.0000 1.0000
44.3200 340.0000 1.0000
44.3300 390.0000 1.0000
44.3400 358.0000 1.0000
44.3500 345.0000 1.0000
44.3600 338.0000 1.0000
44.3700 372.0000 1.0000
44.3800 352.0000 1.0000
44.3900 337.0000 1.0000
44.4000 357.0000 1.0000
44.4100 329.0000 1.0000
44.4200 339.0000 1.0000
44.4300 320.0000 1.0000
44.4400 341.0000 1.0000
44.4500 309.0000 1.0000
44.4600 319.0000 1.0000
44.4700 334.0000 1.0000
44.4800 354.0000 1.0000
44.4900 337.0000 1.0000
44.5000 331.0000 1.0000
44.5100 315.0000 1.0000
44.5200 347.0000 1.0000
44.5300 330.0000 1.0000
44.5400 328.0000 1.0000
44.5500 351.0000 1.0000
44.5600 354.0000 1.0000
44.5700 328.0000 1.0000
44.5800 336.0000 1.0000
44.5900 317.0000 1.0000
44.6000 320.0000 1.0000
44.6100 360.0000 1.0000
44.6200 335.0000 1.0000
44.6300 362.0000 1.0000
44.6400 342.0000 1.0000
44.6500 337.0000 1.0000
44.6600 327.0000 1.0000
44.6700 307.0000 1.0000
44.6800 310.0000 1.0000
44.6900 339.0000 1.0000
44.7000 346.0000 1.0000
44.7100 321.0000 1.0000
44.7200 328.0000 1.0000
44.7300 335.0000 1.0000
44.7400 359.0000 1.0000
44.7500 321.0000 1.0000
44.7600 336.0000 1.0000
44.7700 343.0000 1.0000
44.7800 335.0000 1.0000
44.7900 338.0000 1.0000
44.8000 378.0000 1.0000
44.8100 350.0000 1.0000
44.8200 369.0000 1.0000
44.8300 364.0000 1.0000
44.8400 327.0000 1.0000
44.8500 335.0000 1.0000
44.8600 342.0000 1.0000
44.8700 358.0000 1.0000
44.8800 335.0000 1.0000
44.8900 331.0000 1.0000
44.9000 321.0000 1.0000
44.9100 336.0000 1.0000
44.9200 343.0000 1.0000
44.9300 348.0000 1.0000
44.9400 343.0000 1.0000
44.9500 328.0000 1.0000
44.9600 351.0000 1.0000
44.9700 368.0000 1.0000
44.9800 370.0000 1.0000
44.9900 336.0000 1.0000
45.0000 388.0000 1.0000
45.0100 327.0000 1.0000
45.0200 320.0000 1.0000
45.0300 333.0000 1.0000
45.0400 339.0000 1.0000
45.0500 347.0000 1.0000
45.0600 352.0000 1.0000
45.0700 363.0000 1.0000
45.0800 361.0000 1.0000
45.0900 336.0000 1.0000
45.1000 324.0000 1.0000
45.1100 342.0000 1.0000
45.1200 346.0000 1.0000
45.1300 350.0000 1.0000
45.1400 322.0000 1.0000
45.1500 337.0000 1.0000
45.1600 362.0000 1.0000
45.1700 361.0000 1.0000
45.1800 343.0000 1.0000
45.1900 366.0000 1.0000
45.2000 350.0000 1.0000
45.2100 355.0000 1.0000
45.2200 328.0000 1.0000
45.2300 354.0000 1.0000
45.2400 363.0000 1.0000
45.2500 357.0000 1.0000
45.2600 321.0000 1.0000
45.2700 344.0000 1.0000
45.2800 329.0000 1.0000
45.2900 333.0000 1.0000
45.3000 317.0000 1.0000
45.3100 388.0000 1.0000
45.3200 351.0000 1.0000
45.3300 316.0000 1.0000
45.3400 306.0000 1.0000
45.3500 330.0000 1.0000
45.3600 347.0000 1.0000
45.3700 327.0000 1.0000
45.3800 323.0000 1.0000
45.3900 315.0000 1.0000
45.4000 331.0000 1.0000
45.4100 338.0000 1.0000
45.4200 327.0000 1.0000
45.4300 300.0000 1.0000
45.4400 354.0000 1.0000
45.4500 371.0000 1.0000
45.4600 345.0000 1.0000
45.4700 320.0000 1.0000
45.4800 316.0000 1.0000
45.4900 323.0000 1.0000
45.5000 336.0000 1.0000
45.5100 345.0000 1.0000
45.5200 338.0000 1.0000
45.5300 352.0000 1.0000
45.5400 364.0000 1.0000
45.5500 344.0000 1.0000
45.5600 315.0000 1.0000
45.5700 359.0000 1.0000
45.5800 317.0000 1.0000
45.5900 350.0000 1.0000
45.6000 307.0000 1.0000
45.6100 330.0000 1.0000
45.6200 359.0000 1.0000
45.6300 330.0000 1.0000
45.6400 311.0000 1.0000
45.6500 310.0000 1.0000
45.6600 319.0000 1.0000
45.6700 329.0000 1.0000
45.6800 341.0000 1.0000
45.6900 314.0000 1.0000
45.7000 322.0000 1.0000
45.7100 355.0000 1.0000
45.7200 340.0000 1.0000
45.7300 369.0000 1.0000
45.7400 337.0000 1.0000
45.7500 339.0000 1.0000
45.7600 381.0000 1.0000
45.7700 334.0000 1.0000
45.7800 305.0000 1.0000
45.7900 333.0000 1.0000
45.8000 354.0000 1.0000
45.8100 347.0000 1.0000
45.8200 337.0000 1.0000
45.8300 319.0000 1.0000
45.8400 303.0000 1.0000
45.8500 346.0000 1.0000
45.8600 324.0000 1.0000
45.8700 308.0000 1.0000
45.8800 310.0000 1.0000
45.8900 351.0000 1.0000
45.9000 321.0000 1.0000
45.9100 323.0000 1.0000
45.9200 299.0000 1.0000
45.9300 321.0000 1.0000
45.9400 325.0000 1.0000
45.9500 372.0000 1.0000
45.9600 346.0000 1.0000
45.9700 349.0000 1.0000
45.9800 342.0000 1.0000
45.9900 329.0000 1.0000
46.0000 357.0000 1.0000
46.0100 363.0000 1.0000
46.0200 343.0000 1.0000
46.0300 339.0000 1.0000
46.0400 350.0000 1.0000
46.0500 335.0000 1.0000
46.0600 309.0000 1.0000
46.0700 343.0000 1.0000
46.0800 324.0000 1.0000
46.0900 363.0000 1.0000
46.1000 332.0000 1.0000
46.1100 334.0000 1.0000
46.1200 338.0000 1.0000
46.1300 342.0000 1.0000
46.1400 343.0000 1.0000
46.1500 363.0000 1.0000
46.1600 331.0000 1.0000
46.1700 353.0000 1.0000
46.1800 362.0000 1.0000
46.1900 330.0000 1.0000
46.2000 314.0000 1.0000
46.2100 359.0000 1.0000
46.2200 326.0000 1.0000
46.2300 343.0000 1.0000
46.2400 331.0000 1.0000
46.2500 349.0000 1.0000
46.2600 329.0000 1.0000
46.2700 334.0000 1.0000
46.2800 301.0000 1.0000
46.2900 346.0000 1.0000
46.3000 336.0000 1.0000
46.3100 348.0000 1.0000
46.3200 319.0000 1.0000
46.3300 338.0000 1.0000
46.3400 302.0000 1.0000
46.3500 341.0000 1.0000
46.3600 318.0000 1.0000
46.3700 354.0000 1.0000
46.3800 346.0000 1.0000
46.3900 331.0000 1.0000
46.4000 360.0000 1.0000
46.4100 293.0000 1.0000
46.4200 285.0000 1.0000
46.4300 341.0000 1.0000
46.4400 309.0000 1.0000
46.4500 335.0000 1.0000
46.4600 331.0000 1.0000
46.4700 348.0000 1.0000
46.4800 338.0000 1.0000
46.4900 327.0000 1.0000
46.5000 332.0000 1.0000
46.5100 307.0000 1.0000
46.5200 323.0000 1.0000
46.5300 338.0000 1.0000
46.5400 302.0000 1.0000
46.5500 345.0000 1.0000
46.5600 331.0000 1.0000
46.5700 334.0000 1.0000
46.5800 317.0000 1.0000
46.5900 320.0000 1.0000
46.6000 344.0000 1.0000
46.6100 328.0000 1.0000
46.6200 336.0000 1.0000
46.6300 340.0000 1.0000
46.6400 321.0000 1.0000
46.6500 315.0000 1.0000
46.6600 319.0000 1.0000
46.6700 315.0000 1.0000
46.6800 326.0000 1.0000
46.6900 298.0000 1.0000
46.7000 322.0000 1.0000
46.7100 322.0000 1.0000
46.7200 347.0000 1.0000
46.7300 359.0000 1.0000
46.7400 329.0000 1.0000
46.7500 347.0000 1.0000
46.7600 316.0000 1.0000
46.7700 316.0000 1.0000
46.7800 324.0000 1.0000
46.7900 307.0000 1.0000
46.8000 333.0000 1.0000
46.8100 326.0000 1.0000
46.8200 340.0000 1.0000
46.8300 353.0000 1.0000
46.8400 350.0000 1.0000
46.8500 319.0000 1.0000
46.8600 344.0000 1.0000
46.8700 323.0000 1.0000
46.8800 318.0000 1.0000
46.8900 339.0000 1.0000
46.9000 339.0000 1.0000
46.9100 331.0000 1.0000
46.9200 321.0000 1.0000
46.9300 318.0000 1.0000
46.9400 328.0000 1.0000
46.9500 333.0000 1.0000
46.9600 308.0000 1.0000
46.9700 309.0000 1.0000
46.9800 311.0000 1.0000
46.9900 296.0000 1.0000
47.0000 336.0000 1.0000
47.0100 320.0000 1.0000
47.0200 299.0000 1.0000
47.0300 332.0000 1.0000
47.0400 316.0000 1.0000
47.0500 302.0000 1.0000
47.0600 321.0000 1.0000
47.0700 300.0000 1.0000
47.0800 323.0000 1.0000
47.0900 321.0000 1.0000
47.1000 308.0000 1.0000
47.1100 372.0000 1.0000
47.1200 357.0000 1.0000
47.1300 327.0000 1.0000
47.1400 334.0000 1.0000
47.1500 314.0000 1.0000
47.1600 323.0000 1.0000
47.1700 332.0000 1.0000
47.1800 344.0000 1.0000
47.1900 356.0000 1.0000
47.2000 350.0000 1.0000
47.2100 308.0000 1.0000
47.2200 329.0000 1.0000
47.2300 320.0000 1.0000
47.2400 288.0000 1.0000
47.2500 321.0000 1.0000
47.2600 348.0000 1.0000
47.2700 298.0000 1.0000
47.2800 271.0000 1.0000
47.2900 318.0000 1.0000
47.3000 316.0000 1.0000
47.3100 325.0000 1.0000
47.3200 308.0000 1.0000
47.3300 334.0000 1.0000
47.3400 329.0000 1.0000
47.3500 361.0000 1.0000
47.3600 322.0000 1.0000
47.3700 330.0000 1.0000
47.3800 308.0000 1.0000
47.3900 300.0000 1.0000
47.4000 348.0000 1.0000
47.4100 307.0000 1.0000
47.4200 326.0000 1.0000
47.4300 310.0000 1.0000
47.4400 299.0000 1.0000
47.4500 310.0000 1.0000
47.4600 316.0000 1.0000
47.4700 303.0000 1.0000
47.4800 305.0000 1.0000
47.4900 326.0000 1.0000
47.5000 310.0000 1.0000
47.5100 340.0000 1.0000
47.5200 341.0000 1.0000
47.5300 335.0000 1.0000
47.5400 328.0000 1.0000
47.5500 318.0000 1.0000
47.5600 323.0000 1.0000
47.5700 299.0000 1.0000
47.5800 351.0000 1.0000
47.5900 307.0000 1.0000
47.6000 297.0000 1.0000
47.6100 323.0000 1.0000
47.6200 325.0000 1.0000
47.6300 319.0000 1.0000
47.6400 326.0000 1.0000
47.6500 341.0000 1.0000
47.6600 313.0000 1.0000
47.6700 312.0000 1.0000
47.6800 307.0000 1.0000
47.6900 333.0000 1.0000
47.7000 324.0000 1.0000
47.7100 329.0000 1.0000
47.7200 321.0000 1.0000
47.7300 343.0000 1.0000
47.7400 346.0000 1.0000
47.7500 315.0000 1.0000
47.7600 323.0000 1.0000
47.7700 311.0000 1.0000
47.7800 303.0000 1.0000
47.7900 299.0000 1.0000
47.8000 311.0000 1.0000
47.8100 337.0000 1.0000
47.8200 354.0000 1.0000
47.8300 314.0000 1.0000
47.8400 308.0000 1.0000
47.8500 293.0000 1.0000
47.8600 307.0000 1.0000
47.8700 323.0000 1.0000
47.8800 334.0000 1.0000
47.8900 314.0000 1.0000
47.9000 308.0000 1.0000
47.9100 320.0000 1.0000
47.9200 316.0000 1.0000
47.9300 291.0000 1.0000
47.9400 310.0000 1.0000
47.9500 329.0000 1.0000
47.9600 327.0000 1.0000
47.9700 309.0000 1.0000
47.9800 326.0000 1.0000
47.9900 324.0000 1.0000
48.0000 303.0000 1.0000
48.0100 304.0000 1.0000
48.0200 311.0000 1.0000
48.0300 321.0000 1.0000
48.0400 346.0000 1.0000
48.0500 329.0000 1.0000
48.0600 296.0000 1.0000
48.0700 320.0000 1.0000
48.0800 303.0000 1.0000
48.0900 298.0000 1.0000
48.1000 296.0000 1.0000
48.1100 358.0000 1.0000
48.1200 336.0000 1.0000
48.1300 316.0000 1.0000
48.1400 337.0000 1.0000
48.1500 331.0000 1.0000
48.1600 269.0000 1.0000
48.1700 306.0000 1.0000
48.1800 304.0000 1.0000
48.1900 283.0000 1.0000
48.2000 317.0000 1.0000
48.2100 302.0000 1.0000
48.2200 317.0000 1.0000
48.2300 338.0000 1.0000
48.2400 306.0000 1.0000
48.2500 301.0000 1.0000
48.2600 314.0000 1.0000
48.2700 300.0000 1.0000
48.2800 301.0000 1.0000
48.2900 310.0000 1.0000
48.3000 308.0000 1.0000
48.3100 317.0000 1.0000
48.3200 286.0000 1.0000
48.3300 298.0000 1.0000
48.3400 290.0000 1.0000
48.3500 294.0000 1.0000
48.3600 302.0000 1.0000
48.3700 307.0000 1.0000
48.3800 310.0000 1.0000
48.3900 291.0000 1.0000
48.4000 307.0000 1.0000
48.4100 290.0000 1.0000
48.4200 327.0000 1.0000
48.4300 323.0000 1.0000
48.4400 311.0000 1.0000
48.4500 308.0000 1.0000
48.4600 331.0000 1.0000
48.4700 328.0000 1.0000
48.4800 314.0000 1.0000
48.4900 339.0000 1.0000
48.5000 318.0000 1.0000
48.5100 319.0000 1.0000
48.5200 301.0000 1.0000
48.5300 323.0000 1.0000
48.5400 341.0000 1.0000
48.5500 289.0000 1.0000
48.5600 314.0000 1.0000
48.5700 299.0000 1.0000
48.5800 302.0000 1.0000
48.5900 287.0000 1.0000
48.6000 299.0000 1.0000
48.6100 312.0000 1.0000
48.6200 320.0000 1.0000
48.6300 344.0000 1.0000
48.6400 301.0000 1.0000
48.6500 322.0000 1.0000
48.6600 294.0000 1.0000
48.6700 321.0000 1.0000
48.6800 306.0000 1.0000
48.6900 338.0000 1.0000
48.7000 319.0000 1.0000
48.7100 295.0000 1.0000
48.7200 285.0000 1.0000
48.7300 283.0000 1.0000
48.7400 310.0000 1.0000
48.7500 307.0000 1.0000
48.7600 323.0000 1.0000
48.7700 317.0000 1.0000
48.7800 304.0000 1.0000
48.7900 300.0000 1.0000
48.8000 310.0000 1.0000
48.8100 313.0000 1.0000
48.8200 324.0000 1.0000
48.8300 316.0000 1.0000
48.8400 331.0000 1.0000
48.8500 305.0000 1.0000
48.8600 300.0000 1.0000
48.8700 324.0000 1.0000
48.8800 320.0000 1.0000
48.8900 323.0000 1.0000
48.9000 313.0000 1.0000
48.9100 288.0000 1.0000
48.9200 286.0000 1.0000
48.9300 304.0000 1.0000
48.9400 306.0000 1.0000
48.9500 321.0000 1.0000
48.9600 331.0000 1.0000
48.9700 323.0000 1.0000
48.9800 293.0000 1.0000
48.9900 339.0000 1.0000
49.0000 318.0000 1.0000
49.0100 335.0000 1.0000
49.0200 327.0000 1.0000
49.0300 290.0000 1.0000
49.0400 282.0000 1.0000
49.0500 322.0000 1.0000
49.0600 311.0000 1.0000
49.0700 313.0000 1.0000
49.0800 296.0000 1.0000
49.0900 320.0000 1.0000
49.1000 310.0000 1.0000
49.1100 302.0000 1.0000
49.1200 305.0000 1.0000
49.1300 313.0000 1.0000
49.1400 311.0000 1.0000
49.1500 322.0000 1.0000
49.1600 316.0000 1.0000
49.1700 343.0000 1.0000
49.1800 364.0000 1.0000
49.1900 320.0000 1.0000
49.2000 307.0000 1.0000
49.2100 284.0000 1.0000
49.2200 313.0000 1.0000
49.2300 317.0000 1.0000
49.2400 339.0000 1.0000
49.2500 321.0000 1.0000
49.2600 332.0000 1.0000
49.2700 324.0000 1.0000
49.2800 310.0000 1.0000
49.2900 289.0000 1.0000
49.3000 303.0000 1.0000
49.3100 328.0000 1.0000
49.3200 304.0000 1.0000
49.3300 350.0000 1.0000
49.3400 330.0000 1.0000
49.3500 312.0000 1.0000
49.3600 341.0000 1.0000
49.3700 331.0000 1.0000
49.3800 328.0000 1.0000
49.3900 328.0000 1.0000
49.4000 327.0000 1.0000
49.4100 329.0000 1.0000
49.4200 359.0000 1.0000
49.4300 347.0000 1.0000
49.4400 344.0000 1.0000
49.4500 331.0000 1.0000
49.4600 346.0000 1.0000
49.4700 338.0000 1.0000
49.4800 344.0000 1.0000
49.4900 373.0000 1.0000
49.5000 331.0000 1.0000
49.5100 335.0000 1.0000
49.5200 348.0000 1.0000
49.5300 322.0000 1.0000
49.5400 312.0000 1.0000
49.5500 329.0000 1.0000
49.5600 333.0000 1.0000
49.5700 303.0000 1.0000
49.5800 356.0000 1.0000
49.5900 348.0000 1.0000
49.6000 317.0000 1.0000
49.6100 328.0000 1.0000
49.6200 364.0000 1.0000
49.6300 335.0000 1.0000
49.6400 322.0000 1.0000
49.6500 341.0000 1.0000
49.6600 327.0000 1.0000
49.6700 325.0000 1.0000
49.6800 326.0000 1.0000
49.6900 306.0000 1.0000
49.7000 345.0000 1.0000
49.7100 323.0000 1.0000
49.7200 277.0000 1.0000
49.7300 313.0000 1.0000
49.7400 326.0000 1.0000
49.7500 292.0000 1.0000
49.7600 304.0000 1.0000
49.7700 332.0000 1.0000
49.7800 280.0000 1.0000
49.7900 295.0000 1.0000
49.8000 333.0000 1.0000
49.8100 312.0000 1.0000
49.8200 321.0000 1.0000
49.8300 300.0000 1.0000
49.8400 308.0000 1.0000
49.8500 334.0000 1.0000
49.8600 309.0000 1.0000
49.8700 299.0000 1.0000
49.8800 303.0000 1.0000
49.8900 346.0000 1.0000
49.9000 336.0000 1.0000
49.9100 327.0000 1.0000
49.9200 302.0000 1.0000
49.9300 331.0000 1.0000
49.9400 318.0000 1.0000
49.9500 315.0000 1.0000
49.9600 319.0000 1.0000
49.9700 328.0000 1.0000
49.9800 338.0000 1.0000
49.9900 303.0000 1.0000
50.0000 310.0000 1.0000
50.0100 307.0000 1.0000
50.0200 306.0000 1.0000
50.0300 311.0000 1.0000
50.0400 324.0000 1.0000
50.0500 315.0000 1.0000
50.0600 338.0000 1.0000
50.0700 340.0000 1.0000
50.0800 338.0000 1.0000
50.0900 312.0000 1.0000
50.1000 293.0000 1.0000
50.1100 327.0000 1.0000
50.1200 294.0000 1.0000
50.1300 322.0000 1.0000
50.1400 333.0000 1.0000
50.1500 318.0000 1.0000
50.1600 293.0000 1.0000
50.1700 312.0000 1.0000
50.1800 342.0000 1.0000
50.1900 316.0000 1.0000
50.2000 312.0000 1.0000
50.2100 295.0000 1.0000
50.2200 352.0000 1.0000
50.2300 323.0000 1.0000
50.2400 304.0000 1.0000
50.2500 326.0000 1.0000
50.2600 312.0000 1.0000
50.2700 306.0000 1.0000
50.2800 315.0000 1.0000
50.2900 309.0000 1.0000
50.3000 303.0000 1.0000
50.3100 325.0000 1.0000
50.3200 336.0000 1.0000
50.3300 311.0000 1.0000
50.3400 291.0000 1.0000
50.3500 334.0000 1.0000
50.3600 314.0000 1.0000
50.3700 306.0000 1.0000
50.3800 288.0000 1.0000
50.3900 333.0000 1.0000
50.4000 298.0000 1.0000
50.4100 318.0000 1.0000
50.4200 318.0000 1.0000
50.4300 333.0000 1.0000
50.4400 343.0000 1.0000
50.4500 318.0000 1.0000
50.4600 297.0000 1.0000
50.4700 316.0000 1.0000
50.4800 326.0000 1.0000
50.4900 330.0000 1.0000
50.5000 286.0000 1.0000
50.5100 279.0000 1.0000
50.5200 310.0000 1.0000
50.5300 315.0000 1.0000
50.5400 298.0000 1.0000
50.5500 309.0000 1.0000
50.5600 318.0000 1.0000
50.5700 300.0000 1.0000
50.5800 311.0000 1.0000
50.5900 339.0000 1.0000
50.6000 326.0000 1.0000
50.6100 333.0000 1.0000
50.6200 312.0000 1.0000
50.6300 300.0000 1.0000
50.6400 316.0000 1.0000
50.6500 326.0000 1.0000
50.6600 324.0000 1.0000
50.6700 332.0000 1.0000
50.6800 360.0000 1.0000
50.6900 330.0000 1.0000
50.7000 348.0000 1.0000
50.7100 327.0000 1.0000
50.7200 300.0000 1.0000
50.7300 310.0000 1.0000
50.7400 318.0000 1.0000
50.7500 312.0000 1.0000
50.7600 324.0000 1.0000
50.7700 305.0000 1.0000
50.7800 297.0000 1.0000
50.7900 315.0000 1.0000
50.8000 315.0000 1.0000
50.8100 322.0000 1.0000
50.8200 311.0000 1.0000
50.8300 341.0000 1.0000
50.8400 320.0000 1.0000
50.8500 312.0000 1.0000
50.8600 341.0000 1.0000
50.8700 330.0000 1.0000
50.8800 334.0000 1.0000
50.8900 354.0000 1.0000
50.9000 348.0000 1.0000
50.9100 349.0000 1.0000
50.9200 336.0000 1.0000
50.9300 341.0000 1.0000
50.9400 379.0000 1.0000
50.9500 337.0000 1.0000
50.9600 349.0000 1.0000
50.9700 321.0000 1.0000
50.9800 357.0000 1.0000
50.9900 337.0000 1.0000
51.0000 358.0000 1.0000
51.0100 340.0000 1.0000
51.0200 358.0000 1.0000
51.0300 338.0000 1.0000
51.0400 343.0000 1.0000
51.0500 372.0000 1.0000
51.0600 382.0000 1.0000
51.0700 370.0000 1.0000
51.0800 362.0000 1.0000
51.0900 374.0000 1.0000
51.1000 364.0000 1.0000
51.1100 403.0000 1.0000
51.1200 416.0000 1.0000
51.1300 430.0000 1.0000
51.1400 400.0000 1.0000
51.1500 418.0000 1.0000
51.1600 398.0000 1.0000
51.1700 431.0000 1.0000
51.1800 431.0000 1.0000
51.1900 435.0000 1.0000
51.2000 467.0000 1.0000
51.2100 496.0000 1.0000
51.2200 502.0000 1.0000
51.2300 505.0000 1.0000
51.2400 550.0000 1.0000
51.2500 543.0000 1.0000
51.2600 569.0000 1.0000
51.2700 636.0000 1.0000
51.2800 631.0000 1.0000
51.2900 676.0000 1.0000
51.3000 693.0000 1.0000
51.3100 713.0000 1.0000
51.3200 745.0000 1.0000
51.3300 873.0000 1.0000
51.3400 847.0000 1.0000
51.3500 915.0000 1.0000
51.3600 1021.0000 1.0000
51.3700 1124.0000 1.0000
51.3800 1161.0000 1.0000
51.3900 1273.0000 1.0000
51.4000 1334.0000 1.0000
51.4100 1462.0000 1.0000
51.4200 1572.0000 1.0000
51.4300 1688.0000 1.0000
51.4400 1843.0000 1.0000
51.4500 1884.0000 1.0000
51.4600 2039.0000 1.0000
51.4700 2086.0000 1.0000
51.4800 2204.0000 1.0000
51.4900 2153.0000 1.0000
51.5000 2263.0000 1.0000
51.5100 2186.0000 1.0000
51.5200 2136.0000 1.0000
51.5300 2109.0000 1.0000
51.5400 2047.0000 1.0000
51.5500 2030.0000 1.0000
51.5600 1974.0000 1.0000
51.5700 1917.0000 1.0000
51.5800 1734.0000 1.0000
51.5900 1679.0000 1.0000
51.6000 1675.0000 1.0000
51.6100 1617.0000 1.0000
51.6200 1591.0000 1.0000
51.6300 1513.0000 1.0000
51.6400 1450.0000 1.0000
51.6500 1379.0000 1.0000
51.6600 1372.0000 1.0000
51.6700 1238.0000 1.0000
51.6800 1226.0000 1.0000
51.6900 1087.0000 1.0000
51.7000 1068.0000 1.0000
51.7100 972.0000 1.0000
51.7200 919.0000 1.0000
51.7300 855.0000 1.0000
51.7400 774.0000 1.0000
51.7500 685.0000 1.0000
51.7600 692.0000 1.0000
51.7700 657.0000 1.0000
51.7800 599.0000 1.0000
51.7900 617.0000 1.0000
51.8000 602.0000 1.0000
51.8100 556.0000 1.0000
51.8200 542.0000 1.0000
51.8300 514.0000 1.0000
51.8400 494.0000 1.0000
51.8500 473.0000 1.0000
51.8600 471.0000 1.0000
51.8700 431.0000 1.0000
51.8800 412.0000 1.0000
51.8900 425.0000 1.0000
51.9000 449.0000 1.0000
51.9100 427.0000 1.0000
51.9200 426.0000 1.0000
51.9300 418.0000 1.0000
51.9400 403.0000 1.0000
51.9500 357.0000 1.0000
51.9600 389.0000 1.0000
51.9700 395.0000 1.0000
51.9800 384.0000 1.0000
51.9900 389.0000 1.0000
52.0000 358.0000 1.0000
52.0100 357.0000 1.0000
52.0200 364.0000 1.0000
52.0300 389.0000 1.0000
52.0400 366.0000 1.0000
52.0500 369.0000 1.0000
52.0600 362.0000 1.0000
52.0700 358.0000 1.0000
52.0800 336.0000 1.0000
52.0900 351.0000 1.0000
52.1000 321.0000 1.0000
52.1100 331.0000 1.0000
52.1200 356.0000 1.0000
52.1300 379.0000 1.0000
52.1400 325.0000 1.0000
52.1500 342.0000 1.0000
52.1600 349.0000 1.0000
52.1700 360.0000 1.0000
52.1800 345.0000 1.0000
52.1900 316.0000 1.0000
52.2000 293.0000 1.0000
52.2100 324.0000 1.0000
52.2200 349.0000 1.0000
52.2300 324.0000 1.0000
52.2400 321.0000 1.0000
52.2500 329.0000 1.0000
52.2600 318.0000 1.0000
52.2700 318.0000 1.0000
52.2800 329.0000 1.0000
52.2900 336.0000 1.0000
52.3000 324.0000 1.0000
52.3100 329.0000 1.0000
52.3200 324.0000 1.0000
52.3300 293.0000 1.0000
52.3400 327.0000 1.0000
52.3500 312.0000 1.0000
52.3600 336.0000 1.0000
52.3700 314.0000 1.0000
52.3800 331.0000 1.0000
52.3900 312.0000 1.0000
52.4000 297.0000 1.0000
52.4100 287.0000 1.0000
52.4200 308.0000 1.0000
52.4300 304.0000 1.0000
52.4400 278.0000 1.0000
52.4500 297.0000 1.0000
52.4600 330.0000 1.0000
52.4700 295.0000 1.0000
52.4800 327.0000 1.0000
52.4900 327.0000 1.0000
52.5000 310.0000 1.0000
52.5100 338.0000 1.0000
52.5200 337.0000 1.0000
52.5300 312.0000 1.0000
52.5400 304.0000 1.0000
52.5500 307.0000 1.0000
52.5600 333.0000 1.0000
52.5700 312.0000 1.0000
52.5800 302.0000 1.0000
52.5900 302.0000 1.0000
52.6000 286.0000 1.0000
52.6100 313.0000 1.0000
52.6200 317.0000 1.0000
52.6300 296.0000 1.0000
52.6400 298.0000 1.0000
52.6500 299.0000 1.0000
52.6600 303.0000 1.0000
52.6700 296.0000 1.0000
52.6800 313.0000 1.0000
52.6900 318.0000 1.0000
52.7000 270.0000 1.0000
52.7100 297.0000 1.0000
52.7200 277.0000 1.0000
52.7300 310.0000 1.0000
52.7400 344.0000 1.0000
52.7500 314.0000 1.0000
52.7600 316.0000 1.0000
52.7700 291.0000 1.0000
52.7800 289.0000 1.0000
52.7900 292.0000 1.0000
52.8000 283.0000 1.0000
52.8100 275.0000 1.0000
52.8200 278.0000 1.0000
52.8300 282.0000 1.0000
52.8400 316.0000 1.0000
52.8500 306.0000 1.0000
52.8600 286.0000 1.0000
52.8700 298.0000 1.0000
52.8800 280.0000 1.0000
52.8900 313.0000 1.0000
52.9000 276.0000 1.0000
52.9100 301.0000 1.0000
52.9200 305.0000 1.0000
52.9300 330.0000 1.0000
52.9400 281.0000 1.0000
52.9500 269.0000 1.0000
52.9600 291.0000 1.0000
52.9700 316.0000 1.0000
52.9800 306.0000 1.0000
52.9900 288.0000 1.0000
53.0000 319.0000 1.0000
53.0100 304.0000 1.0000
53.0200 294.0000 1.0000
53.0300 292.0000 1.0000
53.0400 320.0000 1.0000
53.0500 304.0000 1.0000
53.0600 315.0000 1.0000
53.0700 312.0000 1.0000
53.0800 305.0000 1.0000
53.0900 302.0000 1.0000
53.1000 348.0000 1.0000
53.1100 296.0000 1.0000
53.1200 317.0000 1.0000
53.1300 299.0000 1.0000
53.1400 289.0000 1.0000
53.1500 292.0000 1.0000
53.1600 285.0000 1.0000
53.1700 280.0000 1.0000
53.1800 288.0000 1.0000
53.1900 304.0000 1.0000
53.2000 320.0000 1.0000
53.2100 293.0000 1.0000
53.2200 317.0000 1.0000
53.2300 309.0000 1.0000
53.2400 292.0000 1.0000
53.2500 323.0000 1.0000
53.2600 311.0000 1.0000
53.2700 312.0000 1.0000
53.2800 297.0000 1.0000
53.2900 296.0000 1.0000
53.3000 325.0000 1.0000
53.3100 323.0000 1.0000
53.3200 302.0000 1.0000
53.3300 301.0000 1.0000
53.3400 276.0000 1.0000
53.3500 296.0000 1.0000
53.3600 323.0000 1.0000
53.3700 318.0000 1.0000
53.3800 317.0000 1.0000
53.3900 313.0000 1.0000
53.4000 303.0000 1.0000
53.4100 308.0000 1.0000
53.4200 319.0000 1.0000
53.4300 308.0000 1.0000
53.4400 284.0000 1.0000
53.4500 317.0000 1.0000
53.4600 276.0000 1.0000
53.4700 312.0000 1.0000
53.4800 319.0000 1.0000
53.4900 317.0000 1.0000
53.5000 283.0000 1.0000
53.5100 283.0000 1.0000
53.5200 297.0000 1.0000
53.5300 271.0000 1.0000
53.5400 299.0000 1.0000
53.5500 281.0000 1.0000
53.5600 279.0000 1.0000
53.5700 316.0000 1.0000
53.5800 335.0000 1.0000
53.5900 299.0000 1.0000
53.6000 292.0000 1.0000
53.6100 299.0000 1.0000
53.6200 302.0000 1.0000
53.6300 278.0000 1.0000
53.6400 306.0000 1.0000
53.6500 288.0000 1.0000
53.6600 292.0000 1.0000
53.6700 316.0000 1.0000
53.6800 304.0000 1.0000
53.6900 312.0000 1.0000
53.7000 323.0000 1.0000
53.7100 315.0000 1.0000
53.7200 274.0000 1.0000
53.7300 290.0000 1.0000
53.7400 324.0000 1.0000
53.7500 306.0000 1.0000
53.7600 308.0000 1.0000
53.7700 300.0000 1.0000
53.7800 309.0000 1.0000
53.7900 317.0000 1.0000
53.8000 281.0000 1.0000
53.8100 293.0000 1.0000
53.8200 325.0000 1.0000
53.8300 305.0000 1.0000
53.8400 303.0000 1.0000
53.8500 331.0000 1.0000
53.8600 310.0000 1.0000
53.8700 319.0000 1.0000
53.8800 305.0000 1.0000
53.8900 364.0000 1.0000
53.9000 347.0000 1.0000
53.9100 316.0000 1.0000
53.9200 297.0000 1.0000
53.9300 341.0000 1.0000
53.9400 348.0000 1.0000
53.9500 349.0000 1.0000
53.9600 336.0000 1.0000
53.9700 344.0000 1.0000
53.9800 326.0000 1.0000
53.9900 337.0000 1.0000
54.0000 323.0000 1.0000
54.0100 330.0000 1.0000
54.0200 367.0000 1.0000
54.0300 346.0000 1.0000
54.0400 337.0000 1.0000
54.0500 319.0000 1.0000
54.0600 359.0000 1.0000
54.0700 346.0000 1.0000
54.0800 333.0000 1.0000
54.0900 342.0000 1.0000
54.1000 330.0000 1.0000
54.1100 343.0000 1.0000
54.1200 342.0000 1.0000
54.1300 334.0000 1.0000
54.1400 358.0000 1.0000
54.1500 359.0000 1.0000
54.1600 351.0000 1.0000
54.1700 310.0000 1.0000
54.1800 342.0000 1.0000
54.1900 325.0000 1.0000
54.2000 326.0000 1.0000
54.2100 324.0000 1.0000
54.2200 315.0000 1.0000
54.2300 318.0000 1.0000
54.2400 329.0000 1.0000
54.2500 319.0000 1.0000
54.2600 343.0000 1.0000
54.2700 336.0000 1.0000
54.2800 328.0000 1.0000
54.2900 306.0000 1.0000
54.3000 366.0000 1.0000
54.3100 352.0000 1.0000
54.3200 344.0000 1.0000
54.3300 334.0000 1.0000
54.3400 345.0000 1.0000
54.3500 327.0000 1.0000
54.3600 341.0000 1.0000
54.3700 360.0000 1.0000
54.3800 382.0000 1.0000
54.3900 383.0000 1.0000
54.4000 391.0000 1.0000
54.4100 414.0000 1.0000
54.4200 431.0000 1.0000
54.4300 401.0000 1.0000
54.4400 425.0000 1.0000
54.4500 419.0000 1.0000
54.4600 395.0000 1.0000
54.4700 397.0000 1.0000
54.4800 421.0000 1.0000
54.4900 450.0000 1.0000
54.5000 431.0000 1.0000
54.5100 438.0000 1.0000
54.5200 441.0000 1.0000
54.5300 466.0000 1.0000
54.5400 472.0000 1.0000
54.5500 453.0000 1.0000
54.5600 429.0000 1.0000
54.5700 429.0000 1.0000
54.5800 440.0000 1.0000
54.5900 423.0000 1.0000
54.6000 438.0000 1.0000
54.6100 447.0000 1.0000
54.6200 408.0000 1.0000
54.6300 429.0000 1.0000
54.6400 440.0000 1.0000
54.6500 419.0000 1.0000
54.6600 427.0000 1.0000
54.6700 411.0000 1.0000
54.6800 395.0000 1.0000
54.6900 396.0000 1.0000
54.7000 400.0000 1.0000
54.7100 382.0000 1.0000
54.7200 382.0000 1.0000
54.7300 384.0000 1.0000
54.7400 368.0000 1.0000
54.7500 366.0000 1.0000
54.7600 370.0000 1.0000
54.7700 354.0000 1.0000
54.7800 389.0000 1.0000
54.7900 366.0000 1.0000
54.8000 339.0000 1.0000
54.8100 335.0000 1.0000
54.8200 318.0000 1.0000
54.8300 325.0000 1.0000
54.8400 369.0000 1.0000
54.8500 348.0000 1.0000
54.8600 319.0000 1.0000
54.8700 315.0000 1.0000
54.8800 335.0000 1.0000
54.8900 308.0000 1.0000
54.9000 288.0000 1.0000
54.9100 305.0000 1.0000
54.9200 355.0000 1.0000
54.9300 326.0000 1.0000
54.9400 330.0000 1.0000
54.9500 322.0000 1.0000
54.9600 334.0000 1.0000
54.9700 320.0000 1.0000
54.9800 338.0000 1.0000
54.9900 330.0000 1.0000
55.0000 306.0000 1.0000
55.0100 315.0000 1.0000
55.0200 291.0000 1.0000
55.0300 272.0000 1.0000
55.0400 310.0000 1.0000
55.0500 310.0000 1.0000
55.0600 279.0000 1.0000
55.0700 275.0000 1.0000
55.0800 317.0000 1.0000
55.0900 279.0000 1.0000
55.1000 312.0000 1.0000
55.1100 326.0000 1.0000
55.1200 319.0000 1.0000
55.1300 317.0000 1.0000
55.1400 299.0000 1.0000
55.1500 286.0000 1.0000
55.1600 308.0000 1.0000
55.1700 322.0000 1.0000
55.1800 327.0000 1.0000
55.1900 327.0000 1.0000
55.2000 314.0000 1.0000
55.2100 315.0000 1.0000
55.2200 270.0000 1.0000
55.2300 285.0000 1.0000
55.2400 273.0000 1.0000
55.2500 300.0000 1.0000
55.2600 276.0000 1.0000
55.2700 292.0000 1.0000
55.2800 289.0000 1.0000
55.2900 311.0000 1.0000
55.3000 284.0000 1.0000
55.3100 303.0000 1.0000
55.3200 292.0000 1.0000
55.3300 285.0000 1.0000
55.3400 294.0000 1.0000
55.3500 290.0000 1.0000
55.3600 296.0000 1.0000
55.3700 314.0000 1.0000
55.3800 296.0000 1.0000
55.3900 300.0000 1.0000
55.4000 315.0000 1.0000
55.4100 284.0000 1.0000
55.4200 274.0000 1.0000
55.4300 278.0000 1.0000
55.4400 295.0000 1.0000
55.4500 287.0000 1.0000
55.4600 300.0000 1.0000
55.4700 293.0000 1.0000
55.4800 291.0000 1.0000
55.4900 282.0000 1.0000
55.5000 288.0000 1.0000
55.5100 316.0000 1.0000
55.5200 301.0000 1.0000
55.5300 301.0000 1.0000
55.5400 284.0000 1.0000
55.5500 307.0000 1.0000
55.5600 294.0000 1.0000
55.5700 291.0000 1.0000
55.5800 292.0000 1.0000
55.5900 297.0000 1.0000
55.6000 299.0000 1.0000
55.6100 305.0000 1.0000
55.6200 279.0000 1.0000
55.6300 296.0000 1.0000
55.6400 288.0000 1.0000
55.6500 275.0000 1.0000
55.6600 291.0000 1.0000
55.6700 295.0000 1.0000
55.6800 300.0000 1.0000
55.6900 302.0000 1.0000
55.7000 282.0000 1.0000
55.7100 291.0000 1.0000
55.7200 278.0000 1.0000
55.7300 282.0000 1.0000
55.7400 288.0000 1.0000
55.7500 285.0000 1.0000
55.7600 280.0000 1.0000
55.7700 276.0000 1.0000
55.7800 273.0000 1.0000
55.7900 279.0000 1.0000
55.8000 255.0000 1.0000
55.8100 299.0000 1.0000
55.8200 289.0000 1.0000
55.8300 271.0000 1.0000
55.8400 303.0000 1.0000
55.8500 290.0000 1.0000
55.8600 286.0000 1.0000
55.8700 276.0000 1.0000
55.8800 271.0000 1.0000
55.8900 301.0000 1.0000
55.9000 306.0000 1.0000
55.9100 290.0000 1.0000
55.9200 278.0000 1.0000
55.9300 312.0000 1.0000
55.9400 288.0000 1.0000
55.9500 294.0000 1.0000
55.9600 295.0000 1.0000
55.9700 309.0000 1.0000
55.9800 296.0000 1.0000
55.9900 301.0000 1.0000
56.0000 285.0000 1.0000
56.0100 309.0000 1.0000
56.0200 280.0000 1.0000
56.0300 280.0000 1.0000
56.0400 272.0000 1.0000
56.0500 294.0000 1.0000
56.0600 286.0000 1.0000
56.0700 284.0000 1.0000
56.0800 298.0000 1.0000
56.0900 272.0000 1.0000
56.1000 270.0000 1.0000
56.1100 297.0000 1.0000
56.1200 292.0000 1.0000
56.1300 303.0000 1.0000
56.1400 287.0000 1.0000
56.1500 287.0000 1.0000
56.1600 273.0000 1.0000
56.1700 285.0000 1.0000
56.1800 284.0000 1.0000
56.1900 310.0000 1.0000
56.2000 287.0000 1.0000
56.2100 302.0000 1.0000
56.2200 296.0000 1.0000
56.2300 294.0000 1.0000
56.2400 295.0000 1.0000
56.2500 310.0000 1.0000
56.2600 309.0000 1.0000
56.2700 294.0000 1.0000
56.2800 289.0000 1.0000
56.2900 285.0000 1.0000
56.3000 297.0000 1.0000
56.3100 288.0000 1.0000
56.3200 293.0000 1.0000
56.3300 296.0000 1.0000
56.3400 307.0000 1.0000
56.3500 301.0000 1.0000
56.3600 280.0000 1.0000
56.3700 298.0000 1.0000
56.3800 282.0000 1.0000
56.3900 305.0000 1.0000
56.4000 304.0000 1.0000
56.4100 324.0000 1.0000
56.4200 308.0000 1.0000
56.4300 293.0000 1.0000
56.4400 299.0000 1.0000
56.4500 278.0000 1.0000
56.4600 285.0000 1.0000
56.4700 266.0000 1.0000
56.4800 296.0000 1.0000
56.4900 287.0000 1.0000
56.5000 289.0000 1.0000
56.5100 311.0000 1.0000
56.5200 307.0000 1.0000
56.5300 289.0000 1.0000
56.5400 297.0000 1.0000
56.5500 271.0000 1.0000
56.5600 285.0000 1.0000
56.5700 295.0000 1.0000
56.5800 310.0000 1.0000
56.5900 309.0000 1.0000
56.6000 311.0000 1.0000
56.6100 289.0000 1.0000
56.6200 316.0000 1.0000
56.6300 276.0000 1.0000
56.6400 287.0000 1.0000
56.6500 284.0000 1.0000
56.6600 284.0000 1.0000
56.6700 282.0000 1.0000
56.6800 294.0000 1.0000
56.6900 285.0000 1.0000
56.7000 280.0000 1.0000
56.7100 272.0000 1.0000
56.7200 267.0000 1.0000
56.7300 268.0000 1.0000
56.7400 289.0000 1.0000
56.7500 288.0000 1.0000
56.7600 278.0000 1.0000
56.7700 290.0000 1.0000
56.7800 297.0000 1.0000
56.7900 269.0000 1.0000
56.8000 296.0000 1.0000
56.8100 271.0000 1.0000
56.8200 298.0000 1.0000
56.8300 306.0000 1.0000
56.8400 287.0000 1.0000
56.8500 288.0000 1.0000
56.8600 282.0000 1.0000
56.8700 285.0000 1.0000
56.8800 276.0000 1.0000
56.8900 284.0000 1.0000
56.9000 287.0000 1.0000
56.9100 286.0000 1.0000
56.9200 293.0000 1.0000
56.9300 302.0000 1.0000
56.9400 287.0000 1.0000
56.9500 291.0000 1.0000
56.9600 299.0000 1.0000
56.9700 281.0000 1.0000
56.9800 296.0000 1.0000
56.9900 276.0000 1.0000
57.0000 286.0000 1.0000
57.0100 292.0000 1.0000
57.0200 261.0000 1.0000
57.0300 291.0000 1.0000
57.0400 270.0000 1.0000
57.0500 261.0000 1.0000
57.0600 278.0000 1.0000
57.0700 282.0000 1.0000
57.0800 275.0000 1.0000
57.0900 256.0000 1.0000
57.1000 263.0000 1.0000
57.1100 293.0000 1.0000
57.1200 281.0000 1.0000
57.1300 296.0000 1.0000
57.1400 283.0000 1.0000
57.1500 307.0000 1.0000
57.1600 300.0000 1.0000
57.1700 286.0000 1.0000
57.1800 279.0000 1.0000
57.1900 316.0000 1.0000
57.2000 324.0000 1.0000
57.2100 307.0000 1.0000
57.2200 290.0000 1.0000
57.2300 298.0000 1.0000
57.2400 297.0000 1.0000
57.2500 303.0000 1.0000
57.2600 300.0000 1.0000
57.2700 276.0000 1.0000
57.2800 271.0000 1.0000
57.2900 278.0000 1.0000
57.3000 294.0000 1.0000
57.3100 328.0000 1.0000
57.3200 309.0000 1.0000
57.3300 263.0000 1.0000
57.3400 302.0000 1.0000
57.3500 286.0000 1.0000
57.3600 299.0000 1.0000
57.3700 314.0000 1.0000
57.3800 313.0000 1.0000
57.3900 297.0000 1.0000
57.4000 271.0000 1.0000
57.4100 267.0000 1.0000
57.4200 289.0000 1.0000
57.4300 295.0000 1.0000
57.4400 293.0000 1.0000
57.4500 308.0000 1.0000
57.4600 324.0000 1.0000
57.4700 295.0000 1.0000
57.4800 321.0000 1.0000
57.4900 315.0000 1.0000
57.5000 278.0000 1.0000
57.5100 306.0000 1.0000
57.5200 295.0000 1.0000
57.5300 282.0000 1.0000
57.5400 295.0000 1.0000
57.5500 289.0000 1.0000
57.5600 293.0000 1.0000
57.5700 283.0000 1.0000
57.5800 285.0000 1.0000
57.5900 271.0000 1.0000
57.6000 309.0000 1.0000
57.6100 302.0000 1.0000
57.6200 302.0000 1.0000
57.6300 282.0000 1.0000
57.6400 276.0000 1.0000
57.6500 277.0000 1.0000
57.6600 314.0000 1.0000
57.6700 289.0000 1.0000
57.6800 314.0000 1.0000
57.6900 303.0000 1.0000
57.7000 292.0000 1.0000
57.7100 303.0000 1.0000
57.7200 307.0000 1.0000
57.7300 290.0000 1.0000
57.7400 296.0000 1.0000
57.7500 307.0000 1.0000
57.7600 295.0000 1.0000
57.7700 304.0000 1.0000
57.7800 304.0000 1.0000
57.7900 289.0000 1.0000
57.8000 299.0000 1.0000
57.8100 301.0000 1.0000
57.8200 293.0000 1.0000
57.8300 275.0000 1.0000
57.8400 306.0000 1.0000
57.8500 294.0000 1.0000
57.8600 285.0000 1.0000
57.8700 271.0000 1.0000
57.8800 295.0000 1.0000
57.8900 308.0000 1.0000
57.9000 300.0000 1.0000
57.9100 289.0000 1.0000
57.9200 289.0000 1.0000
57.9300 273.0000 1.0000
57.9400 282.0000 1.0000
57.9500 281.0000 1.0000
57.9600 295.0000 1.0000
57.9700 287.0000 1.0000
57.9800 301.0000 1.0000
57.9900 305.0000 1.0000
58.0000 295.0000 1.0000
58.0100 297.0000 1.0000
58.0200 278.0000 1.0000
58.0300 288.0000 1.0000
58.0400 265.0000 1.0000
58.0500 287.0000 1.0000
58.0600 275.0000 1.0000
58.0700 305.0000 1.0000
58.0800 288.0000 1.0000
58.0900 286.0000 1.0000
58.1000 268.0000 1.0000
58.1100 282.0000 1.0000
58.1200 283.0000 1.0000
58.1300 289.0000 1.0000
58.1400 303.0000 1.0000
58.1500 314.0000 1.0000
58.1600 287.0000 1.0000
58.1700 288.0000 1.0000
58.1800 283.0000 1.0000
58.1900 274.0000 1.0000
58.2000 291.0000 1.0000
58.2100 319.0000 1.0000
58.2200 279.0000 1.0000
58.2300 274.0000 1.0000
58.2400 269.0000 1.0000
58.2500 279.0000 1.0000
58.2600 294.0000 1.0000
58.2700 309.0000 1.0000
58.2800 306.0000 1.0000
58.2900 275.0000 1.0000
58.3000 262.0000 1.0000
58.3100 261.0000 1.0000
58.3200 280.0000 1.0000
58.3300 267.0000 1.0000
58.3400 297.0000 1.0000
58.3500 307.0000 1.0000
58.3600 327.0000 1.0000
58.3700 290.0000 1.0000
58.3800 312.0000 1.0000
58.3900 330.0000 1.0000
58.4000 288.0000 1.0000
58.4100 289.0000 1.0000
58.4200 304.0000 1.0000
58.4300 287.0000 1.0000
58.4400 252.0000 1.0000
58.4500 246.0000 1.0000
58.4600 268.0000 1.0000
58.4700 278.0000 1.0000
58.4800 309.0000 1.0000
58.4900 274.0000 1.0000
58.5000 262.0000 1.0000
58.5100 287.0000 1.0000
58.5200 282.0000 1.0000
58.5300 270.0000 1.0000
58.5400 314.0000 1.0000
58.5500 296.0000 1.0000
58.5600 290.0000 1.0000
58.5700 322.0000 1.0000
58.5800 265.0000 1.0000
58.5900 285.0000 1.0000
58.6000 283.0000 1.0000
58.6100 287.0000 1.0000
58.6200 298.0000 1.0000
58.6300 308.0000 1.0000
58.6400 292.0000 1.0000
58.6500 290.0000 1.0000
58.6600 297.0000 1.0000
58.6700 274.0000 1.0000
58.6800 292.0000 1.0000
58.6900 270.0000 1.0000
58.7000 283.0000 1.0000
58.7100 267.0000 1.0000
58.7200 310.0000 1.0000
58.7300 296.0000 1.0000
58.7400 284.0000 1.0000
58.7500 271.0000 1.0000
58.7600 284.0000 1.0000
58.7700 272.0000 1.0000
58.7800 283.0000 1.0000
58.7900 291.0000 1.0000
58.8000 268.0000 1.0000
58.8100 291.0000 1.0000
58.8200 297.0000 1.0000
58.8300 305.0000 1.0000
58.8400 299.0000 1.0000
58.8500 279.0000 1.0000
58.8600 281.0000 1.0000
58.8700 274.0000 1.0000
58.8800 314.0000 1.0000
58.8900 272.0000 1.0000
58.9000 278.0000 1.0000
58.9100 285.0000 1.0000
58.9200 276.0000 1.0000
58.9300 273.0000 1.0000
58.9400 306.0000 1.0000
58.9500 272.0000 1.0000
58.9600 290.0000 1.0000
58.9700 273.0000 1.0000
58.9800 289.0000 1.0000
58.9900 281.0000 1.0000
59.0000 277.0000 1.0000
59.0100 292.0000 1.0000
59.0200 290.0000 1.0000
59.0300 278.0000 1.0000
59.0400 296.0000 1.0000
59.0500 272.0000 1.0000
59.0600 289.0000 1.0000
59.0700 282.0000 1.0000
59.0800 254.0000 1.0000
59.0900 274.0000 1.0000
59.1000 308.0000 1.0000
59.1100 296.0000 1.0000
59.1200 291.0000 1.0000
59.1300 281.0000 1.0000
59.1400 271.0000 1.0000
59.1500 281.0000 1.0000
59.1600 282.0000 1.0000
59.1700 275.0000 1.0000
59.1800 294.0000 1.0000
59.1900 281.0000 1.0000
59.2000 275.0000 1.0000
59.2100 277.0000 1.0000
59.2200 255.0000 1.0000
59.2300 276.0000 1.0000
59.2400 279.0000 1.0000
59.2500 258.0000 1.0000
59.2600 276.0000 1.0000
59.2700 276.0000 1.0000
59.2800 265.0000 1.0000
59.2900 314.0000 1.0000
59.3000 311.0000 1.0000
59.3100 284.0000 1.0000
59.3200 299.0000 1.0000
59.3300 296.0000 1.0000
59.3400 299.0000 1.0000
59.3500 284.0000 1.0000
59.3600 285.0000 1.0000
59.3700 303.0000 1.0000
59.3800 293.0000 1.0000
59.3900 310.0000 1.0000
59.4000 281.0000 1.0000
59.4100 298.0000 1.0000
59.4200 274.0000 1.0000
59.4300 273.0000 1.0000
59.4400 278.0000 1.0000
59.4500 287.0000 1.0000
59.4600 290.0000 1.0000
59.4700 275.0000 1.0000
59.4800 305.0000 1.0000
59.4900 261.0000 1.0000
59.5000 291.0000 1.0000
59.5100 294.0000 1.0000
59.5200 254.0000 1.0000
59.5300 284.0000 1.0000
59.5400 307.0000 1.0000
59.5500 296.0000 1.0000
59.5600 276.0000 1.0000
59.5700 310.0000 1.0000
59.5800 289.0000 1.0000
59.5900 303.0000 1.0000
59.6000 302.0000 1.0000
59.6100 273.0000 1.0000
59.6200 269.0000 1.0000
59.6300 269.0000 1.0000
59.6400 312.0000 1.0000
59.6500 274.0000 1.0000
59.6600 279.0000 1.0000
59.6700 282.0000 1.0000
59.6800 284.0000 1.0000
59.6900 277.0000 1.0000
59.7000 278.0000 1.0000
59.7100 279.0000 1.0000
59.7200 282.0000 1.0000
59.7300 289.0000 1.0000
59.7400 293.0000 1.0000
59.7500 256.0000 1.0000
59.7600 280.0000 1.0000
59.7700 290.0000 1.0000
59.7800 308.0000 1.0000
59.7900 275.0000 1.0000
59.8000 284.0000 1.0000
59.8100 277.0000 1.0000
59.8200 282.0000 1.0000
59.8300 252.0000 1.0000
59.8400 295.0000 1.0000
59.8500 330.0000 1.0000
59.8600 293.0000 1.0000
59.8700 297.0000 1.0000
59.8800 285.0000 1.0000
59.8900 289.0000 1.0000
59.9000 295.0000 1.0000
59.9100 284.0000 1.0000
59.9200 298.0000 1.0000
59.9300 245.0000 1.0000
59.9400 311.0000 1.0000
59.9500 315.0000 1.0000
59.9600 268.0000 1.0000
59.9700 286.0000 1.0000
59.9800 289.0000 1.0000
59.9900 306.0000 1.0000
60.0000 280.0000 1.0000
60.0100 275.0000 1.0000
60.0200 282.0000 1.0000
60.0300 293.0000 1.0000
60.0400 263.0000 1.0000
60.0500 268.0000 1.0000
60.0600 286.0000 1.0000
60.0700 294.0000 1.0000
60.0800 291.0000 1.0000
60.0900 314.0000 1.0000
60.1000 279.0000 1.0000
60.1100 287.0000 1.0000
60.1200 279.0000 1.0000
60.1300 260.0000 1.0000
60.1400 272.0000 1.0000
60.1500 290.0000 1.0000
60.1600 283.0000 1.0000
60.1700 281.0000 1.0000
60.1800 272.0000 1.0000
60.1900 262.0000 1.0000
60.2000 270.0000 1.0000
60.2100 286.0000 1.0000
60.2200 262.0000 1.0000
60.2300 259.0000 1.0000
60.2400 280.0000 1.0000
60.2500 285.0000 1.0000
60.2600 283.0000 1.0000
60.2700 286.0000 1.0000
60.2800 262.0000 1.0000
60.2900 291.0000 1.0000
60.3000 271.0000 1.0000
60.3100 301.0000 1.0000
60.3200 310.0000 1.0000
60.3300 270.0000 1.0000
60.3400 261.0000 1.0000
60.3500 256.0000 1.0000
60.3600 300.0000 1.0000
60.3700 283.0000 1.0000
60.3800 293.0000 1.0000
60.3900 271.0000 1.0000
60.4000 296.0000 1.0000
60.4100 296.0000 1.0000
60.4200 296.0000 1.0000
60.4300 285.0000 1.0000
60.4400 288.0000 1.0000
60.4500 277.0000 1.0000
60.4600 287.0000 1.0000
60.4700 285.0000 1.0000
60.4800 286.0000 1.0000
60.4900 292.0000 1.0000
60.5000 297.0000 1.0000
60.5100 281.0000 1.0000
60.5200 268.0000 1.0000
60.5300 320.0000 1.0000
60.5400 280.0000 1.0000
60.5500 271.0000 1.0000
60.5600 256.0000 1.0000
60.5700 299.0000 1.0000
60.5800 294.0000 1.0000
60.5900 274.0000 1.0000
60.6000 281.0000 1.0000
60.6100 275.0000 1.0000
60.6200 283.0000 1.0000
60.6300 281.0000 1.0000
60.6400 253.0000 1.0000
60.6500 295.0000 1.0000
60.6600 279.0000 1.0000
60.6700 283.0000 1.0000
60.6800 278.0000 1.0000
60.6900 302.0000 1.0000
60.7000 289.0000 1.0000
60.7100 311.0000 1.0000
60.7200 305.0000 1.0000
60.7300 308.0000 1.0000
60.7400 293.0000 1.0000
60.7500 292.0000 1.0000
60.7600 300.0000 1.0000
60.7700 311.0000 1.0000
60.7800 298.0000 1.0000
60.7900 286.0000 1.0000
60.8000 296.0000 1.0000
60.8100 282.0000 1.0000
60.8200 279.0000 1.0000
60.8300 326.0000 1.0000
60.8400 302.0000 1.0000
60.8500 300.0000 1.0000
60.8600 293.0000 1.0000
60.8700 292.0000 1.0000
60.8800 265.0000 1.0000
60.8900 284.0000 1.0000
60.9000 296.0000 1.0000
60.9100 307.0000 1.0000
60.9200 281.0000 1.0000
60.9300 272.0000 1.0000
60.9400 273.0000 1.0000
60.9500 296.0000 1.0000
60.9600 299.0000 1.0000
60.9700 279.0000 1.0000
60.9800 285.0000 1.0000
60.9900 321.0000 1.0000
61.0000 313.0000 1.0000
61.0100 302.0000 1.0000
61.0200 272.0000 1.0000
61.0300 293.0000 1.0000
61.0400 311.0000 1.0000
61.0500 297.0000 1.0000
61.0600 291.0000 1.0000
61.0700 303.0000 1.0000
61.0800 284.0000 1.0000
61.0900 309.0000 1.0000
61.1000 317.0000 1.0000
61.1100 316.0000 1.0000
61.1200 312.0000 1.0000
61.1300 322.0000 1.0000
61.1400 304.0000 1.0000
61.1500 312.0000 1.0000
61.1600 329.0000 1.0000
61.1700 315.0000 1.0000
61.1800 308.0000 1.0000
61.1900 321.0000 1.0000
61.2000 328.0000 1.0000
61.2100 316.0000 1.0000
61.2200 325.0000 1.0000
61.2300 321.0000 1.0000
61.2400 355.0000 1.0000
61.2500 360.0000 1.0000
61.2600 333.0000 1.0000
61.2700 324.0000 1.0000
61.2800 354.0000 1.0000
61.2900 375.0000 1.0000
61.3000 347.0000 1.0000
61.3100 385.0000 1.0000
61.3200 372.0000 1.0000
61.3300 391.0000 1.0000
61.3400 376.0000 1.0000
61.3500 386.0000 1.0000
61.3600 445.0000 1.0000
61.3700 448.0000 1.0000
61.3800 451.0000 1.0000
61.3900 449.0000 1.0000
61.4000 482.0000 1.0000
61.4100 481.0000 1.0000
61.4200 490.0000 1.0000
61.4300 500.0000 1.0000
61.4400 531.0000 1.0000
61.4500 515.0000 1.0000
61.4600 523.0000 1.0000
61.4700 573.0000 1.0000
61.4800 556.0000 1.0000
61.4900 545.0000 1.0000
61.5000 590.0000 1.0000
61.5100 616.0000 1.0000
61.5200 611.0000 1.0000
61.5300 586.0000 1.0000
61.5400 596.0000 1.0000
61.5500 556.0000 1.0000
61.5600 605.0000 1.0000
61.5700 598.0000 1.0000
61.5800 600.0000 1.0000
61.5900 554.0000 1.0000
61.6000 573.0000 1.0000
61.6100 549.0000 1.0000
61.6200 546.0000 1.0000
61.6300 577.0000 1.0000
61.6400 575.0000 1.0000
61.6500 547.0000 1.0000
61.6600 540.0000 1.0000
61.6700 544.0000 1.0000
61.6800 535.0000 1.0000
61.6900 520.0000 1.0000
61.7000 530.0000 1.0000
61.7100 501.0000 1.0000
61.7200 532.0000 1.0000
61.7300 511.0000 1.0000
61.7400 514.0000 1.0000
61.7500 452.0000 1.0000
61.7600 482.0000 1.0000
61.7700 495.0000 1.0000
61.7800 481.0000 1.0000
61.7900 449.0000 1.0000
61.8000 460.0000 1.0000
61.8100 451.0000 1.0000
61.8200 443.0000 1.0000
61.8300 439.0000 1.0000
61.8400 420.0000 1.0000
61.8500 402.0000 1.0000
61.8600 364.0000 1.0000
61.8700 381.0000 1.0000
61.8800 378.0000 1.0000
61.8900 394.0000 1.0000
61.9000 365.0000 1.0000
61.9100 378.0000 1.0000
61.9200 348.0000 1.0000
61.9300 337.0000 1.0000
61.9400 366.0000 1.0000
61.9500 333.0000 1.0000
61.9600 356.0000 1.0000
61.9700 352.0000 1.0000
61.9800 357.0000 1.0000
61.9900 336.0000 1.0000
62.0000 319.0000 1.0000
62.0100 340.0000 1.0000
62.0200 316.0000 1.0000
62.0300 331.0000 1.0000
62.0400 319.0000 1.0000
62.0500 324.0000 1.0000
62.0600 323.0000 1.0000
62.0700 320.0000 1.0000
62.0800 312.0000 1.0000
62.0900 348.0000 1.0000
62.1000 310.0000 1.0000
62.1100 330.0000 1.0000
62.1200 310.0000 1.0000
62.1300 310.0000 1.0000
62.1400 324.0000 1.0000
62.1500 306.0000 1.0000
62.1600 277.0000 1.0000
62.1700 312.0000 1.0000
62.1800 288.0000 1.0000
62.1900 311.0000 1.0000
62.2000 329.0000 1.0000
62.2100 321.0000 1.0000
62.2200 313.0000 1.0000
62.2300 309.0000 1.0000
62.2400 300.0000 1.0000
62.2500 307.0000 1.0000
62.2600 319.0000 1.0000
62.2700 290.0000 1.0000
62.2800 333.0000 1.0000
62.2900 326.0000 1.0000
62.3000 322.0000 1.0000
62.3100 334.0000 1.0000
62.3200 320.0000 1.0000
62.3300 292.0000 1.0000
62.3400 314.0000 1.0000
62.3500 320.0000 1.0000
62.3600 319.0000 1.0000
62.3700 342.0000 1.0000
62.3800 313.0000 1.0000
62.3900 349.0000 1.0000
62.4000 352.0000 1.0000
62.4100 328.0000 1.0000
62.4200 346.0000 1.0000
62.4300 328.0000 1.0000
62.4400 332.0000 1.0000
62.4500 327.0000 1.0000
62.4600 332.0000 1.0000
62.4700 279.0000 1.0000
62.4800 300.0000 1.0000
62.4900 322.0000 1.0000
62.5000 315.0000 1.0000
62.5100 303.0000 1.0000
62.5200 313.0000 1.0000
62.5300 282.0000 1.0000
62.5400 286.0000 1.0000
62.5500 309.0000 1.0000
62.5600 294.0000 1.0000
62.5700 311.0000 1.0000
62.5800 320.0000 1.0000
62.5900 343.0000 1.0000
62.6000 307.0000 1.0000
62.6100 293.0000 1.0000
62.6200 300.0000 1.0000
62.6300 301.0000 1.0000
62.6400 241.0000 1.0000
62.6500 256.0000 1.0000
62.6600 300.0000 1.0000
62.6700 334.0000 1.0000
62.6800 286.0000 1.0000
62.6900 285.0000 1.0000
62.7000 287.0000 1.0000
62.7100 281.0000 1.0000
62.7200 282.0000 1.0000
62.7300 297.0000 1.0000
62.7400 283.0000 1.0000
62.7500 276.0000 1.0000
62.7600 300.0000 1.0000
62.7700 300.0000 1.0000
62.7800 288.0000 1.0000
62.7900 272.0000 1.0000
62.8000 292.0000 1.0000
62.8100 295.0000 1.0000
62.8200 272.0000 1.0000
62.8300 281.0000 1.0000
62.8400 276.0000 1.0000
62.8500 288.0000 1.0000
62.8600 271.0000 1.0000
62.8700 273.0000 1.0000
62.8800 293.0000 1.0000
62.8900 300.0000 1.0000
62.9000 290.0000 1.0000
62.9100 272.0000 1.0000
62.9200 290.0000 1.0000
62.9300 275.0000 1.0000
62.9400 273.0000 1.0000
62.9500 280.0000 1.0000
62.9600 280.0000 1.0000
62.9700 278.0000 1.0000
62.9800 292.0000 1.0000
62.9900 289.0000 1.0000
63.0000 257.0000 1.0000
63.0100 299.0000 1.0000
63.0200 285.0000 1.0000
63.0300 284.0000 1.0000
63.0400 297.0000 1.0000
63.0500 316.0000 1.0000
63.0600 284.0000 1.0000
63.0700 276.0000 1.0000
63.0800 302.0000 1.0000
63.0900 298.0000 1.0000
63.1000 276.0000 1.0000
63.1100 278.0000 1.0000
63.1200 292.0000 1.0000
63.1300 282.0000 1.0000
63.1400 289.0000 1.0000
63.1500 275.0000 1.0000
63.1600 303.0000 1.0000
63.1700 294.0000 1.0000
63.1800 279.0000 1.0000
63.1900 296.0000 1.0000
63.2000 288.0000 1.0000
63.2100 262.0000 1.0000
63.2200 267.0000 1.0000
63.2300 296.0000 1.0000
63.2400 279.0000 1.0000
63.2500 292.0000 1.0000
63.2600 276.0000 1.0000
63.2700 288.0000 1.0000
63.2800 262.0000 1.0000
63.2900 287.0000 1.0000
63.3000 294.0000 1.0000
63.3100 288.0000 1.0000
63.3200 286.0000 1.0000
63.3300 299.0000 1.0000
63.3400 283.0000 1.0000
63.3500 267.0000 1.0000
63.3600 269.0000 1.0000
63.3700 285.0000 1.0000
63.3800 285.0000 1.0000
63.3900 286.0000 1.0000
63.4000 302.0000 1.0000
63.4100 293.0000 1.0000
63.4200 295.0000 1.0000
63.4300 297.0000 1.0000
63.4400 290.0000 1.0000
63.4500 279.0000 1.0000
63.4600 303.0000 1.0000
63.4700 294.0000 1.0000
63.4800 283.0000 1.0000
63.4900 263.0000 1.0000
63.5000 308.0000 1.0000
63.5100 303.0000 1.0000
63.5200 269.0000 1.0000
63.5300 291.0000 1.0000
63.5400 265.0000 1.0000
63.5500 296.0000 1.0000
63.5600 282.0000 1.0000
63.5700 284.0000 1.0000
63.5800 276.0000 1.0000
63.5900 292.0000 1.0000
63.6000 278.0000 1.0000
63.6100 284.0000 1.0000
63.6200 283.0000 1.0000
63.6300 315.0000 1.0000
63.6400 307.0000 1.0000
63.6500 296.0000 1.0000
63.6600 306.0000 1.0000
63.6700 328.0000 1.0000
63.6800 322.0000 1.0000
63.6900 345.0000 1.0000
63.7000 328.0000 1.0000
63.7100 318.0000 1.0000
63.7200 338.0000 1.0000
63.7300 298.0000 1.0000
63.7400 313.0000 1.0000
63.7500 343.0000 1.0000
63.7600 322.0000 1.0000
63.7700 346.0000 1.0000
63.7800 317.0000 1.0000
63.7900 329.0000 1.0000
63.8000 357.0000 1.0000
63.8100 328.0000 1.0000
63.8200 351.0000 1.0000
63.8300 348.0000 1.0000
63.8400 333.0000 1.0000
63.8500 357.0000 1.0000
63.8600 386.0000 1.0000
63.8700 380.0000 1.0000
63.8800 371.0000 1.0000
63.8900 379.0000 1.0000
63.9000 420.0000 1.0000
63.9100 449.0000 1.0000
63.9200 428.0000 1.0000
63.9300 415.0000 1.0000
63.9400 434.0000 1.0000
63.9500 430.0000 1.0000
63.9600 415.0000 1.0000
63.9700 427.0000 1.0000
63.9800 401.0000 1.0000
63.9900 427.0000 1.0000
64.0000 387.0000 1.0000
64.0100 402.0000 1.0000
64.0200 410.0000 1.0000
64.0300 397.0000 1.0000
64.0400 384.0000 1.0000
64.0500 397.0000 1.0000
64.0600 402.0000 1.0000
64.0700 394.0000 1.0000
64.0800 408.0000 1.0000
64.0900 381.0000 1.0000
64.1000 404.0000 1.0000
64.1100 371.0000 1.0000
64.1200 384.0000 1.0000
64.1300 358.0000 1.0000
64.1400 340.0000 1.0000
64.1500 380.0000 1.0000
64.1600 343.0000 1.0000
64.1700 333.0000 1.0000
64.1800 352.0000 1.0000
64.1900 359.0000 1.0000
64.2000 344.0000 1.0000
64.2100 362.0000 1.0000
64.2200 375.0000 1.0000
64.2300 328.0000 1.0000
64.2400 329.0000 1.0000
64.2500 326.0000 1.0000
64.2600 307.0000 1.0000
64.2700 312.0000 1.0000
64.2800 345.0000 1.0000
64.2900 302.0000 1.0000
64.3000 296.0000 1.0000
64.3100 296.0000 1.0000
64.3200 311.0000 1.0000
64.3300 330.0000 1.0000
64.3400 319.0000 1.0000
64.3500 302.0000 1.0000
64.3600 311.0000 1.0000
64.3700 319.0000 1.0000
64.3800 305.0000 1.0000
64.3900 282.0000 1.0000
64.4000 310.0000 1.0000
64.4100 296.0000 1.0000
64.4200 315.0000 1.0000
64.4300 296.0000 1.0000
64.4400 314.0000 1.0000
64.4500 309.0000 1.0000
64.4600 298.0000 1.0000
64.4700 339.0000 1.0000
64.4800 299.0000 1.0000
64.4900 298.0000 1.0000
64.5000 296.0000 1.0000
64.5100 312.0000 1.0000
64.5200 292.0000 1.0000
64.5300 280.0000 1.0000
64.5400 295.0000 1.0000
64.5500 313.0000 1.0000
64.5600 307.0000 1.0000
64.5700 292.0000 1.0000
64.5800 278.0000 1.0000
64.5900 308.0000 1.0000
64.6000 318.0000 1.0000
64.6100 281.0000 1.0000
64.6200 306.0000 1.0000
64.6300 271.0000 1.0000
64.6400 276.0000 1.0000
64.6500 284.0000 1.0000
64.6600 271.0000 1.0000
64.6700 281.0000 1.0000
64.6800 287.0000 1.0000
64.6900 263.0000 1.0000
64.7000 308.0000 1.0000
64.7100 305.0000 1.0000
64.7200 324.0000 1.0000
64.7300 297.0000 1.0000
64.7400 307.0000 1.0000
64.7500 291.0000 1.0000
64.7600 272.0000 1.0000
64.7700 308.0000 1.0000
64.7800 314.0000 1.0000
64.7900 319.0000 1.0000
64.8000 290.0000 1.0000
64.8100 296.0000 1.0000
64.8200 339.0000 1.0000
64.8300 303.0000 1.0000
64.8400 299.0000 1.0000
64.8500 294.0000 1.0000
64.8600 295.0000 1.0000
64.8700 288.0000 1.0000
64.8800 309.0000 1.0000
64.8900 303.0000 1.0000
64.9000 335.0000 1.0000
64.9100 322.0000 1.0000
64.9200 306.0000 1.0000
64.9300 301.0000 1.0000
64.9400 308.0000 1.0000
64.9500 312.0000 1.0000
64.9600 346.0000 1.0000
64.9700 312.0000 1.0000
64.9800 280.0000 1.0000
64.9900 274.0000 1.0000
65.0000 286.0000 1.0000
65.0100 321.0000 1.0000
65.0200 301.0000 1.0000
65.0300 311.0000 1.0000
65.0400 312.0000 1.0000
65.0500 309.0000 1.0000
65.0600 325.0000 1.0000
65.0700 323.0000 1.0000
65.0800 303.0000 1.0000
65.0900 290.0000 1.0000
65.1000 298.0000 1.0000
65.1100 314.0000 1.0000
65.1200 329.0000 1.0000
65.1300 355.0000 1.0000
65.1400 395.0000 1.0000
65.1500 342.0000 1.0000
65.1600 345.0000 1.0000
65.1700 374.0000 1.0000
65.1800 359.0000 1.0000
65.1900 363.0000 1.0000
65.2000 371.0000 1.0000
65.2100 375.0000 1.0000
65.2200 389.0000 1.0000
65.2300 383.0000 1.0000
65.2400 379.0000 1.0000
65.2500 397.0000 1.0000
65.2600 395.0000 1.0000
65.2700 405.0000 1.0000
65.2800 397.0000 1.0000
65.2900 425.0000 1.0000
65.3000 467.0000 1.0000
65.3100 455.0000 1.0000
65.3200 505.0000 1.0000
65.3300 483.0000 1.0000
65.3400 496.0000 1.0000
65.3500 536.0000 1.0000
65.3600 535.0000 1.0000
65.3700 560.0000 1.0000
65.3800 565.0000 1.0000
65.3900 650.0000 1.0000
65.4000 618.0000 1.0000
65.4100 670.0000 1.0000
65.4200 698.0000 1.0000
65.4300 707.0000 1.0000
65.4400 800.0000 1.0000
65.4500 794.0000 1.0000
65.4600 835.0000 1.0000
65.4700 928.0000 1.0000
65.4800 905.0000 1.0000
65.4900 918.0000 1.0000
65.5000 974.0000 1.0000
65.5100 1035.0000 1.0000
65.5200 1029.0000 1.0000
65.5300 1043.0000 1.0000
65.5400 1073.0000 1.0000
65.5500 1069.0000 1.0000
65.5600 1100.0000 1.0000
65.5700 1064.0000 1.0000
65.5800 1086.0000 1.0000
65.5900 1040.0000 1.0000
65.6000 1011.0000 1.0000
65.6100 1008.0000 1.0000
65.6200 1012.0000 1.0000
65.6300 975.0000 1.0000
65.6400 939.0000 1.0000
65.6500 920.0000 1.0000
65.6600 960.0000 1.0000
65.6700 899.0000 1.0000
65.6800 868.0000 1.0000
65.6900 893.0000 1.0000
65.7000 848.0000 1.0000
65.7100 866.0000 1.0000
65.7200 814.0000 1.0000
65.7300 776.0000 1.0000
65.7400 784.0000 1.0000
65.7500 796.0000 1.0000
65.7600 752.0000 1.0000
65.7700 734.0000 1.0000
65.7800 671.0000 1.0000
65.7900 664.0000 1.0000
65.8000 667.0000 1.0000
65.8100 664.0000 1.0000
65.8200 626.0000 1.0000
65.8300 573.0000 1.0000
65.8400 549.0000 1.0000
65.8500 529.0000 1.0000
65.8600 544.0000 1.0000
65.8700 495.0000 1.0000
65.8800 475.0000 1.0000
65.8900 485.0000 1.0000
65.9000 486.0000 1.0000
65.9100 420.0000 1.0000
65.9200 432.0000 1.0000
65.9300 423.0000 1.0000
65.9400 395.0000 1.0000
65.9500 409.0000 1.0000
65.9600 391.0000 1.0000
65.9700 356.0000 1.0000
65.9800 391.0000 1.0000
65.9900 407.0000 1.0000
66.0000 359.0000 1.0000
66.0100 363.0000 1.0000
66.0200 348.0000 1.0000
66.0300 363.0000 1.0000
66.0400 352.0000 1.0000
66.0500 349.0000 1.0000
66.0600 338.0000 1.0000
66.0700 342.0000 1.0000
66.0800 358.0000 1.0000
66.0900 326.0000 1.0000
66.1000 309.0000 1.0000
66.1100 313.0000 1.0000
66.1200 291.0000 1.0000
66.1300 313.0000 1.0000
66.1400 299.0000 1.0000
66.1500 319.0000 1.0000
66.1600 317.0000 1.0000
66.1700 298.0000 1.0000
66.1800 333.0000 1.0000
66.1900 311.0000 1.0000
66.2000 301.0000 1.0000
66.2100 284.0000 1.0000
66.2200 301.0000 1.0000
66.2300 305.0000 1.0000
66.2400 315.0000 1.0000
66.2500 268.0000 1.0000
66.2600 290.0000 1.0000
66.2700 296.0000 1.0000
66.2800 315.0000 1.0000
66.2900 306.0000 1.0000
66.3000 290.0000 1.0000
66.3100 297.0000 1.0000
66.3200 274.0000 1.0000
66.3300 274.0000 1.0000
66.3400 278.0000 1.0000
66.3500 285.0000 1.0000
66.3600 278.0000 1.0000
66.3700 294.0000 1.0000
66.3800 296.0000 1.0000
66.3900 262.0000 1.0000
66.4000 301.0000 1.0000
66.4100 301.0000 1.0000
66.4200 287.0000 1.0000
66.4300 311.0000 1.0000
66.4400 274.0000 1.0000
66.4500 296.0000 1.0000
66.4600 270.0000 1.0000
66.4700 286.0000 1.0000
66.4800 300.0000 1.0000
66.4900 293.0000 1.0000
66.5000 277.0000 1.0000
66.5100 268.0000 1.0000
66.5200 255.0000 1.0000
66.5300 293.0000 1.0000
66.5400 287.0000 1.0000
66.5500 252.0000 1.0000
66.5600 248.0000 1.0000
66.5700 278.0000 1.0000
66.5800 282.0000 1.0000
66.5900 279.0000 1.0000
66.6000 314.0000 1.0000
66.6100 284.0000 1.0000
66.6200 268.0000 1.0000
66.6300 267.0000 1.0000
66.6400 267.0000 1.0000
66.6500 257.0000 1.0000
66.6600 272.0000 1.0000
66.6700 276.0000 1.0000
66.6800 281.0000 1.0000
66.6900 273.0000 1.0000
66.7000 255.0000 1.0000
66.7100 259.0000 1.0000
66.7200 279.0000 1.0000
66.7300 271.0000 1.0000
66.7400 258.0000 1.0000
66.7500 277.0000 1.0000
66.7600 279.0000 1.0000
66.7700 262.0000 1.0000
66.7800 283.0000 1.0000
66.7900 275.0000 1.0000
66.8000 250.0000 1.0000
66.8100 277.0000 1.0000
66.8200 272.0000 1.0000
66.8300 288.0000 1.0000
66.8400 240.0000 1.0000
66.8500 242.0000 1.0000
66.8600 272.0000 1.0000
66.8700 283.0000 1.0000
66.8800 258.0000 1.0000
66.8900 255.0000 1.0000
66.9000 262.0000 1.0000
66.9100 270.0000 1.0000
66.9200 267.0000 1.0000
66.9300 287.0000 1.0000
66.9400 257.0000 1.0000
66.9500 248.0000 1.0000
66.9600 278.0000 1.0000
66.9700 260.0000 1.0000
66.9800 269.0000 1.0000
66.9900 287.0000 1.0000
67.0000 256.0000 1.0000
67.0100 270.0000 1.0000
67.0200 254.0000 1.0000
67.0300 232.0000 1.0000
67.0400 241.0000 1.0000
67.0500 257.0000 1.0000
67.0600 281.0000 1.0000
67.0700 301.0000 1.0000
67.0800 267.0000 1.0000
67.0900 264.0000 1.0000
67.1000 264.0000 1.0000
67.1100 250.0000 1.0000
67.1200 266.0000 1.0000
67.1300 254.0000 1.0000
67.1400 245.0000 1.0000
67.1500 268.0000 1.0000
67.1600 284.0000 1.0000
67.1700 293.0000 1.0000
67.1800 269.0000 1.0000
67.1900 262.0000 1.0000
67.2000 275.0000 1.0000
67.2100 261.0000 1.0000
67.2200 271.0000 1.0000
67.2300 280.0000 1.0000
67.2400 267.0000 1.0000
67.2500 263.0000 1.0000
67.2600 265.0000 1.0000
67.2700 257.0000 1.0000
67.2800 241.0000 1.0000
67.2900 242.0000 1.0000
67.3000 243.0000 1.0000
67.3100 244.0000 1.0000
67.3200 256.0000 1.0000
67.3300 266.0000 1.0000
67.3400 254.0000 1.0000
67.3500 255.0000 1.0000
67.3600 276.0000 1.0000
67.3700 251.0000 1.0000
67.3800 243.0000 1.0000
67.3900 272.0000 1.0000
67.4000 264.0000 1.0000
67.4100 256.0000 1.0000
67.4200 268.0000 1.0000
67.4300 241.0000 1.0000
67.4400 265.0000 1.0000
67.4500 265.0000 1.0000
67.4600 244.0000 1.0000
67.4700 248.0000 1.0000
67.4800 249.0000 1.0000
67.4900 240.0000 1.0000
67.5000 262.0000 1.0000
67.5100 245.0000 1.0000
67.5200 274.0000 1.0000
67.5300 251.0000 1.0000
67.5400 238.0000 1.0000
67.5500 252.0000 1.0000
67.5600 255.0000 1.0000
67.5700 272.0000 1.0000
67.5800 276.0000 1.0000
67.5900 239.0000 1.0000
67.6000 246.0000 1.0000
67.6100 239.0000 1.0000
67.6200 252.0000 1.0000
67.6300 269.0000 1.0000
67.6400 240.0000 1.0000
67.6500 262.0000 1.0000
67.6600 236.0000 1.0000
67.6700 253.0000 1.0000
67.6800 262.0000 1.0000
67.6900 250.0000 1.0000
67.7000 257.0000 1.0000
67.7100 242.0000 1.0000
67.7200 235.0000 1.0000
67.7300 248.0000 1.0000
67.7400 251.0000 1.0000
67.7500 270.0000 1.0000
67.7600 269.0000 1.0000
67.7700 255.0000 1.0000
67.7800 243.0000 1.0000
67.7900 259.0000 1.0000
67.8000 234.0000 1.0000
67.8100 253.0000 1.0000
67.8200 283.0000 1.0000
67.8300 265.0000 1.0000
67.8400 271.0000 1.0000
67.8500 257.0000 1.0000
67.8600 277.0000 1.0000
67.8700 254.0000 1.0000
67.8800 271.0000 1.0000
67.8900 261.0000 1.0000
67.9000 248.0000 1.0000
67.9100 252.0000 1.0000
67.9200 257.0000 1.0000
67.9300 243.0000 1.0000
67.9400 232.0000 1.0000
67.9500 241.0000 1.0000
67.9600 232.0000 1.0000
67.9700 258.0000 1.0000
67.9800 278.0000 1.0000
67.9900 272.0000 1.0000
68.0000 239.0000 1.0000
68.0100 262.0000 1.0000
68.0200 267.0000 1.0000
68.0300 259.0000 1.0000
68.0400 265.0000 1.0000
68.0500 243.0000 1.0000
68.0600 266.0000 1.0000
68.0700 283.0000 1.0000
68.0800 237.0000 1.0000
68.0900 260.0000 1.0000
68.1000 251.0000 1.0000
68.1100 255.0000 1.0000
68.1200 281.0000 1.0000
68.1300 250.0000 1.0000
68.1400 258.0000 1.0000
68.1500 242.0000 1.0000
68.1600 261.0000 1.0000
68.1700 258.0000 1.0000
68.1800 268.0000 1.0000
68.1900 265.0000 1.0000
68.2000 252.0000 1.0000
68.2100 258.0000 1.0000
68.2200 258.0000 1.0000
68.2300 251.0000 1.0000
68.2400 254.0000 1.0000
68.2500 275.0000 1.0000
68.2600 284.0000 1.0000
68.2700 266.0000 1.0000
68.2800 246.0000 1.0000
68.2900 262.0000 1.0000
68.3000 267.0000 1.0000
68.3100 268.0000 1.0000
68.3200 253.0000 1.0000
68.3300 269.0000 1.0000
68.3400 267.0000 1.0000
68.3500 246.0000 1.0000
68.3600 243.0000 1.0000
68.3700 249.0000 1.0000
68.3800 255.0000 1.0000
68.3900 228.0000 1.0000
68.4000 262.0000 1.0000
68.4100 261.0000 1.0000
68.4200 262.0000 1.0000
68.4300 266.0000 1.0000
68.4400 241.0000 1.0000
68.4500 274.0000 1.0000
68.4600 262.0000 1.0000
68.4700 237.0000 1.0000
68.4800 236.0000 1.0000
68.4900 258.0000 1.0000
68.5000 256.0000 1.0000
68.5100 261.0000 1.0000
68.5200 244.0000 1.0000
68.5300 258.0000 1.0000
68.5400 263.0000 1.0000
68.5500 278.0000 1.0000
68.5600 255.0000 1.0000
68.5700 256.0000 1.0000
68.5800 247.0000 1.0000
68.5900 257.0000 1.0000
68.6000 256.0000 1.0000
68.6100 249.0000 1.0000
68.6200 247.0000 1.0000
68.6300 232.0000 1.0000
68.6400 251.0000 1.0000
68.6500 263.0000 1.0000
68.6600 265.0000 1.0000
68.6700 278.0000 1.0000
68.6800 247.0000 1.0000
68.6900 266.0000 1.0000
68.7000 285.0000 1.0000
68.7100 270.0000 1.0000
68.7200 268.0000 1.0000
68.7300 244.0000 1.0000
68.7400 233.0000 1.0000
68.7500 232.0000 1.0000
68.7600 243.0000 1.0000
68.7700 268.0000 1.0000
68.7800 262.0000 1.0000
68.7900 233.0000 1.0000
68.8000 248.0000 1.0000
68.8100 253.0000 1.0000
68.8200 276.0000 1.0000
68.8300 265.0000 1.0000
68.8400 227.0000 1.0000
68.8500 234.0000 1.0000
68.8600 237.0000 1.0000
68.8700 264.0000 1.0000
68.8800 251.0000 1.0000
68.8900 253.0000 1.0000
68.9000 253.0000 1.0000
68.9100 241.0000 1.0000
68.9200 258.0000 1.0000
68.9300 252.0000 1.0000
68.9400 268.0000 1.0000
68.9500 272.0000 1.0000
68.9600 246.0000 1.0000
68.9700 266.0000 1.0000
68.9800 228.0000 1.0000
68.9900 262.0000 1.0000
69.0000 255.0000 1.0000
69.0100 251.0000 1.0000
69.0200 235.0000 1.0000
69.0300 233.0000 1.0000
69.0400 251.0000 1.0000
69.0500 232.0000 1.0000
69.0600 258.0000 1.0000
69.0700 248.0000 1.0000
69.0800 251.0000 1.0000
69.0900 244.0000 1.0000
69.1000 244.0000 1.0000
69.1100 250.0000 1.0000
69.1200 254.0000 1.0000
69.1300 245.0000 1.0000
69.1400 242.0000 1.0000
69.1500 223.0000 1.0000
69.1600 231.0000 1.0000
69.1700 225.0000 1.0000
69.1800 265.0000 1.0000
69.1900 251.0000 1.0000
69.2000 239.0000 1.0000
69.2100 229.0000 1.0000
69.2200 255.0000 1.0000
69.2300 251.0000 1.0000
69.2400 243.0000 1.0000
69.2500 236.0000 1.0000
69.2600 213.0000 1.0000
69.2700 255.0000 1.0000
69.2800 223.0000 1.0000
69.2900 251.0000 1.0000
69.3000 289.0000 1.0000
69.3100 256.0000 1.0000
69.3200 244.0000 1.0000
69.3300 276.0000 1.0000
69.3400 274.0000 1.0000
69.3500 236.0000 1.0000
69.3600 272.0000 1.0000
69.3700 271.0000 1.0000
69.3800 282.0000 1.0000
69.3900 259.0000 1.0000
69.4000 268.0000 1.0000
69.4100 233.0000 1.0000
69.4200 249.0000 1.0000
69.4300 258.0000 1.0000
69.4400 258.0000 1.0000
69.4500 232.0000 1.0000
69.4600 233.0000 1.0000
69.4700 246.0000 1.0000
69.4800 246.0000 1.0000
69.4900 244.0000 1.0000
69.5000 255.0000 1.0000
69.5100 239.0000 1.0000
69.5200 238.0000 1.0000
69.5300 238.0000 1.0000
69.5400 255.0000 1.0000
69.5500 243.0000 1.0000
69.5600 264.0000 1.0000
69.5700 245.0000 1.0000
69.5800 241.0000 1.0000
69.5900 245.0000 1.0000
69.6000 217.0000 1.0000
69.6100 242.0000 1.0000
69.6200 271.0000 1.0000
69.6300 251.0000 1.0000
69.6400 233.0000 1.0000
69.6500 255.0000 1.0000
69.6600 264.0000 1.0000
69.6700 255.0000 1.0000
69.6800 245.0000 1.0000
69.6900 244.0000 1.0000
69.7000 250.0000 1.0000
69.7100 253.0000 1.0000
69.7200 251.0000 1.0000
69.7300 246.0000 1.0000
69.7400 242.0000 1.0000
69.7500 238.0000 1.0000
69.7600 260.0000 1.0000
69.7700 228.0000 1.0000
69.7800 248.0000 1.0000
69.7900 257.0000 1.0000
69.8000 247.0000 1.0000
69.8100 272.0000 1.0000
69.8200 271.0000 1.0000
69.8300 253.0000 1.0000
69.8400 243.0000 1.0000
69.8500 254.0000 1.0000
69.8600 271.0000 1.0000
69.8700 254.0000 1.0000
69.8800 250.0000 1.0000
69.8900 249.0000 1.0000
69.9000 252.0000 1.0000
69.9100 239.0000 1.0000
69.9200 263.0000 1.0000
69.9300 226.0000 1.0000
69.9400 230.0000 1.0000
69.9500 234.0000 1.0000
69.9600 234.0000 1.0000
69.9700 212.0000 1.0000
69.9800 239.0000 1.0000
69.9900 247.0000 1.0000
70.0000 220.0000 1.0000
*RAS_INT_END
*RAS_TEMPERATURE_START
*RAS_TEMPERATURE_END
*RAS_DATA_END
