*RAS_DATA_START
*RAS_HEADER_START
*DISP_FMT_X "%.2f"
*DISP_FMT_Y "%.0f"
*DISP_FULLSCALE "16050.0000000000"
*DISP_LINE_COLOR "255.0000000000"
*DISP_LINE_STYLE "0.0000000000"
*DISP_LINE_WIDTH "0.2500000000"
*DISP_NOTE "測定データ-1"
*DISP_OFFSET_Y "0.0000000000"
*DISP_PEAKSEARCH_UNIT_Y "cps"
*DISP_RANGE_BOTTOM "0.0000000000"
*DISP_RANGE_LEFT "20.0000000000"
*DISP_RANGE_LOGCUTOFF "0.0100000000"
*DISP_RANGE_RIGHT "70.0000000000"
*DISP_RANGE_TOP "16050.0000000000"
*DISP_SCALE_MODE_Y "0.0000000000"
*DISP_TAB_NAME "2θ/θ"
*DISP_TITLE_Y "強度"
*DISP_UNIT_Y "cps"
*DISP_WINDOW_NAME "MSG_MACROENGINE"
*FILE_COMMENT " "
*FILE_MD5 ""
*FILE_MEMO " "
*FILE_OPERATOR "Administrator"
*FILE_SAMPLE " "
*FILE_TYPE "RAS_RAW"
*FILE_USERGROUP "システムマネージャ"
*FILE_VERSION "1.0000000000"
*HW_ATTACHMENT_ID "ATT0025"
*HW_ATTACHMENT_NAME "標準|Standard"
*HW_COUNTER_ID-0 "CUT0025"
*HW_COUNTER_ID-1 "CUT0020"
*HW_COUNTER_ID-2 "CUT0020"
*HW_COUNTER_ID-3 "CSL0021"
*HW_COUNTER_ID-4 "CMC0021"
*HW_COUNTER_NAME-0 "D/teX Ultra|D/teX Ultra"
*HW_COUNTER_NAME-1 "None|None"
*HW_COUNTER_NAME-2 "None|None"
*HW_COUNTER_NAME-3 "BBM|BBM"
*HW_COUNTER_NAME-4 "検出器モノクロメータ|Detector monochromator"
*HW_COUNTER_SELECT_NAME "D/teX Ultra|D/teX Ultra"
*HW_GONIOMETER_ID "GON0023"
*HW_GONIOMETER_NAME "SmartLab|SmartLab"
*HW_GONIOMETER_RADIUS-0 "90.0"
*HW_GONIOMETER_RADIUS-1 "114.0"
*HW_GONIOMETER_RADIUS-2 "190.0"
*HW_GONIOMETER_RADIUS-3 "300.0"
*HW_GONIOMETER_RADIUS-4 "187.0"
*HW_GONIOMETER_RADIUS-5 "300.0"
*HW_GONIOMETER_RADIUS-6 "113.0"
*HW_GONIOMETER_RADIUS-7 "331.0"
*HW_I_OPT_ID-0 "CBO0021"
*HW_I_OPT_ID-1 "ICR0023"
*HW_I_OPT_ID-2 "ISL0021"
*HW_I_OPT_ID-3 "ISO0021"
*HW_I_OPT_ID-4 "IAD0021"
*HW_I_OPT_ID-5 "IPR0001"
*HW_I_OPT_NAME-0 "CBOユニット|CBO unit"
*HW_I_OPT_NAME-1 "標準入射光学ユニット|Standard incident optical unit"
*HW_I_OPT_NAME-2 "標準入射スリットボックス|Standard incident slit box"
*HW_I_OPT_NAME-3 "入射平行スリット|Incident parallel slit"
*HW_I_OPT_NAME-4 "長手制限スリット|Length limiting slit"
*HW_I_OPT_NAME-5 "None|None"
*HW_R_ATTENUATER_AUTOMODE "0"
*HW_R_OPT_ID-0 "RSS0021"
*HW_R_OPT_ID-1 "RCR0023"
*HW_R_OPT_ID-2 "RSO0021"
*HW_R_OPT_ID-3 "RRS0021"
*HW_R_OPT_ID-4 "ATN0021"
*HW_R_OPT_ID-5 "RFL0021"
*HW_R_OPT_ID-6 "RAD0021"
*HW_R_OPT_NAME-0 "標準受光スリットボックス1|Standard receiving slit box # 1"
*HW_R_OPT_NAME-1 "標準受光光学ユニット1|Standard receiving unit # 1"
*HW_R_OPT_NAME-2 "標準受光光学ユニット2|Standard receiving optical unit # 2"
*HW_R_OPT_NAME-3 "標準受光スリットボックス2|Standard receiving slit box # 2"
*HW_R_OPT_NAME-4 "標準アッテネータ|Standard Attenuator"
*HW_R_OPT_NAME-5 "Cu Kβ|Cu K-beta"
*HW_R_OPT_NAME-6 "調整用受光スリット|Alignment receiving slit"
*HW_SAMPLE_HOLDER_ID "SMP0023"
*HW_SAMPLE_HOLDER_NAME "標準Zステージ|Standard Z stage"
*HW_XG_CURRENT_MAX "50"
*HW_XG_CURRENT_MIN "2"
*HW_XG_CURRENT_RESOLUTION "1"
*HW_XG_CURRENT_UNIT "mA"
*HW_XG_FOCUS "1mm x 10mm"
*HW_XG_FOCUS_TYPE "Normal"
*HW_XG_ID ""
*HW_XG_NAME "3kW 封入管(ID:1200)|3kW Sealed tube(ID:1200)"
*HW_XG_TARGET_ATOMIC_NUMBER "29.0000000000"
*HW_XG_TARGET_NAME "Cu"
*HW_XG_TYPE "Hermetic"
*HW_XG_VOLTAGE_MAX "60"
*HW_XG_VOLTAGE_MIN "20"
*HW_XG_VOLTAGE_RESOLUTION "1"
*HW_XG_VOLTAGE_UNIT "kV"
*HW_XG_WATT_MAX "1.500"
*HW_XG_WATT_UNIT "kW"
*HW_XG_WAVE_LENGTH_ALPHA1 "1.540593"
*HW_XG_WAVE_LENGTH_ALPHA2 "1.544414"
*HW_XG_WAVE_LENGTH_BETA "1.392250"
*MEAS_COND_AXIS_NAME-0 "2θ/θ"
*MEAS_COND_AXIS_NAME-1 "2θ"
*MEAS_COND_AXIS_NAME-2 "ω"
*MEAS_COND_AXIS_NAME-3 "Z"
*MEAS_COND_AXIS_NAME-4 "2θ/ω"
*MEAS_COND_AXIS_NAME-5 "θs"
*MEAS_COND_AXIS_NAME-6 "θd"
*MEAS_COND_AXIS_NAME-7 "Ts"
*MEAS_COND_AXIS_NAME-8 "CBO選択スリット"
*MEAS_COND_AXIS_NAME-9 "M"
*MEAS_COND_AXIS_NAME-10 "入射平行スリット"
*MEAS_COND_AXIS_NAME-11 "入射スリット"
*MEAS_COND_AXIS_NAME-12 ""
*MEAS_COND_AXIS_NAME-13 "Zs"
*MEAS_COND_AXIS_NAME-14 "入射光学素子"
*MEAS_COND_AXIS_NAME-15 "長手制限スリット"
*MEAS_COND_AXIS_NAME-16 "センタースリット"
*MEAS_COND_AXIS_NAME-17 "フィルター"
*MEAS_COND_AXIS_NAME-18 "受光スリット1"
*MEAS_COND_AXIS_NAME-19 "受光スリット2"
*MEAS_COND_AXIS_NAME-20 "受光光学素子"
*MEAS_COND_AXIS_NAME-21 "受光平行スリット"
*MEAS_COND_AXIS_NAME-22 "調整用受光スリット"
*MEAS_COND_AXIS_NAME-23 ""
*MEAS_COND_AXIS_NAME-24 ""
*MEAS_COND_AXIS_NAME-25 "Zd"
*MEAS_COND_AXIS_NAME-26 "アッテネータ"
*MEAS_COND_AXIS_NAME-27 "検出器モノクロメータ"
*MEAS_COND_AXIS_NAME-28 "モノクロメータスリット"
*MEAS_COND_AXIS_NAME-29 "プライマリビーム"
*MEAS_COND_AXIS_NAME-30 "PHA"
*MEAS_COND_AXIS_NAME_INTERNAL-0 "TwoThetaTheta"
*MEAS_COND_AXIS_NAME_INTERNAL-1 "TwoTheta"
*MEAS_COND_AXIS_NAME_INTERNAL-2 "Omega"
*MEAS_COND_AXIS_NAME_INTERNAL-3 "Z"
*MEAS_COND_AXIS_NAME_INTERNAL-4 "TwoThetaOmega"
*MEAS_COND_AXIS_NAME_INTERNAL-5 "ThetaS"
*MEAS_COND_AXIS_NAME_INTERNAL-6 "ThetaD"
*MEAS_COND_AXIS_NAME_INTERNAL-7 "Ts"
*MEAS_COND_AXIS_NAME_INTERNAL-8 "CBO"
*MEAS_COND_AXIS_NAME_INTERNAL-9 "CBO-M"
*MEAS_COND_AXIS_NAME_INTERNAL-10 "IncidentSollerSlit"
*MEAS_COND_AXIS_NAME_INTERNAL-11 "IncidentSlitBox"
*MEAS_COND_AXIS_NAME_INTERNAL-12 "IncidentSlitBox-_Axis"
*MEAS_COND_AXIS_NAME_INTERNAL-13 "Zs"
*MEAS_COND_AXIS_NAME_INTERNAL-14 "IncidentMonochromator"
*MEAS_COND_AXIS_NAME_INTERNAL-15 "IncidentAxdSlit"
*MEAS_COND_AXIS_NAME_INTERNAL-16 "CenterSlit"
*MEAS_COND_AXIS_NAME_INTERNAL-17 "Filter"
*MEAS_COND_AXIS_NAME_INTERNAL-18 "ReceivingSlitBox1"
*MEAS_COND_AXIS_NAME_INTERNAL-19 "ReceivingSlitBox2"
*MEAS_COND_AXIS_NAME_INTERNAL-20 "ReceivingOptics"
*MEAS_COND_AXIS_NAME_INTERNAL-21 "ReceivingSollerSlit"
*MEAS_COND_AXIS_NAME_INTERNAL-22 "ReceivingAxdSlit"
*MEAS_COND_AXIS_NAME_INTERNAL-23 "ReceivingSlitBox1-_Axis"
*MEAS_COND_AXIS_NAME_INTERNAL-24 "ReceivingSlitBox2-_Axis"
*MEAS_COND_AXIS_NAME_INTERNAL-25 "ReceivingSlitBox2-Zd"
*MEAS_COND_AXIS_NAME_INTERNAL-26 "Attenuator"
*MEAS_COND_AXIS_NAME_INTERNAL-27 "CounterMonochromator"
*MEAS_COND_AXIS_NAME_INTERNAL-28 "CounterSlit"
*MEAS_COND_AXIS_NAME_INTERNAL-29 "IncidentPrimary"
*MEAS_COND_AXIS_NAME_INTERNAL-30 "PHA"
*MEAS_COND_AXIS_NAME_MAGICNO-0 "83951616.0000000000"
*MEAS_COND_AXIS_NAME_MAGICNO-1 "268632064.0000000000"
*MEAS_COND_AXIS_NAME_MAGICNO-2 "268500992.0000000000"
*MEAS_COND_AXIS_NAME_MAGICNO-3 "285278208.0000000000"
*MEAS_COND_AXIS_NAME_MAGICNO-4 "83951616.0000000000"
*MEAS_COND_AXIS_NAME_MAGICNO-5 "131072.0000000000"
*MEAS_COND_AXIS_NAME_MAGICNO-6 "131072.0000000000"
*MEAS_COND_AXIS_NAME_MAGICNO-7 "318898176.0000000000"
*MEAS_COND_AXIS_NAME_MAGICNO-8 "20971521.0000000000"
*MEAS_COND_AXIS_NAME_MAGICNO-9 "285343744.0000000000"
*MEAS_COND_AXIS_NAME_MAGICNO-10 "20971521.0000000000"
*MEAS_COND_AXIS_NAME_MAGICNO-11 "22020097.0000000000"
*MEAS_COND_AXIS_NAME_MAGICNO-12 "25165824.0000000000"
*MEAS_COND_AXIS_NAME_MAGICNO-13 "318898176.0000000000"
*MEAS_COND_AXIS_NAME_MAGICNO-14 "1.0000000000"
*MEAS_COND_AXIS_NAME_MAGICNO-15 "20971521.0000000000"
*MEAS_COND_AXIS_NAME_MAGICNO-16 "20971521.0000000000"
*MEAS_COND_AXIS_NAME_MAGICNO-17 "20971521.0000000000"
*MEAS_COND_AXIS_NAME_MAGICNO-18 "23068673.0000000000"
*MEAS_COND_AXIS_NAME_MAGICNO-19 "23068673.0000000000"
*MEAS_COND_AXIS_NAME_MAGICNO-20 "20971521.0000000000"
*MEAS_COND_AXIS_NAME_MAGICNO-21 "20971521.0000000000"
*MEAS_COND_AXIS_NAME_MAGICNO-22 "20971521.0000000000"
*MEAS_COND_AXIS_NAME_MAGICNO-23 "25165824.0000000000"
*MEAS_COND_AXIS_NAME_MAGICNO-24 "25165824.0000000000"
*MEAS_COND_AXIS_NAME_MAGICNO-25 "285343744.0000000000"
*MEAS_COND_AXIS_NAME_MAGICNO-26 "17301505.0000000000"
*MEAS_COND_AXIS_NAME_MAGICNO-27 "20971521.0000000000"
*MEAS_COND_AXIS_NAME_MAGICNO-28 "20971521.0000000000"
*MEAS_COND_AXIS_NAME_MAGICNO-29 "20971521.0000000000"
*MEAS_COND_AXIS_NAME_MAGICNO-30 "0.0000000000"
*MEAS_COND_AXIS_OFFSET-0 "-"
*MEAS_COND_AXIS_OFFSET-1 "-0.0310000000"
*MEAS_COND_AXIS_OFFSET-2 "0.1589000000"
*MEAS_COND_AXIS_OFFSET-3 "-"
*MEAS_COND_AXIS_OFFSET-4 "-"
*MEAS_COND_AXIS_OFFSET-5 "0.1589000000"
*MEAS_COND_AXIS_OFFSET-6 "-0.1899000000"
*MEAS_COND_AXIS_OFFSET-7 "-"
*MEAS_COND_AXIS_OFFSET-8 "-"
*MEAS_COND_AXIS_OFFSET-9 "-"
*MEAS_COND_AXIS_OFFSET-10 "-"
*MEAS_COND_AXIS_OFFSET-11 "-"
*MEAS_COND_AXIS_OFFSET-12 "-"
*MEAS_COND_AXIS_OFFSET-13 "-"
*MEAS_COND_AXIS_OFFSET-14 "-"
*MEAS_COND_AXIS_OFFSET-15 "-"
*MEAS_COND_AXIS_OFFSET-16 "-"
*MEAS_COND_AXIS_OFFSET-17 "-"
*MEAS_COND_AXIS_OFFSET-18 "-"
*MEAS_COND_AXIS_OFFSET-19 "-"
*MEAS_COND_AXIS_OFFSET-20 "-"
*MEAS_COND_AXIS_OFFSET-21 "-"
*MEAS_COND_AXIS_OFFSET-22 "-"
*MEAS_COND_AXIS_OFFSET-23 "-"
*MEAS_COND_AXIS_OFFSET-24 "-"
*MEAS_COND_AXIS_OFFSET-25 "-"
*MEAS_COND_AXIS_OFFSET-26 "-"
*MEAS_COND_AXIS_OFFSET-27 "-"
*MEAS_COND_AXIS_OFFSET-28 "-"
*MEAS_COND_AXIS_OFFSET-29 "-"
*MEAS_COND_AXIS_OFFSET-30 "-"
*MEAS_COND_AXIS_POSITION-0 "0.0000000000"
*MEAS_COND_AXIS_POSITION-1 "0.0000000000"
*MEAS_COND_AXIS_POSITION-2 "0.0000000000"
*MEAS_COND_AXIS_POSITION-3 "-2.9326600000"
*MEAS_COND_AXIS_POSITION-4 "0.0000000000"
*MEAS_COND_AXIS_POSITION-5 "0.0000000000"
*MEAS_COND_AXIS_POSITION-6 "0.0000000000"
*MEAS_COND_AXIS_POSITION-7 "-0.7498700000"
*MEAS_COND_AXIS_POSITION-8 "BB"
*MEAS_COND_AXIS_POSITION-9 "0.0000000000"
*MEAS_COND_AXIS_POSITION-10 "Soller_slit_5.0deg"
*MEAS_COND_AXIS_POSITION-11 "2/3deg"
*MEAS_COND_AXIS_POSITION-12 "2.2088000000"
*MEAS_COND_AXIS_POSITION-13 "-0.6412500000"
*MEAS_COND_AXIS_POSITION-14 "0.0000000000"
*MEAS_COND_AXIS_POSITION-15 "10.0mm"
*MEAS_COND_AXIS_POSITION-16 "None"
*MEAS_COND_AXIS_POSITION-17 "Cu_K-beta"
*MEAS_COND_AXIS_POSITION-18 "13.000mm"
*MEAS_COND_AXIS_POSITION-19 "13.000mm"
*MEAS_COND_AXIS_POSITION-20 "No_unit"
*MEAS_COND_AXIS_POSITION-21 "Soller_slit_5.0deg"
*MEAS_COND_AXIS_POSITION-22 "None"
*MEAS_COND_AXIS_POSITION-23 "13.0000000000"
*MEAS_COND_AXIS_POSITION-24 "13.0000000000"
*MEAS_COND_AXIS_POSITION-25 "0.0281300000"
*MEAS_COND_AXIS_POSITION-26 "Open"
*MEAS_COND_AXIS_POSITION-27 "None"
*MEAS_COND_AXIS_POSITION-28 "None"
*MEAS_COND_AXIS_POSITION-29 "None"
*MEAS_COND_AXIS_POSITION-30 "38.0000000000"
*MEAS_COND_AXIS_UNIT-0 "deg"
*MEAS_COND_AXIS_UNIT-1 "deg"
*MEAS_COND_AXIS_UNIT-2 "deg"
*MEAS_COND_AXIS_UNIT-3 "mm"
*MEAS_COND_AXIS_UNIT-4 "deg"
*MEAS_COND_AXIS_UNIT-5 "deg"
*MEAS_COND_AXIS_UNIT-6 "deg"
*MEAS_COND_AXIS_UNIT-7 "mm"
*MEAS_COND_AXIS_UNIT-8 ""
*MEAS_COND_AXIS_UNIT-9 "pulse"
*MEAS_COND_AXIS_UNIT-10 ""
*MEAS_COND_AXIS_UNIT-11 ""
*MEAS_COND_AXIS_UNIT-12 "mm"
*MEAS_COND_AXIS_UNIT-13 "mm"
*MEAS_COND_AXIS_UNIT-14 ""
*MEAS_COND_AXIS_UNIT-15 ""
*MEAS_COND_AXIS_UNIT-16 ""
*MEAS_COND_AXIS_UNIT-17 ""
*MEAS_COND_AXIS_UNIT-18 ""
*MEAS_COND_AXIS_UNIT-19 ""
*MEAS_COND_AXIS_UNIT-20 ""
*MEAS_COND_AXIS_UNIT-21 ""
*MEAS_COND_AXIS_UNIT-22 ""
*MEAS_COND_AXIS_UNIT-23 "mm"
*MEAS_COND_AXIS_UNIT-24 "mm"
*MEAS_COND_AXIS_UNIT-25 "mm"
*MEAS_COND_AXIS_UNIT-26 ""
*MEAS_COND_AXIS_UNIT-27 ""
*MEAS_COND_AXIS_UNIT-28 ""
*MEAS_COND_AXIS_UNIT-29 ""
*MEAS_COND_AXIS_UNIT-30 "div"
*MEAS_COND_COUNTER_CNTLOSS_CORR "0.0000000000"
*MEAS_COND_COUNTER_PHABASE "38.0000000000"
*MEAS_COND_COUNTER_PHAWINDOW "16.0000000000"
*MEAS_COND_COUNTER_PHA_UNIT "div"
*MEAS_COND_COUNTER_TAUDIFF "30.0000000000"
*MEAS_COND_COUNTER_TAUINT "0.0000000000"
*MEAS_COND_IRRADIATION_MODE "OFF"
*MEAS_COND_IRRADIATION_WIDTH ""
*MEAS_COND_OPT_ATTR "集中法"
*MEAS_COND_OPT_NAME "@集中法"
*MEAS_COND_UNSYMMETRIC_MODE "OFF"
*MEAS_COND_XG_CURRENT "30.0000000000"
*MEAS_COND_XG_VOLTAGE "40.0000000000"
*MEAS_COND_XG_WAVE_TYPE "Ka"
*MEAS_DATA_COUNT "5001.0000000000"
*MEAS_SCAN_AXIS_X "2θ/θ"
*MEAS_SCAN_AXIS_X_INTERNAL "TwoThetaTheta"
*MEAS_SCAN_END_TIME "12/13/22 10:39:23"
*MEAS_SCAN_MODE "CONTINUOUS"
*MEAS_SCAN_MONITOR "0"
*MEAS_SCAN_RESOLUTION_X "0.0002"
*MEAS_SCAN_SPEED "2.5"
*MEAS_SCAN_SPEED_UNIT "deg/min"
*MEAS_SCAN_START "20.0000000000"
*MEAS_SCAN_START_TIME "12/13/22 10:17:59"
*MEAS_SCAN_STEP "0.0100000000"
*MEAS_SCAN_STOP "70.0000000000"
*MEAS_SCAN_UNIT_X "deg"
*MEAS_SCAN_UNIT_Y "counts"
*RAS_HEADER_END
*RAS_INT_START
20.0000 991.0000 1.0000
20.0100 957.0000 1.0000
20.0200 923.0000 1.0000
20.0300 956.0000 1.0000
20.0400 884.0000 1.0000
20.0500 914.0000 1.0000
20.0600 984.0000 1.0000
20.0700 988.0000 1.0000
20.0800 914.0000 1.0000
20.0900 928.0000 1.0000
20.1000 928.0000 1.0000
20.1100 885.0000 1.0000
20.1200 936.0000 1.0000
20.1300 900.0000 1.0000
20.1400 895.0000 1.0000
20.1500 919.0000 1.0000
20.1600 949.0000 1.0000
20.1700 916.0000 1.0000
20.1800 925.0000 1.0000
20.1900 913.0000 1.0000
20.2000 963.0000 1.0000
20.2100 908.0000 1.0000
20.2200 924.0000 1.0000
20.2300 910.0000 1.0000
20.2400 943.0000 1.0000
20.2500 899.0000 1.0000
20.2600 873.0000 1.0000
20.2700 942.0000 1.0000
20.2800 888.0000 1.0000
20.2900 924.0000 1.0000
20.3000 961.0000 1.0000
20.3100 907.0000 1.0000
20.3200 930.0000 1.0000
20.3300 955.0000 1.0000
20.3400 924.0000 1.0000
20.3500 965.0000 1.0000
20.3600 891.0000 1.0000
20.3700 899.0000 1.0000
20.3800 934.0000 1.0000
20.3900 907.0000 1.0000
20.4000 952.0000 1.0000
20.4100 932.0000 1.0000
20.4200 908.0000 1.0000
20.4300 908.0000 1.0000
20.4400 922.0000 1.0000
20.4500 971.0000 1.0000
20.4600 917.0000 1.0000
20.4700 956.0000 1.0000
20.4800 915.0000 1.0000
20.4900 976.0000 1.0000
20.5000 915.0000 1.0000
20.5100 978.0000 1.0000
20.5200 909.0000 1.0000
20.5300 892.0000 1.0000
20.5400 886.0000 1.0000
20.5500 914.0000 1.0000
20.5600 910.0000 1.0000
20.5700 942.0000 1.0000
20.5800 947.0000 1.0000
20.5900 975.0000 1.0000
20.6000 949.0000 1.0000
20.6100 941.0000 1.0000
20.6200 973.0000 1.0000
20.6300 918.0000 1.0000
20.6400 905.0000 1.0000
20.6500 896.0000 1.0000
20.6600 935.0000 1.0000
20.6700 865.0000 1.0000
20.6800 886.0000 1.0000
20.6900 896.0000 1.0000
20.7000 955.0000 1.0000
20.7100 877.0000 1.0000
20.7200 908.0000 1.0000
20.7300 859.0000 1.0000
20.7400 914.0000 1.0000
20.7500 892.0000 1.0000
20.7600 933.0000 1.0000
20.7700 925.0000 1.0000
20.7800 889.0000 1.0000
20.7900 930.0000 1.0000
20.8000 891.0000 1.0000
20.8100 904.0000 1.0000
20.8200 928.0000 1.0000
20.8300 936.0000 1.0000
20.8400 908.0000 1.0000
20.8500 916.0000 1.0000
20.8600 960.0000 1.0000
20.8700 892.0000 1.0000
20.8800 881.0000 1.0000
20.8900 889.0000 1.0000
20.9000 925.0000 1.0000
20.9100 922.0000 1.0000
20.9200 907.0000 1.0000
20.9300 959.0000 1.0000
20.9400 868.0000 1.0000
20.9500 920.0000 1.0000
20.9600 915.0000 1.0000
20.9700 941.0000 1.0000
20.9800 878.0000 1.0000
20.9900 961.0000 1.0000
21.0000 908.0000 1.0000
21.0100 926.0000 1.0000
21.0200 872.0000 1.0000
21.0300 905.0000 1.0000
21.0400 908.0000 1.0000
21.0500 931.0000 1.0000
21.0600 944.0000 1.0000
21.0700 865.0000 1.0000
21.0800 915.0000 1.0000
21.0900 951.0000 1.0000
21.1000 938.0000 1.0000
21.1100 925.0000 1.0000
21.1200 946.0000 1.0000
21.1300 957.0000 1.0000
21.1400 957.0000 1.0000
21.1500 938.0000 1.0000
21.1600 973.0000 1.0000
21.1700 863.0000 1.0000
21.1800 905.0000 1.0000
21.1900 947.0000 1.0000
21.2000 941.0000 1.0000
21.2100 936.0000 1.0000
21.2200 912.0000 1.0000
21.2300 890.0000 1.0000
21.2400 942.0000 1.0000
21.2500 916.0000 1.0000
21.2600 932.0000 1.0000
21.2700 965.0000 1.0000
21.2800 929.0000 1.0000
21.2900 888.0000 1.0000
21.3000 911.0000 1.0000
21.3100 917.0000 1.0000
21.3200 940.0000 1.0000
21.3300 900.0000 1.0000
21.3400 949.0000 1.0000
21.3500 947.0000 1.0000
21.3600 893.0000 1.0000
21.3700 899.0000 1.0000
21.3800 900.0000 1.0000
21.3900 890.0000 1.0000
21.4000 883.0000 1.0000
21.4100 924.0000 1.0000
21.4200 939.0000 1.0000
21.4300 932.0000 1.0000
21.4400 909.0000 1.0000
21.4500 914.0000 1.0000
21.4600 907.0000 1.0000
21.4700 954.0000 1.0000
21.4800 945.0000 1.0000
21.4900 934.0000 1.0000
21.5000 919.0000 1.0000
21.5100 905.0000 1.0000
21.5200 923.0000 1.0000
21.5300 890.0000 1.0000
21.5400 886.0000 1.0000
21.5500 916.0000 1.0000
21.5600 934.0000 1.0000
21.5700 984.0000 1.0000
21.5800 932.0000 1.0000
21.5900 910.0000 1.0000
21.6000 914.0000 1.0000
21.6100 920.0000 1.0000
21.6200 894.0000 1.0000
21.6300 921.0000 1.0000
21.6400 908.0000 1.0000
21.6500 938.0000 1.0000
21.6600 877.0000 1.0000
21.6700 871.0000 1.0000
21.6800 929.0000 1.0000
21.6900 921.0000 1.0000
21.7000 895.0000 1.0000
21.7100 908.0000 1.0000
21.7200 931.0000 1.0000
21.7300 878.0000 1.0000
21.7400 898.0000 1.0000
21.7500 969.0000 1.0000
21.7600 891.0000 1.0000
21.7700 909.0000 1.0000
21.7800 875.0000 1.0000
21.7900 945.0000 1.0000
21.8000 879.0000 1.0000
21.8100 889.0000 1.0000
21.8200 917.0000 1.0000
21.8300 876.0000 1.0000
21.8400 914.0000 1.0000
21.8500 932.0000 1.0000
21.8600 957.0000 1.0000
21.8700 911.0000 1.0000
21.8800 887.0000 1.0000
21.8900 855.0000 1.0000
21.9000 920.0000 1.0000
21.9100 903.0000 1.0000
21.9200 919.0000 1.0000
21.9300 914.0000 1.0000
21.9400 924.0000 1.0000
21.9500 859.0000 1.0000
21.9600 916.0000 1.0000
21.9700 929.0000 1.0000
21.9800 954.0000 1.0000
21.9900 939.0000 1.0000
22.0000 897.0000 1.0000
22.0100 945.0000 1.0000
22.0200 899.0000 1.0000
22.0300 870.0000 1.0000
22.0400 890.0000 1.0000
22.0500 931.0000 1.0000
22.0600 916.0000 1.0000
22.0700 947.0000 1.0000
22.0800 875.0000 1.0000
22.0900 929.0000 1.0000
22.1000 896.0000 1.0000
22.1100 878.0000 1.0000
22.1200 911.0000 1.0000
22.1300 860.0000 1.0000
22.1400 925.0000 1.0000
22.1500 896.0000 1.0000
22.1600 900.0000 1.0000
22.1700 893.0000 1.0000
22.1800 947.0000 1.0000
22.1900 916.0000 1.0000
22.2000 937.0000 1.0000
22.2100 946.0000 1.0000
22.2200 864.0000 1.0000
22.2300 870.0000 1.0000
22.2400 885.0000 1.0000
22.2500 837.0000 1.0000
22.2600 876.0000 1.0000
22.2700 884.0000 1.0000
22.2800 926.0000 1.0000
22.2900 940.0000 1.0000
22.3000 918.0000 1.0000
22.3100 903.0000 1.0000
22.3200 918.0000 1.0000
22.3300 896.0000 1.0000
22.3400 920.0000 1.0000
22.3500 904.0000 1.0000
22.3600 902.0000 1.0000
22.3700 868.0000 1.0000
22.3800 909.0000 1.0000
22.3900 902.0000 1.0000
22.4000 918.0000 1.0000
22.4100 936.0000 1.0000
22.4200 887.0000 1.0000
22.4300 923.0000 1.0000
22.4400 936.0000 1.0000
22.4500 936.0000 1.0000
22.4600 926.0000 1.0000
22.4700 952.0000 1.0000
22.4800 865.0000 1.0000
22.4900 937.0000 1.0000
22.5000 882.0000 1.0000
22.5100 871.0000 1.0000
22.5200 865.0000 1.0000
22.5300 862.0000 1.0000
22.5400 929.0000 1.0000
22.5500 949.0000 1.0000
22.5600 904.0000 1.0000
22.5700 891.0000 1.0000
22.5800 879.0000 1.0000
22.5900 924.0000 1.0000
22.6000 922.0000 1.0000
22.6100 856.0000 1.0000
22.6200 904.0000 1.0000
22.6300 873.0000 1.0000
22.6400 940.0000 1.0000
22.6500 898.0000 1.0000
22.6600 900.0000 1.0000
22.6700 924.0000 1.0000
22.6800 894.0000 1.0000
22.6900 887.0000 1.0000
22.7000 905.0000 1.0000
22.7100 900.0000 1.0000
22.7200 891.0000 1.0000
22.7300 917.0000 1.0000
22.7400 887.0000 1.0000
22.7500 904.0000 1.0000
22.7600 907.0000 1.0000
22.7700 896.0000 1.0000
22.7800 885.0000 1.0000
22.7900 899.0000 1.0000
22.8000 928.0000 1.0000
22.8100 889.0000 1.0000
22.8200 910.0000 1.0000
22.8300 917.0000 1.0000
22.8400 924.0000 1.0000
22.8500 933.0000 1.0000
22.8600 950.0000 1.0000
22.8700 889.0000 1.0000
22.8800 873.0000 1.0000
22.8900 897.0000 1.0000
22.9000 858.0000 1.0000
22.9100 915.0000 1.0000
22.9200 875.0000 1.0000
22.9300 900.0000 1.0000
22.9400 898.0000 1.0000
22.9500 899.0000 1.0000
22.9600 968.0000 1.0000
22.9700 900.0000 1.0000
22.9800 919.0000 1.0000
22.9900 873.0000 1.0000
23.0000 890.0000 1.0000
23.0100 864.0000 1.0000
23.0200 926.0000 1.0000
23.0300 939.0000 1.0000
23.0400 961.0000 1.0000
23.0500 931.0000 1.0000
23.0600 877.0000 1.0000
23.0700 854.0000 1.0000
23.0800 876.0000 1.0000
23.0900 923.0000 1.0000
23.1000 924.0000 1.0000
23.1100 902.0000 1.0000
23.1200 870.0000 1.0000
23.1300 917.0000 1.0000
23.1400 929.0000 1.0000
23.1500 943.0000 1.0000
23.1600 925.0000 1.0000
23.1700 886.0000 1.0000
23.1800 907.0000 1.0000
23.1900 940.0000 1.0000
23.2000 906.0000 1.0000
23.2100 902.0000 1.0000
23.2200 915.0000 1.0000
23.2300 901.0000 1.0000
23.2400 891.0000 1.0000
23.2500 891.0000 1.0000
23.2600 896.0000 1.0000
23.2700 869.0000 1.0000
23.2800 871.0000 1.0000
23.2900 942.0000 1.0000
23.3000 902.0000 1.0000
23.3100 927.0000 1.0000
23.3200 906.0000 1.0000
23.3300 864.0000 1.0000
23.3400 848.0000 1.0000
23.3500 841.0000 1.0000
23.3600 875.0000 1.0000
23.3700 839.0000 1.0000
23.3800 849.0000 1.0000
23.3900 903.0000 1.0000
23.4000 929.0000 1.0000
23.4100 907.0000 1.0000
23.4200 855.0000 1.0000
23.4300 881.0000 1.0000
23.4400 933.0000 1.0000
23.4500 918.0000 1.0000
23.4600 881.0000 1.0000
23.4700 911.0000 1.0000
23.4800 888.0000 1.0000
23.4900 908.0000 1.0000
23.5000 872.0000 1.0000
23.5100 907.0000 1.0000
23.5200 868.0000 1.0000
23.5300 876.0000 1.0000
23.5400 927.0000 1.0000
23.5500 919.0000 1.0000
23.5600 907.0000 1.0000
23.5700 898.0000 1.0000
23.5800 860.0000 1.0000
23.5900 883.0000 1.0000
23.6000 864.0000 1.0000
23.6100 870.0000 1.0000
23.6200 884.0000 1.0000
23.6300 901.0000 1.0000
23.6400 896.0000 1.0000
23.6500 898.0000 1.0000
23.6600 913.0000 1.0000
23.6700 908.0000 1.0000
23.6800 894.0000 1.0000
23.6900 880.0000 1.0000
23.7000 895.0000 1.0000
23.7100 936.0000 1.0000
23.7200 878.0000 1.0000
23.7300 921.0000 1.0000
23.7400 880.0000 1.0000
23.7500 868.0000 1.0000
23.7600 878.0000 1.0000
23.7700 929.0000 1.0000
23.7800 861.0000 1.0000
23.7900 892.0000 1.0000
23.8000 952.0000 1.0000
23.8100 907.0000 1.0000
23.8200 841.0000 1.0000
23.8300 935.0000 1.0000
23.8400 921.0000 1.0000
23.8500 951.0000 1.0000
23.8600 866.0000 1.0000
23.8700 909.0000 1.0000
23.8800 899.0000 1.0000
23.8900 913.0000 1.0000
23.9000 886.0000 1.0000
23.9100 934.0000 1.0000
23.9200 886.0000 1.0000
23.9300 937.0000 1.0000
23.9400 889.0000 1.0000
23.9500 929.0000 1.0000
23.9600 911.0000 1.0000
23.9700 928.0000 1.0000
23.9800 907.0000 1.0000
23.9900 957.0000 1.0000
24.0000 974.0000 1.0000
24.0100 929.0000 1.0000
24.0200 936.0000 1.0000
24.0300 956.0000 1.0000
24.0400 976.0000 1.0000
24.0500 974.0000 1.0000
24.0600 982.0000 1.0000
24.0700 909.0000 1.0000
24.0800 1009.0000 1.0000
24.0900 1037.0000 1.0000
24.1000 1007.0000 1.0000
24.1100 991.0000 1.0000
24.1200 1000.0000 1.0000
24.1300 947.0000 1.0000
24.1400 886.0000 1.0000
24.1500 968.0000 1.0000
24.1600 958.0000 1.0000
24.1700 946.0000 1.0000
24.1800 971.0000 1.0000
24.1900 937.0000 1.0000
24.2000 919.0000 1.0000
24.2100 921.0000 1.0000
24.2200 939.0000 1.0000
24.2300 921.0000 1.0000
24.2400 872.0000 1.0000
24.2500 898.0000 1.0000
24.2600 956.0000 1.0000
24.2700 932.0000 1.0000
24.2800 912.0000 1.0000
24.2900 904.0000 1.0000
24.3000 864.0000 1.0000
24.3100 887.0000 1.0000
24.3200 885.0000 1.0000
24.3300 920.0000 1.0000
24.3400 903.0000 1.0000
24.3500 891.0000 1.0000
24.3600 902.0000 1.0000
24.3700 896.0000 1.0000
24.3800 911.0000 1.0000
24.3900 891.0000 1.0000
24.4000 893.0000 1.0000
24.4100 885.0000 1.0000
24.4200 829.0000 1.0000
24.4300 882.0000 1.0000
24.4400 876.0000 1.0000
24.4500 877.0000 1.0000
24.4600 842.0000 1.0000
24.4700 865.0000 1.0000
24.4800 878.0000 1.0000
24.4900 842.0000 1.0000
24.5000 850.0000 1.0000
24.5100 876.0000 1.0000
24.5200 913.0000 1.0000
24.5300 882.0000 1.0000
24.5400 935.0000 1.0000
24.5500 915.0000 1.0000
24.5600 889.0000 1.0000
24.5700 929.0000 1.0000
24.5800 861.0000 1.0000
24.5900 853.0000 1.0000
24.6000 828.0000 1.0000
24.6100 866.0000 1.0000
24.6200 846.0000 1.0000
24.6300 871.0000 1.0000
24.6400 873.0000 1.0000
24.6500 860.0000 1.0000
24.6600 847.0000 1.0000
24.6700 845.0000 1.0000
24.6800 864.0000 1.0000
24.6900 843.0000 1.0000
24.7000 849.0000 1.0000
24.7100 867.0000 1.0000
24.7200 884.0000 1.0000
24.7300 893.0000 1.0000
24.7400 863.0000 1.0000
24.7500 844.0000 1.0000
24.7600 864.0000 1.0000
24.7700 884.0000 1.0000
24.7800 867.0000 1.0000
24.7900 848.0000 1.0000
24.8000 912.0000 1.0000
24.8100 883.0000 1.0000
24.8200 912.0000 1.0000
24.8300 870.0000 1.0000
24.8400 878.0000 1.0000
24.8500 885.0000 1.0000
24.8600 839.0000 1.0000
24.8700 834.0000 1.0000
24.8800 911.0000 1.0000
24.8900 843.0000 1.0000
24.9000 821.0000 1.0000
24.9100 846.0000 1.0000
24.9200 864.0000 1.0000
24.9300 879.0000 1.0000
24.9400 865.0000 1.0000
24.9500 869.0000 1.0000
24.9600 880.0000 1.0000
24.9700 884.0000 1.0000
24.9800 876.0000 1.0000
24.9900 894.0000 1.0000
25.0000 845.0000 1.0000
25.0100 840.0000 1.0000
25.0200 845.0000 1.0000
25.0300 896.0000 1.0000
25.0400 881.0000 1.0000
25.0500 896.0000 1.0000
25.0600 821.0000 1.0000
25.0700 836.0000 1.0000
25.0800 856.0000 1.0000
25.0900 859.0000 1.0000
25.1000 828.0000 1.0000
25.1100 808.0000 1.0000
25.1200 847.0000 1.0000
25.1300 890.0000 1.0000
25.1400 837.0000 1.0000
25.1500 833.0000 1.0000
25.1600 855.0000 1.0000
25.1700 819.0000 1.0000
25.1800 891.0000 1.0000
25.1900 868.0000 1.0000
25.2000 878.0000 1.0000
25.2100 881.0000 1.0000
25.2200 840.0000 1.0000
25.2300 864.0000 1.0000
25.2400 830.0000 1.0000
25.2500 852.0000 1.0000
25.2600 853.0000 1.0000
25.2700 892.0000 1.0000
25.2800 910.0000 1.0000
25.2900 847.0000 1.0000
25.3000 814.0000 1.0000
25.3100 877.0000 1.0000
25.3200 877.0000 1.0000
25.3300 894.0000 1.0000
25.3400 875.0000 1.0000
25.3500 857.0000 1.0000
25.3600 890.0000 1.0000
25.3700 843.0000 1.0000
25.3800 853.0000 1.0000
25.3900 856.0000 1.0000
25.4000 860.0000 1.0000
25.4100 847.0000 1.0000
25.4200 848.0000 1.0000
25.4300 841.0000 1.0000
25.4400 820.0000 1.0000
25.4500 896.0000 1.0000
25.4600 871.0000 1.0000
25.4700 881.0000 1.0000
25.4800 890.0000 1.0000
25.4900 888.0000 1.0000
25.5000 919.0000 1.0000
25.5100 894.0000 1.0000
25.5200 908.0000 1.0000
25.5300 870.0000 1.0000
25.5400 885.0000 1.0000
25.5500 881.0000 1.0000
25.5600 856.0000 1.0000
25.5700 863.0000 1.0000
25.5800 941.0000 1.0000
25.5900 871.0000 1.0000
25.6000 878.0000 1.0000
25.6100 855.0000 1.0000
25.6200 854.0000 1.0000
25.6300 869.0000 1.0000
25.6400 859.0000 1.0000
25.6500 888.0000 1.0000
25.6600 877.0000 1.0000
25.6700 898.0000 1.0000
25.6800 834.0000 1.0000
25.6900 820.0000 1.0000
25.7000 866.0000 1.0000
25.7100 834.0000 1.0000
25.7200 869.0000 1.0000
25.7300 928.0000 1.0000
25.7400 892.0000 1.0000
25.7500 866.0000 1.0000
25.7600 873.0000 1.0000
25.7700 921.0000 1.0000
25.7800 847.0000 1.0000
25.7900 901.0000 1.0000
25.8000 926.0000 1.0000
25.8100 887.0000 1.0000
25.8200 920.0000 1.0000
25.8300 918.0000 1.0000
25.8400 914.0000 1.0000
25.8500 873.0000 1.0000
25.8600 898.0000 1.0000
25.8700 939.0000 1.0000
25.8800 912.0000 1.0000
25.8900 923.0000 1.0000
25.9000 915.0000 1.0000
25.9100 910.0000 1.0000
25.9200 885.0000 1.0000
25.9300 907.0000 1.0000
25.9400 920.0000 1.0000
25.9500 925.0000 1.0000
25.9600 923.0000 1.0000
25.9700 957.0000 1.0000
25.9800 952.0000 1.0000
25.9900 972.0000 1.0000
26.0000 915.0000 1.0000
26.0100 906.0000 1.0000
26.0200 972.0000 1.0000
26.0300 967.0000 1.0000
26.0400 924.0000 1.0000
26.0500 967.0000 1.0000
26.0600 990.0000 1.0000
26.0700 993.0000 1.0000
26.0800 1022.0000 1.0000
26.0900 978.0000 1.0000
26.1000 999.0000 1.0000
26.1100 1027.0000 1.0000
26.1200 1015.0000 1.0000
26.1300 1039.0000 1.0000
26.1400 1049.0000 1.0000
26.1500 1074.0000 1.0000
26.1600 1114.0000 1.0000
26.1700 1096.0000 1.0000
26.1800 1169.0000 1.0000
26.1900 1153.0000 1.0000
26.2000 1179.0000 1.0000
26.2100 1187.0000 1.0000
26.2200 1287.0000 1.0000
26.2300 1232.0000 1.0000
26.2400 1287.0000 1.0000
26.2500 1347.0000 1.0000
26.2600 1344.0000 1.0000
26.2700 1381.0000 1.0000
26.2800 1474.0000 1.0000
26.2900 1588.0000 1.0000
26.3000 1626.0000 1.0000
26.3100 1634.0000 1.0000
26.3200 1666.0000 1.0000
26.3300 1780.0000 1.0000
26.3400 1941.0000 1.0000
26.3500 1953.0000 1.0000
26.3600 2138.0000 1.0000
26.3700 2245.0000 1.0000
26.3800 2394.0000 1.0000
26.3900 2568.0000 1.0000
26.4000 2777.0000 1.0000
26.4100 2805.0000 1.0000
26.4200 2931.0000 1.0000
26.4300 3092.0000 1.0000
26.4400 3149.0000 1.0000
26.4500 3210.0000 1.0000
26.4600 3132.0000 1.0000
26.4700 3185.0000 1.0000
26.4800 3051.0000 1.0000
26.4900 3042.0000 1.0000
26.5000 3024.0000 1.0000
26.5100 2808.0000 1.0000
26.5200 2693.0000 1.0000
26.5300 2465.0000 1.0000
26.5400 2432.0000 1.0000
26.5500 2282.0000 1.0000
26.5600 2119.0000 1.0000
26.5700 1996.0000 1.0000
26.5800 1932.0000 1.0000
26.5900 1856.0000 1.0000
26.6000 1719.0000 1.0000
26.6100 1646.0000 1.0000
26.6200 1573.0000 1.0000
26.6300 1515.0000 1.0000
26.6400 1436.0000 1.0000
26.6500 1420.0000 1.0000
26.6600 1423.0000 1.0000
26.6700 1384.0000 1.0000
26.6800 1331.0000 1.0000
26.6900 1224.0000 1.0000
26.7000 1202.0000 1.0000
26.7100 1183.0000 1.0000
26.7200 1174.0000 1.0000
26.7300 1130.0000 1.0000
26.7400 1108.0000 1.0000
26.7500 1125.0000 1.0000
26.7600 1079.0000 1.0000
26.7700 1068.0000 1.0000
26.7800 1029.0000 1.0000
26.7900 1036.0000 1.0000
26.8000 980.0000 1.0000
26.8100 972.0000 1.0000
26.8200 1043.0000 1.0000
26.8300 1010.0000 1.0000
26.8400 926.0000 1.0000
26.8500 955.0000 1.0000
26.8600 915.0000 1.0000
26.8700 974.0000 1.0000
26.8800 976.0000 1.0000
26.8900 946.0000 1.0000
26.9000 928.0000 1.0000
26.9100 933.0000 1.0000
26.9200 877.0000 1.0000
26.9300 893.0000 1.0000
26.9400 929.0000 1.0000
26.9500 854.0000 1.0000
26.9600 931.0000 1.0000
26.9700 847.0000 1.0000
26.9800 860.0000 1.0000
26.9900 917.0000 1.0000
27.0000 879.0000 1.0000
27.0100 853.0000 1.0000
27.0200 853.0000 1.0000
27.0300 879.0000 1.0000
27.0400 886.0000 1.0000
27.0500 847.0000 1.0000
27.0600 842.0000 1.0000
27.0700 848.0000 1.0000
27.0800 842.0000 1.0000
27.0900 846.0000 1.0000
27.1000 842.0000 1.0000
27.1100 830.0000 1.0000
27.1200 797.0000 1.0000
27.1300 888.0000 1.0000
27.1400 797.0000 1.0000
27.1500 895.0000 1.0000
27.1600 836.0000 1.0000
27.1700 807.0000 1.0000
27.1800 854.0000 1.0000
27.1900 822.0000 1.0000
27.2000 841.0000 1.0000
27.2100 860.0000 1.0000
27.2200 819.0000 1.0000
27.2300 841.0000 1.0000
27.2400 835.0000 1.0000
27.2500 869.0000 1.0000
27.2600 848.0000 1.0000
27.2700 792.0000 1.0000
27.2800 821.0000 1.0000
27.2900 756.0000 1.0000
27.3000 798.0000 1.0000
27.3100 835.0000 1.0000
27.3200 821.0000 1.0000
27.3300 836.0000 1.0000
27.3400 800.0000 1.0000
27.3500 776.0000 1.0000
27.3600 786.0000 1.0000
27.3700 762.0000 1.0000
27.3800 787.0000 1.0000
27.3900 802.0000 1.0000
27.4000 815.0000 1.0000
27.4100 797.0000 1.0000
27.4200 779.0000 1.0000
27.4300 781.0000 1.0000
27.4400 781.0000 1.0000
27.4500 833.0000 1.0000
27.4600 787.0000 1.0000
27.4700 813.0000 1.0000
27.4800 780.0000 1.0000
27.4900 835.0000 1.0000
27.5000 780.0000 1.0000
27.5100 814.0000 1.0000
27.5200 822.0000 1.0000
27.5300 782.0000 1.0000
27.5400 789.0000 1.0000
27.5500 772.0000 1.0000
27.5600 798.0000 1.0000
27.5700 778.0000 1.0000
27.5800 819.0000 1.0000
27.5900 781.0000 1.0000
27.6000 750.0000 1.0000
27.6100 783.0000 1.0000
27.6200 793.0000 1.0000
27.6300 784.0000 1.0000
27.6400 823.0000 1.0000
27.6500 766.0000 1.0000
27.6600 777.0000 1.0000
27.6700 769.0000 1.0000
27.6800 787.0000 1.0000
27.6900 757.0000 1.0000
27.7000 823.0000 1.0000
27.7100 821.0000 1.0000
27.7200 784.0000 1.0000
27.7300 803.0000 1.0000
27.7400 761.0000 1.0000
27.7500 778.0000 1.0000
27.7600 712.0000 1.0000
27.7700 775.0000 1.0000
27.7800 831.0000 1.0000
27.7900 814.0000 1.0000
27.8000 772.0000 1.0000
27.8100 765.0000 1.0000
27.8200 799.0000 1.0000
27.8300 795.0000 1.0000
27.8400 802.0000 1.0000
27.8500 885.0000 1.0000
27.8600 812.0000 1.0000
27.8700 757.0000 1.0000
27.8800 747.0000 1.0000
27.8900 771.0000 1.0000
27.9000 786.0000 1.0000
27.9100 744.0000 1.0000
27.9200 740.0000 1.0000
27.9300 753.0000 1.0000
27.9400 764.0000 1.0000
27.9500 839.0000 1.0000
27.9600 812.0000 1.0000
27.9700 764.0000 1.0000
27.9800 796.0000 1.0000
27.9900 784.0000 1.0000
28.0000 757.0000 1.0000
28.0100 759.0000 1.0000
28.0200 767.0000 1.0000
28.0300 822.0000 1.0000
28.0400 799.0000 1.0000
28.0500 747.0000 1.0000
28.0600 811.0000 1.0000
28.0700 753.0000 1.0000
28.0800 736.0000 1.0000
28.0900 757.0000 1.0000
28.1000 738.0000 1.0000
28.1100 766.0000 1.0000
28.1200 733.0000 1.0000
28.1300 797.0000 1.0000
28.1400 762.0000 1.0000
28.1500 815.0000 1.0000
28.1600 819.0000 1.0000
28.1700 800.0000 1.0000
28.1800 792.0000 1.0000
28.1900 742.0000 1.0000
28.2000 754.0000 1.0000
28.2100 763.0000 1.0000
28.2200 801.0000 1.0000
28.2300 741.0000 1.0000
28.2400 791.0000 1.0000
28.2500 753.0000 1.0000
28.2600 743.0000 1.0000
28.2700 787.0000 1.0000
28.2800 741.0000 1.0000
28.2900 746.0000 1.0000
28.3000 750.0000 1.0000
28.3100 763.0000 1.0000
28.3200 740.0000 1.0000
28.3300 763.0000 1.0000
28.3400 782.0000 1.0000
28.3500 723.0000 1.0000
28.3600 732.0000 1.0000
28.3700 734.0000 1.0000
28.3800 723.0000 1.0000
28.3900 763.0000 1.0000
28.4000 730.0000 1.0000
28.4100 722.0000 1.0000
28.4200 743.0000 1.0000
28.4300 751.0000 1.0000
28.4400 762.0000 1.0000
28.4500 727.0000 1.0000
28.4600 764.0000 1.0000
28.4700 764.0000 1.0000
28.4800 729.0000 1.0000
28.4900 731.0000 1.0000
28.5000 722.0000 1.0000
28.5100 767.0000 1.0000
28.5200 743.0000 1.0000
28.5300 778.0000 1.0000
28.5400 773.0000 1.0000
28.5500 728.0000 1.0000
28.5600 782.0000 1.0000
28.5700 785.0000 1.0000
28.5800 758.0000 1.0000
28.5900 703.0000 1.0000
28.6000 789.0000 1.0000
28.6100 808.0000 1.0000
28.6200 746.0000 1.0000
28.6300 756.0000 1.0000
28.6400 738.0000 1.0000
28.6500 785.0000 1.0000
28.6600 733.0000 1.0000
28.6700 729.0000 1.0000
28.6800 737.0000 1.0000
28.6900 737.0000 1.0000
28.7000 770.0000 1.0000
28.7100 739.0000 1.0000
28.7200 712.0000 1.0000
28.7300 765.0000 1.0000
28.7400 767.0000 1.0000
28.7500 724.0000 1.0000
28.7600 745.0000 1.0000
28.7700 775.0000 1.0000
28.7800 757.0000 1.0000
28.7900 742.0000 1.0000
28.8000 768.0000 1.0000
28.8100 734.0000 1.0000
28.8200 693.0000 1.0000
28.8300 733.0000 1.0000
28.8400 730.0000 1.0000
28.8500 754.0000 1.0000
28.8600 716.0000 1.0000
28.8700 731.0000 1.0000
28.8800 753.0000 1.0000
28.8900 714.0000 1.0000
28.9000 768.0000 1.0000
28.9100 744.0000 1.0000
28.9200 724.0000 1.0000
28.9300 737.0000 1.0000
28.9400 772.0000 1.0000
28.9500 749.0000 1.0000
28.9600 701.0000 1.0000
28.9700 693.0000 1.0000
28.9800 720.0000 1.0000
28.9900 760.0000 1.0000
29.0000 739.0000 1.0000
29.0100 718.0000 1.0000
29.0200 757.0000 1.0000
29.0300 739.0000 1.0000
29.0400 684.0000 1.0000
29.0500 746.0000 1.0000
29.0600 696.0000 1.0000
29.0700 732.0000 1.0000
29.0800 713.0000 1.0000
29.0900 731.0000 1.0000
29.1000 755.0000 1.0000
29.1100 729.0000 1.0000
29.1200 733.0000 1.0000
29.1300 743.0000 1.0000
29.1400 717.0000 1.0000
29.1500 778.0000 1.0000
29.1600 689.0000 1.0000
29.1700 710.0000 1.0000
29.1800 729.0000 1.0000
29.1900 736.0000 1.0000
29.2000 714.0000 1.0000
29.2100 717.0000 1.0000
29.2200 705.0000 1.0000
29.2300 691.0000 1.0000
29.2400 714.0000 1.0000
29.2500 751.0000 1.0000
29.2600 753.0000 1.0000
29.2700 723.0000 1.0000
29.2800 700.0000 1.0000
29.2900 685.0000 1.0000
29.3000 686.0000 1.0000
29.3100 671.0000 1.0000
29.3200 716.0000 1.0000
29.3300 704.0000 1.0000
29.3400 708.0000 1.0000
29.3500 699.0000 1.0000
29.3600 716.0000 1.0000
29.3700 699.0000 1.0000
29.3800 714.0000 1.0000
29.3900 690.0000 1.0000
29.4000 669.0000 1.0000
29.4100 713.0000 1.0000
29.4200 730.0000 1.0000
29.4300 736.0000 1.0000
29.4400 748.0000 1.0000
29.4500 699.0000 1.0000
29.4600 698.0000 1.0000
29.4700 710.0000 1.0000
29.4800 693.0000 1.0000
29.4900 686.0000 1.0000
29.5000 684.0000 1.0000
29.5100 712.0000 1.0000
29.5200 672.0000 1.0000
29.5300 685.0000 1.0000
29.5400 693.0000 1.0000
29.5500 724.0000 1.0000
29.5600 708.0000 1.0000
29.5700 707.0000 1.0000
29.5800 717.0000 1.0000
29.5900 722.0000 1.0000
29.6000 713.0000 1.0000
29.6100 722.0000 1.0000
29.6200 687.0000 1.0000
29.6300 713.0000 1.0000
29.6400 692.0000 1.0000
29.6500 736.0000 1.0000
29.6600 694.0000 1.0000
29.6700 694.0000 1.0000
29.6800 707.0000 1.0000
29.6900 669.0000 1.0000
29.7000 688.0000 1.0000
29.7100 716.0000 1.0000
29.7200 705.0000 1.0000
29.7300 743.0000 1.0000
29.7400 696.0000 1.0000
29.7500 660.0000 1.0000
29.7600 702.0000 1.0000
29.7700 688.0000 1.0000
29.7800 665.0000 1.0000
29.7900 660.0000 1.0000
29.8000 682.0000 1.0000
29.8100 687.0000 1.0000
29.8200 719.0000 1.0000
29.8300 686.0000 1.0000
29.8400 717.0000 1.0000
29.8500 702.0000 1.0000
29.8600 717.0000 1.0000
29.8700 666.0000 1.0000
29.8800 698.0000 1.0000
29.8900 725.0000 1.0000
29.9000 698.0000 1.0000
29.9100 721.0000 1.0000
29.9200 676.0000 1.0000
29.9300 686.0000 1.0000
29.9400 689.0000 1.0000
29.9500 717.0000 1.0000
29.9600 701.0000 1.0000
29.9700 695.0000 1.0000
29.9800 704.0000 1.0000
29.9900 695.0000 1.0000
30.0000 704.0000 1.0000
30.0100 652.0000 1.0000
30.0200 684.0000 1.0000
30.0300 711.0000 1.0000
30.0400 728.0000 1.0000
30.0500 675.0000 1.0000
30.0600 711.0000 1.0000
30.0700 709.0000 1.0000
30.0800 662.0000 1.0000
30.0900 687.0000 1.0000
30.1000 715.0000 1.0000
30.1100 699.0000 1.0000
30.1200 690.0000 1.0000
30.1300 692.0000 1.0000
30.1400 722.0000 1.0000
30.1500 721.0000 1.0000
30.1600 709.0000 1.0000
30.1700 679.0000 1.0000
30.1800 700.0000 1.0000
30.1900 653.0000 1.0000
30.2000 671.0000 1.0000
30.2100 697.0000 1.0000
30.2200 688.0000 1.0000
30.2300 710.0000 1.0000
30.2400 742.0000 1.0000
30.2500 701.0000 1.0000
30.2600 681.0000 1.0000
30.2700 719.0000 1.0000
30.2800 703.0000 1.0000
30.2900 696.0000 1.0000
30.3000 679.0000 1.0000
30.3100 689.0000 1.0000
30.3200 692.0000 1.0000
30.3300 700.0000 1.0000
30.3400 696.0000 1.0000
30.3500 631.0000 1.0000
30.3600 649.0000 1.0000
30.3700 694.0000 1.0000
30.3800 703.0000 1.0000
30.3900 683.0000 1.0000
30.4000 677.0000 1.0000
30.4100 631.0000 1.0000
30.4200 663.0000 1.0000
30.4300 709.0000 1.0000
30.4400 696.0000 1.0000
30.4500 713.0000 1.0000
30.4600 710.0000 1.0000
30.4700 702.0000 1.0000
30.4800 683.0000 1.0000
30.4900 649.0000 1.0000
30.5000 692.0000 1.0000
30.5100 693.0000 1.0000
30.5200 675.0000 1.0000
30.5300 674.0000 1.0000
30.5400 691.0000 1.0000
30.5500 630.0000 1.0000
30.5600 665.0000 1.0000
30.5700 678.0000 1.0000
30.5800 711.0000 1.0000
30.5900 647.0000 1.0000
30.6000 704.0000 1.0000
30.6100 660.0000 1.0000
30.6200 697.0000 1.0000
30.6300 671.0000 1.0000
30.6400 658.0000 1.0000
30.6500 714.0000 1.0000
30.6600 696.0000 1.0000
30.6700 668.0000 1.0000
30.6800 663.0000 1.0000
30.6900 650.0000 1.0000
30.7000 622.0000 1.0000
30.7100 670.0000 1.0000
30.7200 725.0000 1.0000
30.7300 716.0000 1.0000
30.7400 662.0000 1.0000
30.7500 679.0000 1.0000
30.7600 635.0000 1.0000
30.7700 662.0000 1.0000
30.7800 647.0000 1.0000
30.7900 712.0000 1.0000
30.8000 685.0000 1.0000
30.8100 647.0000 1.0000
30.8200 662.0000 1.0000
30.8300 672.0000 1.0000
30.8400 719.0000 1.0000
30.8500 674.0000 1.0000
30.8600 668.0000 1.0000
30.8700 673.0000 1.0000
30.8800 684.0000 1.0000
30.8900 715.0000 1.0000
30.9000 694.0000 1.0000
30.9100 713.0000 1.0000
30.9200 674.0000 1.0000
30.9300 678.0000 1.0000
30.9400 672.0000 1.0000
30.9500 667.0000 1.0000
30.9600 669.0000 1.0000
30.9700 622.0000 1.0000
30.9800 673.0000 1.0000
30.9900 701.0000 1.0000
31.0000 663.0000 1.0000
31.0100 636.0000 1.0000
31.0200 629.0000 1.0000
31.0300 677.0000 1.0000
31.0400 662.0000 1.0000
31.0500 670.0000 1.0000
31.0600 712.0000 1.0000
31.0700 689.0000 1.0000
31.0800 706.0000 1.0000
31.0900 636.0000 1.0000
31.1000 641.0000 1.0000
31.1100 678.0000 1.0000
31.1200 693.0000 1.0000
31.1300 676.0000 1.0000
31.1400 710.0000 1.0000
31.1500 677.0000 1.0000
31.1600 692.0000 1.0000
31.1700 657.0000 1.0000
31.1800 659.0000 1.0000
31.1900 695.0000 1.0000
31.2000 690.0000 1.0000
31.2100 680.0000 1.0000
31.2200 675.0000 1.0000
31.2300 678.0000 1.0000
31.2400 633.0000 1.0000
31.2500 614.0000 1.0000
31.2600 642.0000 1.0000
31.2700 698.0000 1.0000
31.2800 700.0000 1.0000
31.2900 687.0000 1.0000
31.3000 665.0000 1.0000
31.3100 657.0000 1.0000
31.3200 696.0000 1.0000
31.3300 681.0000 1.0000
31.3400 693.0000 1.0000
31.3500 685.0000 1.0000
31.3600 661.0000 1.0000
31.3700 639.0000 1.0000
31.3800 668.0000 1.0000
31.3900 662.0000 1.0000
31.4000 633.0000 1.0000
31.4100 638.0000 1.0000
31.4200 656.0000 1.0000
31.4300 644.0000 1.0000
31.4400 629.0000 1.0000
31.4500 607.0000 1.0000
31.4600 714.0000 1.0000
31.4700 688.0000 1.0000
31.4800 687.0000 1.0000
31.4900 687.0000 1.0000
31.5000 656.0000 1.0000
31.5100 658.0000 1.0000
31.5200 633.0000 1.0000
31.5300 657.0000 1.0000
31.5400 669.0000 1.0000
31.5500 638.0000 1.0000
31.5600 674.0000 1.0000
31.5700 660.0000 1.0000
31.5800 646.0000 1.0000
31.5900 680.0000 1.0000
31.6000 623.0000 1.0000
31.6100 630.0000 1.0000
31.6200 646.0000 1.0000
31.6300 646.0000 1.0000
31.6400 638.0000 1.0000
31.6500 667.0000 1.0000
31.6600 617.0000 1.0000
31.6700 669.0000 1.0000
31.6800 665.0000 1.0000
31.6900 678.0000 1.0000
31.7000 677.0000 1.0000
31.7100 599.0000 1.0000
31.7200 641.0000 1.0000
31.7300 695.0000 1.0000
31.7400 646.0000 1.0000
31.7500 636.0000 1.0000
31.7600 637.0000 1.0000
31.7700 661.0000 1.0000
31.7800 650.0000 1.0000
31.7900 644.0000 1.0000
31.8000 635.0000 1.0000
31.8100 649.0000 1.0000
31.8200 630.0000 1.0000
31.8300 614.0000 1.0000
31.8400 642.0000 1.0000
31.8500 667.0000 1.0000
31.8600 634.0000 1.0000
31.8700 657.0000 1.0000
31.8800 649.0000 1.0000
31.8900 664.0000 1.0000
31.9000 612.0000 1.0000
31.9100 618.0000 1.0000
31.9200 659.0000 1.0000
31.9300 665.0000 1.0000
31.9400 635.0000 1.0000
31.9500 645.0000 1.0000
31.9600 640.0000 1.0000
31.9700 642.0000 1.0000
31.9800 638.0000 1.0000
31.9900 633.0000 1.0000
32.0000 626.0000 1.0000
32.0100 653.0000 1.0000
32.0200 647.0000 1.0000
32.0300 624.0000 1.0000
32.0400 617.0000 1.0000
32.0500 613.0000 1.0000
32.0600 631.0000 1.0000
32.0700 615.0000 1.0000
32.0800 625.0000 1.0000
32.0900 651.0000 1.0000
32.1000 639.0000 1.0000
32.1100 621.0000 1.0000
32.1200 666.0000 1.0000
32.1300 626.0000 1.0000
32.1400 615.0000 1.0000
32.1500 575.0000 1.0000
32.1600 641.0000 1.0000
32.1700 662.0000 1.0000
32.1800 662.0000 1.0000
32.1900 644.0000 1.0000
32.2000 632.0000 1.0000
32.2100 617.0000 1.0000
32.2200 650.0000 1.0000
32.2300 630.0000 1.0000
32.2400 667.0000 1.0000
32.2500 642.0000 1.0000
32.2600 665.0000 1.0000
32.2700 682.0000 1.0000
32.2800 604.0000 1.0000
32.2900 627.0000 1.0000
32.3000 632.0000 1.0000
32.3100 652.0000 1.0000
32.3200 657.0000 1.0000
32.3300 648.0000 1.0000
32.3400 680.0000 1.0000
32.3500 623.0000 1.0000
32.3600 647.0000 1.0000
32.3700 609.0000 1.0000
32.3800 661.0000 1.0000
32.3900 646.0000 1.0000
32.4000 632.0000 1.0000
32.4100 603.0000 1.0000
32.4200 645.0000 1.0000
32.4300 581.0000 1.0000
32.4400 648.0000 1.0000
32.4500 620.0000 1.0000
32.4600 632.0000 1.0000
32.4700 626.0000 1.0000
32.4800 609.0000 1.0000
32.4900 628.0000 1.0000
32.5000 616.0000 1.0000
32.5100 626.0000 1.0000
32.5200 593.0000 1.0000
32.5300 649.0000 1.0000
32.5400 665.0000 1.0000
32.5500 600.0000 1.0000
32.5600 589.0000 1.0000
32.5700 627.0000 1.0000
32.5800 626.0000 1.0000
32.5900 608.0000 1.0000
32.6000 610.0000 1.0000
32.6100 648.0000 1.0000
32.6200 623.0000 1.0000
32.6300 618.0000 1.0000
32.6400 590.0000 1.0000
32.6500 647.0000 1.0000
32.6600 624.0000 1.0000
32.6700 625.0000 1.0000
32.6800 561.0000 1.0000
32.6900 573.0000 1.0000
32.7000 589.0000 1.0000
32.7100 656.0000 1.0000
32.7200 653.0000 1.0000
32.7300 596.0000 1.0000
32.7400 597.0000 1.0000
32.7500 637.0000 1.0000
32.7600 660.0000 1.0000
32.7700 604.0000 1.0000
32.7800 627.0000 1.0000
32.7900 619.0000 1.0000
32.8000 607.0000 1.0000
32.8100 638.0000 1.0000
32.8200 647.0000 1.0000
32.8300 635.0000 1.0000
32.8400 640.0000 1.0000
32.8500 652.0000 1.0000
32.8600 680.0000 1.0000
32.8700 617.0000 1.0000
32.8800 629.0000 1.0000
32.8900 640.0000 1.0000
32.9000 667.0000 1.0000
32.9100 645.0000 1.0000
32.9200 635.0000 1.0000
32.9300 625.0000 1.0000
32.9400 660.0000 1.0000
32.9500 649.0000 1.0000
32.9600 721.0000 1.0000
32.9700 668.0000 1.0000
32.9800 639.0000 1.0000
32.9900 680.0000 1.0000
33.0000 662.0000 1.0000
33.0100 690.0000 1.0000
33.0200 686.0000 1.0000
33.0300 759.0000 1.0000
33.0400 767.0000 1.0000
33.0500 705.0000 1.0000
33.0600 734.0000 1.0000
33.0700 743.0000 1.0000
33.0800 750.0000 1.0000
33.0900 756.0000 1.0000
33.1000 787.0000 1.0000
33.1100 802.0000 1.0000
33.1200 801.0000 1.0000
33.1300 799.0000 1.0000
33.1400 831.0000 1.0000
33.1500 788.0000 1.0000
33.1600 757.0000 1.0000
33.1700 767.0000 1.0000
33.1800 749.0000 1.0000
33.1900 763.0000 1.0000
33.2000 727.0000 1.0000
33.2100 695.0000 1.0000
33.2200 687.0000 1.0000
33.2300 704.0000 1.0000
33.2400 711.0000 1.0000
33.2500 667.0000 1.0000
33.2600 667.0000 1.0000
33.2700 680.0000 1.0000
33.2800 665.0000 1.0000
33.2900 676.0000 1.0000
33.3000 674.0000 1.0000
33.3100 698.0000 1.0000
33.3200 667.0000 1.0000
33.3300 678.0000 1.0000
33.3400 686.0000 1.0000
33.3500 709.0000 1.0000
33.3600 716.0000 1.0000
33.3700 695.0000 1.0000
33.3800 711.0000 1.0000
33.3900 739.0000 1.0000
33.4000 703.0000 1.0000
33.4100 737.0000 1.0000
33.4200 774.0000 1.0000
33.4300 761.0000 1.0000
33.4400 783.0000 1.0000
33.4500 806.0000 1.0000
33.4600 806.0000 1.0000
33.4700 769.0000 1.0000
33.4800 805.0000 1.0000
33.4900 849.0000 1.0000
33.5000 960.0000 1.0000
33.5100 883.0000 1.0000
33.5200 913.0000 1.0000
33.5300 1006.0000 1.0000
33.5400 1057.0000 1.0000
33.5500 1074.0000 1.0000
33.5600 1099.0000 1.0000
33.5700 1156.0000 1.0000
33.5800 1215.0000 1.0000
33.5900 1267.0000 1.0000
33.6000 1339.0000 1.0000
33.6100 1359.0000 1.0000
33.6200 1420.0000 1.0000
33.6300 1408.0000 1.0000
33.6400 1556.0000 1.0000
33.6500 1558.0000 1.0000
33.6600 1582.0000 1.0000
33.6700 1627.0000 1.0000
33.6800 1604.0000 1.0000
33.6900 1506.0000 1.0000
33.7000 1472.0000 1.0000
33.7100 1477.0000 1.0000
33.7200 1449.0000 1.0000
33.7300 1416.0000 1.0000
33.7400 1309.0000 1.0000
33.7500 1301.0000 1.0000
33.7600 1204.0000 1.0000
33.7700 1210.0000 1.0000
33.7800 1149.0000 1.0000
33.7900 1090.0000 1.0000
33.8000 1065.0000 1.0000
33.8100 999.0000 1.0000
33.8200 974.0000 1.0000
33.8300 925.0000 1.0000
33.8400 901.0000 1.0000
33.8500 878.0000 1.0000
33.8600 875.0000 1.0000
33.8700 863.0000 1.0000
33.8800 795.0000 1.0000
33.8900 803.0000 1.0000
33.9000 756.0000 1.0000
33.9100 787.0000 1.0000
33.9200 749.0000 1.0000
33.9300 755.0000 1.0000
33.9400 731.0000 1.0000
33.9500 696.0000 1.0000
33.9600 698.0000 1.0000
33.9700 699.0000 1.0000
33.9800 652.0000 1.0000
33.9900 691.0000 1.0000
34.0000 676.0000 1.0000
34.0100 628.0000 1.0000
34.0200 679.0000 1.0000
34.0300 684.0000 1.0000
34.0400 684.0000 1.0000
34.0500 628.0000 1.0000
34.0600 639.0000 1.0000
34.0700 624.0000 1.0000
34.0800 639.0000 1.0000
34.0900 635.0000 1.0000
34.1000 654.0000 1.0000
34.1100 646.0000 1.0000
34.1200 666.0000 1.0000
34.1300 616.0000 1.0000
34.1400 625.0000 1.0000
34.1500 630.0000 1.0000
34.1600 605.0000 1.0000
34.1700 610.0000 1.0000
34.1800 607.0000 1.0000
34.1900 592.0000 1.0000
34.2000 607.0000 1.0000
34.2100 609.0000 1.0000
34.2200 555.0000 1.0000
34.2300 580.0000 1.0000
34.2400 579.0000 1.0000
34.2500 618.0000 1.0000
34.2600 619.0000 1.0000
34.2700 607.0000 1.0000
34.2800 595.0000 1.0000
34.2900 615.0000 1.0000
34.3000 618.0000 1.0000
34.3100 583.0000 1.0000
34.3200 581.0000 1.0000
34.3300 566.0000 1.0000
34.3400 570.0000 1.0000
34.3500 587.0000 1.0000
34.3600 567.0000 1.0000
34.3700 584.0000 1.0000
34.3800 573.0000 1.0000
34.3900 566.0000 1.0000
34.4000 559.0000 1.0000
34.4100 553.0000 1.0000
34.4200 555.0000 1.0000
34.4300 564.0000 1.0000
34.4400 580.0000 1.0000
34.4500 570.0000 1.0000
34.4600 568.0000 1.0000
34.4700 620.0000 1.0000
34.4800 572.0000 1.0000
34.4900 541.0000 1.0000
34.5000 529.0000 1.0000
34.5100 591.0000 1.0000
34.5200 579.0000 1.0000
34.5300 596.0000 1.0000
34.5400 587.0000 1.0000
34.5500 540.0000 1.0000
34.5600 517.0000 1.0000
34.5700 524.0000 1.0000
34.5800 542.0000 1.0000
34.5900 537.0000 1.0000
34.6000 589.0000 1.0000
34.6100 592.0000 1.0000
34.6200 577.0000 1.0000
34.6300 590.0000 1.0000
34.6400 556.0000 1.0000
34.6500 555.0000 1.0000
34.6600 584.0000 1.0000
34.6700 541.0000 1.0000
34.6800 534.0000 1.0000
34.6900 552.0000 1.0000
34.7000 584.0000 1.0000
34.7100 552.0000 1.0000
34.7200 583.0000 1.0000
34.7300 538.0000 1.0000
34.7400 543.0000 1.0000
34.7500 564.0000 1.0000
34.7600 567.0000 1.0000
34.7700 565.0000 1.0000
34.7800 520.0000 1.0000
34.7900 543.0000 1.0000
34.8000 548.0000 1.0000
34.8100 547.0000 1.0000
34.8200 516.0000 1.0000
34.8300 528.0000 1.0000
34.8400 519.0000 1.0000
34.8500 549.0000 1.0000
34.8600 559.0000 1.0000
34.8700 578.0000 1.0000
34.8800 554.0000 1.0000
34.8900 522.0000 1.0000
34.9000 493.0000 1.0000
34.9100 548.0000 1.0000
34.9200 571.0000 1.0000
34.9300 570.0000 1.0000
34.9400 578.0000 1.0000
34.9500 554.0000 1.0000
34.9600 545.0000 1.0000
34.9700 516.0000 1.0000
34.9800 535.0000 1.0000
34.9900 535.0000 1.0000
35.0000 548.0000 1.0000
35.0100 536.0000 1.0000
35.0200 527.0000 1.0000
35.0300 526.0000 1.0000
35.0400 523.0000 1.0000
35.0500 540.0000 1.0000
35.0600 508.0000 1.0000
35.0700 536.0000 1.0000
35.0800 535.0000 1.0000
35.0900 535.0000 1.0000
35.1000 549.0000 1.0000
35.1100 560.0000 1.0000
35.1200 551.0000 1.0000
35.1300 541.0000 1.0000
35.1400 551.0000 1.0000
35.1500 505.0000 1.0000
35.1600 521.0000 1.0000
35.1700 527.0000 1.0000
35.1800 568.0000 1.0000
35.1900 521.0000 1.0000
35.2000 544.0000 1.0000
35.2100 542.0000 1.0000
35.2200 541.0000 1.0000
35.2300 540.0000 1.0000
35.2400 558.0000 1.0000
35.2500 525.0000 1.0000
35.2600 523.0000 1.0000
35.2700 505.0000 1.0000
35.2800 550.0000 1.0000
35.2900 554.0000 1.0000
35.3000 569.0000 1.0000
35.3100 616.0000 1.0000
35.3200 563.0000 1.0000
35.3300 590.0000 1.0000
35.3400 547.0000 1.0000
35.3500 600.0000 1.0000
35.3600 591.0000 1.0000
35.3700 563.0000 1.0000
35.3800 600.0000 1.0000
35.3900 560.0000 1.0000
35.4000 557.0000 1.0000
35.4100 577.0000 1.0000
35.4200 627.0000 1.0000
35.4300 637.0000 1.0000
35.4400 609.0000 1.0000
35.4500 616.0000 1.0000
35.4600 631.0000 1.0000
35.4700 671.0000 1.0000
35.4800 745.0000 1.0000
35.4900 786.0000 1.0000
35.5000 812.0000 1.0000
35.5100 882.0000 1.0000
35.5200 888.0000 1.0000
35.5300 928.0000 1.0000
35.5400 992.0000 1.0000
35.5500 1036.0000 1.0000
35.5600 1112.0000 1.0000
35.5700 1171.0000 1.0000
35.5800 1119.0000 1.0000
35.5900 1133.0000 1.0000
35.6000 1122.0000 1.0000
35.6100 1090.0000 1.0000
35.6200 1041.0000 1.0000
35.6300 962.0000 1.0000
35.6400 954.0000 1.0000
35.6500 944.0000 1.0000
35.6600 889.0000 1.0000
35.6700 911.0000 1.0000
35.6800 865.0000 1.0000
35.6900 817.0000 1.0000
35.7000 798.0000 1.0000
35.7100 763.0000 1.0000
35.7200 707.0000 1.0000
35.7300 699.0000 1.0000
35.7400 674.0000 1.0000
35.7500 609.0000 1.0000
35.7600 593.0000 1.0000
35.7700 610.0000 1.0000
35.7800 603.0000 1.0000
35.7900 563.0000 1.0000
35.8000 496.0000 1.0000
35.8100 511.0000 1.0000
35.8200 522.0000 1.0000
35.8300 587.0000 1.0000
35.8400 535.0000 1.0000
35.8500 485.0000 1.0000
35.8600 524.0000 1.0000
35.8700 528.0000 1.0000
35.8800 523.0000 1.0000
35.8900 515.0000 1.0000
35.9000 523.0000 1.0000
35.9100 518.0000 1.0000
35.9200 504.0000 1.0000
35.9300 486.0000 1.0000
35.9400 536.0000 1.0000
35.9500 501.0000 1.0000
35.9600 490.0000 1.0000
35.9700 504.0000 1.0000
35.9800 534.0000 1.0000
35.9900 478.0000 1.0000
36.0000 537.0000 1.0000
36.0100 545.0000 1.0000
36.0200 524.0000 1.0000
36.0300 507.0000 1.0000
36.0400 496.0000 1.0000
36.0500 480.0000 1.0000
36.0600 480.0000 1.0000
36.0700 531.0000 1.0000
36.0800 532.0000 1.0000
36.0900 524.0000 1.0000
36.1000 501.0000 1.0000
36.1100 503.0000 1.0000
36.1200 499.0000 1.0000
36.1300 510.0000 1.0000
36.1400 507.0000 1.0000
36.1500 531.0000 1.0000
36.1600 500.0000 1.0000
36.1700 530.0000 1.0000
36.1800 506.0000 1.0000
36.1900 519.0000 1.0000
36.2000 506.0000 1.0000
36.2100 524.0000 1.0000
36.2200 513.0000 1.0000
36.2300 488.0000 1.0000
36.2400 502.0000 1.0000
36.2500 492.0000 1.0000
36.2600 496.0000 1.0000
36.2700 499.0000 1.0000
36.2800 519.0000 1.0000
36.2900 499.0000 1.0000
36.3000 491.0000 1.0000
36.3100 503.0000 1.0000
36.3200 505.0000 1.0000
36.3300 531.0000 1.0000
36.3400 474.0000 1.0000
36.3500 528.0000 1.0000
36.3600 493.0000 1.0000
36.3700 484.0000 1.0000
36.3800 493.0000 1.0000
36.3900 483.0000 1.0000
36.4000 518.0000 1.0000
36.4100 507.0000 1.0000
36.4200 501.0000 1.0000
36.4300 502.0000 1.0000
36.4400 514.0000 1.0000
36.4500 507.0000 1.0000
36.4600 497.0000 1.0000
36.4700 480.0000 1.0000
36.4800 516.0000 1.0000
36.4900 467.0000 1.0000
36.5000 510.0000 1.0000
36.5100 525.0000 1.0000
36.5200 501.0000 1.0000
36.5300 471.0000 1.0000
36.5400 490.0000 1.0000
36.5500 498.0000 1.0000
36.5600 489.0000 1.0000
36.5700 516.0000 1.0000
36.5800 495.0000 1.0000
36.5900 485.0000 1.0000
36.6000 505.0000 1.0000
36.6100 502.0000 1.0000
36.6200 492.0000 1.0000
36.6300 513.0000 1.0000
36.6400 505.0000 1.0000
36.6500 497.0000 1.0000
36.6600 529.0000 1.0000
36.6700 502.0000 1.0000
36.6800 515.0000 1.0000
36.6900 525.0000 1.0000
36.7000 474.0000 1.0000
36.7100 485.0000 1.0000
36.7200 525.0000 1.0000
36.7300 503.0000 1.0000
36.7400 496.0000 1.0000
36.7500 470.0000 1.0000
36.7600 510.0000 1.0000
36.7700 486.0000 1.0000
36.7800 472.0000 1.0000
36.7900 464.0000 1.0000
36.8000 448.0000 1.0000
36.8100 515.0000 1.0000
36.8200 514.0000 1.0000
36.8300 489.0000 1.0000
36.8400 478.0000 1.0000
36.8500 451.0000 1.0000
36.8600 452.0000 1.0000
36.8700 480.0000 1.0000
36.8800 487.0000 1.0000
36.8900 484.0000 1.0000
36.9000 512.0000 1.0000
36.9100 484.0000 1.0000
36.9200 511.0000 1.0000
36.9300 503.0000 1.0000
36.9400 518.0000 1.0000
36.9500 502.0000 1.0000
36.9600 508.0000 1.0000
36.9700 518.0000 1.0000
36.9800 512.0000 1.0000
36.9900 473.0000 1.0000
37.0000 486.0000 1.0000
37.0100 501.0000 1.0000
37.0200 482.0000 1.0000
37.0300 474.0000 1.0000
37.0400 466.0000 1.0000
37.0500 483.0000 1.0000
37.0600 503.0000 1.0000
37.0700 506.0000 1.0000
37.0800 455.0000 1.0000
37.0900 487.0000 1.0000
37.1000 495.0000 1.0000
37.1100 483.0000 1.0000
37.1200 499.0000 1.0000
37.1300 503.0000 1.0000
37.1400 497.0000 1.0000
37.1500 507.0000 1.0000
37.1600 530.0000 1.0000
37.1700 531.0000 1.0000
37.1800 507.0000 1.0000
37.1900 509.0000 1.0000
37.2000 519.0000 1.0000
37.2100 506.0000 1.0000
37.2200 524.0000 1.0000
37.2300 518.0000 1.0000
37.2400 528.0000 1.0000
37.2500 535.0000 1.0000
37.2600 533.0000 1.0000
37.2700 543.0000 1.0000
37.2800 552.0000 1.0000
37.2900 545.0000 1.0000
37.3000 565.0000 1.0000
37.3100 565.0000 1.0000
37.3200 541.0000 1.0000
37.3300 564.0000 1.0000
37.3400 590.0000 1.0000
37.3500 602.0000 1.0000
37.3600 610.0000 1.0000
37.3700 606.0000 1.0000
37.3800 572.0000 1.0000
37.3900 568.0000 1.0000
37.4000 633.0000 1.0000
37.4100 632.0000 1.0000
37.4200 651.0000 1.0000
37.4300 695.0000 1.0000
37.4400 700.0000 1.0000
37.4500 758.0000 1.0000
37.4600 737.0000 1.0000
37.4700 796.0000 1.0000
37.4800 833.0000 1.0000
37.4900 818.0000 1.0000
37.5000 828.0000 1.0000
37.5100 905.0000 1.0000
37.5200 925.0000 1.0000
37.5300 1009.0000 1.0000
37.5400 1002.0000 1.0000
37.5500 1100.0000 1.0000
37.5600 1128.0000 1.0000
37.5700 1239.0000 1.0000
37.5800 1273.0000 1.0000
37.5900 1387.0000 1.0000
37.6000 1475.0000 1.0000
37.6100 1595.0000 1.0000
37.6200 1785.0000 1.0000
37.6300 1799.0000 1.0000
37.6400 1918.0000 1.0000
37.6500 1992.0000 1.0000
37.6600 2043.0000 1.0000
37.6700 2261.0000 1.0000
37.6800 2313.0000 1.0000
37.6900 2400.0000 1.0000
37.7000 2418.0000 1.0000
37.7100 2436.0000 1.0000
37.7200 2501.0000 1.0000
37.7300 2454.0000 1.0000
37.7400 2537.0000 1.0000
37.7500 2460.0000 1.0000
37.7600 2398.0000 1.0000
37.7700 2372.0000 1.0000
37.7800 2259.0000 1.0000
37.7900 2125.0000 1.0000
37.8000 2059.0000 1.0000
37.8100 1940.0000 1.0000
37.8200 1918.0000 1.0000
37.8300 1871.0000 1.0000
37.8400 1761.0000 1.0000
37.8500 1646.0000 1.0000
37.8600 1550.0000 1.0000
37.8700 1440.0000 1.0000
37.8800 1337.0000 1.0000
37.8900 1304.0000 1.0000
37.9000 1182.0000 1.0000
37.9100 1122.0000 1.0000
37.9200 1039.0000 1.0000
37.9300 1045.0000 1.0000
37.9400 987.0000 1.0000
37.9500 911.0000 1.0000
37.9600 891.0000 1.0000
37.9700 830.0000 1.0000
37.9800 758.0000 1.0000
37.9900 782.0000 1.0000
38.0000 724.0000 1.0000
38.0100 721.0000 1.0000
38.0200 672.0000 1.0000
38.0300 650.0000 1.0000
38.0400 656.0000 1.0000
38.0500 659.0000 1.0000
38.0600 626.0000 1.0000
38.0700 611.0000 1.0000
38.0800 607.0000 1.0000
38.0900 608.0000 1.0000
38.1000 576.0000 1.0000
38.1100 578.0000 1.0000
38.1200 543.0000 1.0000
38.1300 553.0000 1.0000
38.1400 534.0000 1.0000
38.1500 520.0000 1.0000
38.1600 536.0000 1.0000
38.1700 499.0000 1.0000
38.1800 502.0000 1.0000
38.1900 496.0000 1.0000
38.2000 502.0000 1.0000
38.2100 494.0000 1.0000
38.2200 465.0000 1.0000
38.2300 485.0000 1.0000
38.2400 506.0000 1.0000
38.2500 493.0000 1.0000
38.2600 476.0000 1.0000
38.2700 465.0000 1.0000
38.2800 479.0000 1.0000
38.2900 500.0000 1.0000
38.3000 497.0000 1.0000
38.3100 498.0000 1.0000
38.3200 435.0000 1.0000
38.3300 467.0000 1.0000
38.3400 467.0000 1.0000
38.3500 479.0000 1.0000
38.3600 451.0000 1.0000
38.3700 431.0000 1.0000
38.3800 401.0000 1.0000
38.3900 420.0000 1.0000
38.4000 429.0000 1.0000
38.4100 455.0000 1.0000
38.4200 473.0000 1.0000
38.4300 444.0000 1.0000
38.4400 448.0000 1.0000
38.4500 449.0000 1.0000
38.4600 450.0000 1.0000
38.4700 413.0000 1.0000
38.4800 388.0000 1.0000
38.4900 427.0000 1.0000
38.5000 446.0000 1.0000
38.5100 471.0000 1.0000
38.5200 409.0000 1.0000
38.5300 438.0000 1.0000
38.5400 433.0000 1.0000
38.5500 412.0000 1.0000
38.5600 422.0000 1.0000
38.5700 442.0000 1.0000
38.5800 461.0000 1.0000
38.5900 415.0000 1.0000
38.6000 451.0000 1.0000
38.6100 443.0000 1.0000
38.6200 405.0000 1.0000
38.6300 446.0000 1.0000
38.6400 433.0000 1.0000
38.6500 401.0000 1.0000
38.6600 421.0000 1.0000
38.6700 428.0000 1.0000
38.6800 437.0000 1.0000
38.6900 469.0000 1.0000
38.7000 427.0000 1.0000
38.7100 428.0000 1.0000
38.7200 448.0000 1.0000
38.7300 460.0000 1.0000
38.7400 464.0000 1.0000
38.7500 471.0000 1.0000
38.7600 468.0000 1.0000
38.7700 463.0000 1.0000
38.7800 453.0000 1.0000
38.7900 468.0000 1.0000
38.8000 463.0000 1.0000
38.8100 462.0000 1.0000
38.8200 472.0000 1.0000
38.8300 441.0000 1.0000
38.8400 435.0000 1.0000
38.8500 421.0000 1.0000
38.8600 434.0000 1.0000
38.8700 456.0000 1.0000
38.8800 451.0000 1.0000
38.8900 435.0000 1.0000
38.9000 462.0000 1.0000
38.9100 419.0000 1.0000
38.9200 390.0000 1.0000
38.9300 430.0000 1.0000
38.9400 446.0000 1.0000
38.9500 401.0000 1.0000
38.9600 426.0000 1.0000
38.9700 433.0000 1.0000
38.9800 461.0000 1.0000
38.9900 411.0000 1.0000
39.0000 447.0000 1.0000
39.0100 426.0000 1.0000
39.0200 395.0000 1.0000
39.0300 432.0000 1.0000
39.0400 433.0000 1.0000
39.0500 401.0000 1.0000
39.0600 376.0000 1.0000
39.0700 400.0000 1.0000
39.0800 422.0000 1.0000
39.0900 428.0000 1.0000
39.1000 398.0000 1.0000
39.1100 419.0000 1.0000
39.1200 403.0000 1.0000
39.1300 390.0000 1.0000
39.1400 414.0000 1.0000
39.1500 409.0000 1.0000
39.1600 398.0000 1.0000
39.1700 400.0000 1.0000
39.1800 416.0000 1.0000
39.1900 412.0000 1.0000
39.2000 421.0000 1.0000
39.2100 388.0000 1.0000
39.2200 404.0000 1.0000
39.2300 449.0000 1.0000
39.2400 388.0000 1.0000
39.2500 405.0000 1.0000
39.2600 455.0000 1.0000
39.2700 364.0000 1.0000
39.2800 398.0000 1.0000
39.2900 399.0000 1.0000
39.3000 403.0000 1.0000
39.3100 378.0000 1.0000
39.3200 385.0000 1.0000
39.3300 393.0000 1.0000
39.3400 404.0000 1.0000
39.3500 407.0000 1.0000
39.3600 386.0000 1.0000
39.3700 403.0000 1.0000
39.3800 381.0000 1.0000
39.3900 406.0000 1.0000
39.4000 376.0000 1.0000
39.4100 385.0000 1.0000
39.4200 418.0000 1.0000
39.4300 419.0000 1.0000
39.4400 410.0000 1.0000
39.4500 407.0000 1.0000
39.4600 398.0000 1.0000
39.4700 391.0000 1.0000
39.4800 392.0000 1.0000
39.4900 383.0000 1.0000
39.5000 432.0000 1.0000
39.5100 418.0000 1.0000
39.5200 384.0000 1.0000
39.5300 413.0000 1.0000
39.5400 414.0000 1.0000
39.5500 384.0000 1.0000
39.5600 388.0000 1.0000
39.5700 387.0000 1.0000
39.5800 367.0000 1.0000
39.5900 355.0000 1.0000
39.6000 370.0000 1.0000
39.6100 370.0000 1.0000
39.6200 387.0000 1.0000
39.6300 388.0000 1.0000
39.6400 390.0000 1.0000
39.6500 413.0000 1.0000
39.6600 377.0000 1.0000
39.6700 397.0000 1.0000
39.6800 387.0000 1.0000
39.6900 415.0000 1.0000
39.7000 381.0000 1.0000
39.7100 389.0000 1.0000
39.7200 387.0000 1.0000
39.7300 387.0000 1.0000
39.7400 371.0000 1.0000
39.7500 396.0000 1.0000
39.7600 359.0000 1.0000
39.7700 386.0000 1.0000
39.7800 425.0000 1.0000
39.7900 397.0000 1.0000
39.8000 372.0000 1.0000
39.8100 374.0000 1.0000
39.8200 384.0000 1.0000
39.8300 405.0000 1.0000
39.8400 395.0000 1.0000
39.8500 361.0000 1.0000
39.8600 380.0000 1.0000
39.8700 387.0000 1.0000
39.8800 377.0000 1.0000
39.8900 392.0000 1.0000
39.9000 353.0000 1.0000
39.9100 373.0000 1.0000
39.9200 389.0000 1.0000
39.9300 372.0000 1.0000
39.9400 410.0000 1.0000
39.9500 395.0000 1.0000
39.9600 385.0000 1.0000
39.9700 391.0000 1.0000
39.9800 390.0000 1.0000
39.9900 385.0000 1.0000
40.0000 373.0000 1.0000
40.0100 398.0000 1.0000
40.0200 379.0000 1.0000
40.0300 380.0000 1.0000
40.0400 380.0000 1.0000
40.0500 395.0000 1.0000
40.0600 405.0000 1.0000
40.0700 382.0000 1.0000
40.0800 371.0000 1.0000
40.0900 388.0000 1.0000
40.1000 401.0000 1.0000
40.1100 383.0000 1.0000
40.1200 376.0000 1.0000
40.1300 371.0000 1.0000
40.1400 401.0000 1.0000
40.1500 358.0000 1.0000
40.1600 371.0000 1.0000
40.1700 393.0000 1.0000
40.1800 404.0000 1.0000
40.1900 388.0000 1.0000
40.2000 380.0000 1.0000
40.2100 398.0000 1.0000
40.2200 386.0000 1.0000
40.2300 387.0000 1.0000
40.2400 368.0000 1.0000
40.2500 387.0000 1.0000
40.2600 403.0000 1.0000
40.2700 373.0000 1.0000
40.2800 366.0000 1.0000
40.2900 384.0000 1.0000
40.3000 376.0000 1.0000
40.3100 401.0000 1.0000
40.3200 415.0000 1.0000
40.3300 412.0000 1.0000
40.3400 373.0000 1.0000
40.3500 392.0000 1.0000
40.3600 386.0000 1.0000
40.3700 412.0000 1.0000
40.3800 385.0000 1.0000
40.3900 369.0000 1.0000
40.4000 370.0000 1.0000
40.4100 385.0000 1.0000
40.4200 338.0000 1.0000
40.4300 347.0000 1.0000
40.4400 382.0000 1.0000
40.4500 388.0000 1.0000
40.4600 368.0000 1.0000
40.4700 362.0000 1.0000
40.4800 381.0000 1.0000
40.4900 384.0000 1.0000
40.5000 380.0000 1.0000
40.5100 337.0000 1.0000
40.5200 364.0000 1.0000
40.5300 394.0000 1.0000
40.5400 384.0000 1.0000
40.5500 370.0000 1.0000
40.5600 390.0000 1.0000
40.5700 379.0000 1.0000
40.5800 392.0000 1.0000
40.5900 373.0000 1.0000
40.6000 370.0000 1.0000
40.6100 385.0000 1.0000
40.6200 387.0000 1.0000
40.6300 374.0000 1.0000
40.6400 370.0000 1.0000
40.6500 371.0000 1.0000
40.6600 383.0000 1.0000
40.6700 380.0000 1.0000
40.6800 369.0000 1.0000
40.6900 395.0000 1.0000
40.7000 378.0000 1.0000
40.7100 360.0000 1.0000
40.7200 383.0000 1.0000
40.7300 384.0000 1.0000
40.7400 406.0000 1.0000
40.7500 390.0000 1.0000
40.7600 364.0000 1.0000
40.7700 392.0000 1.0000
40.7800 397.0000 1.0000
40.7900 432.0000 1.0000
40.8000 420.0000 1.0000
40.8100 393.0000 1.0000
40.8200 388.0000 1.0000
40.8300 410.0000 1.0000
40.8400 401.0000 1.0000
40.8500 398.0000 1.0000
40.8600 448.0000 1.0000
40.8700 416.0000 1.0000
40.8800 407.0000 1.0000
40.8900 376.0000 1.0000
40.9000 392.0000 1.0000
40.9100 368.0000 1.0000
40.9200 356.0000 1.0000
40.9300 361.0000 1.0000
40.9400 404.0000 1.0000
40.9500 374.0000 1.0000
40.9600 393.0000 1.0000
40.9700 363.0000 1.0000
40.9800 385.0000 1.0000
40.9900 395.0000 1.0000
41.0000 372.0000 1.0000
41.0100 377.0000 1.0000
41.0200 390.0000 1.0000
41.0300 392.0000 1.0000
41.0400 404.0000 1.0000
41.0500 370.0000 1.0000
41.0600 336.0000 1.0000
41.0700 331.0000 1.0000
41.0800 385.0000 1.0000
41.0900 377.0000 1.0000
41.1000 364.0000 1.0000
41.1100 368.0000 1.0000
41.1200 384.0000 1.0000
41.1300 394.0000 1.0000
41.1400 343.0000 1.0000
41.1500 355.0000 1.0000
41.1600 368.0000 1.0000
41.1700 377.0000 1.0000
41.1800 359.0000 1.0000
41.1900 348.0000 1.0000
41.2000 354.0000 1.0000
41.2100 349.0000 1.0000
41.2200 367.0000 1.0000
41.2300 376.0000 1.0000
41.2400 399.0000 1.0000
41.2500 382.0000 1.0000
41.2600 381.0000 1.0000
41.2700 366.0000 1.0000
41.2800 374.0000 1.0000
41.2900 344.0000 1.0000
41.3000 365.0000 1.0000
41.3100 345.0000 1.0000
41.3200 354.0000 1.0000
41.3300 384.0000 1.0000
41.3400 370.0000 1.0000
41.3500 396.0000 1.0000
41.3600 368.0000 1.0000
41.3700 357.0000 1.0000
41.3800 371.0000 1.0000
41.3900 335.0000 1.0000
41.4000 370.0000 1.0000
41.4100 369.0000 1.0000
41.4200 373.0000 1.0000
41.4300 383.0000 1.0000
41.4400 364.0000 1.0000
41.4500 383.0000 1.0000
41.4600 351.0000 1.0000
41.4700 372.0000 1.0000
41.4800 339.0000 1.0000
41.4900 344.0000 1.0000
41.5000 343.0000 1.0000
41.5100 358.0000 1.0000
41.5200 376.0000 1.0000
41.5300 353.0000 1.0000
41.5400 391.0000 1.0000
41.5500 392.0000 1.0000
41.5600 395.0000 1.0000
41.5700 401.0000 1.0000
41.5800 364.0000 1.0000
41.5900 376.0000 1.0000
41.6000 379.0000 1.0000
41.6100 327.0000 1.0000
41.6200 378.0000 1.0000
41.6300 382.0000 1.0000
41.6400 365.0000 1.0000
41.6500 369.0000 1.0000
41.6600 380.0000 1.0000
41.6700 369.0000 1.0000
41.6800 350.0000 1.0000
41.6900 379.0000 1.0000
41.7000 358.0000 1.0000
41.7100 369.0000 1.0000
41.7200 386.0000 1.0000
41.7300 356.0000 1.0000
41.7400 367.0000 1.0000
41.7500 355.0000 1.0000
41.7600 368.0000 1.0000
41.7700 377.0000 1.0000
41.7800 356.0000 1.0000
41.7900 376.0000 1.0000
41.8000 357.0000 1.0000
41.8100 358.0000 1.0000
41.8200 364.0000 1.0000
41.8300 364.0000 1.0000
41.8400 363.0000 1.0000
41.8500 363.0000 1.0000
41.8600 368.0000 1.0000
41.8700 361.0000 1.0000
41.8800 355.0000 1.0000
41.8900 358.0000 1.0000
41.9000 353.0000 1.0000
41.9100 356.0000 1.0000
41.9200 373.0000 1.0000
41.9300 353.0000 1.0000
41.9400 375.0000 1.0000
41.9500 376.0000 1.0000
41.9600 359.0000 1.0000
41.9700 357.0000 1.0000
41.9800 365.0000 1.0000
41.9900 363.0000 1.0000
42.0000 389.0000 1.0000
42.0100 365.0000 1.0000
42.0200 352.0000 1.0000
42.0300 385.0000 1.0000
42.0400 384.0000 1.0000
42.0500 406.0000 1.0000
42.0600 381.0000 1.0000
42.0700 361.0000 1.0000
42.0800 372.0000 1.0000
42.0900 377.0000 1.0000
42.1000 379.0000 1.0000
42.1100 375.0000 1.0000
42.1200 366.0000 1.0000
42.1300 362.0000 1.0000
42.1400 387.0000 1.0000
42.1500 358.0000 1.0000
42.1600 360.0000 1.0000
42.1700 367.0000 1.0000
42.1800 366.0000 1.0000
42.1900 371.0000 1.0000
42.2000 376.0000 1.0000
42.2100 363.0000 1.0000
42.2200 405.0000 1.0000
42.2300 367.0000 1.0000
42.2400 374.0000 1.0000
42.2500 373.0000 1.0000
42.2600 393.0000 1.0000
42.2700 374.0000 1.0000
42.2800 382.0000 1.0000
42.2900 400.0000 1.0000
42.3000 379.0000 1.0000
42.3100 403.0000 1.0000
42.3200 396.0000 1.0000
42.3300 367.0000 1.0000
42.3400 399.0000 1.0000
42.3500 393.0000 1.0000
42.3600 360.0000 1.0000
42.3700 400.0000 1.0000
42.3800 398.0000 1.0000
42.3900 412.0000 1.0000
42.4000 379.0000 1.0000
42.4100 407.0000 1.0000
42.4200 415.0000 1.0000
42.4300 408.0000 1.0000
42.4400 387.0000 1.0000
42.4500 423.0000 1.0000
42.4600 410.0000 1.0000
42.4700 384.0000 1.0000
42.4800 364.0000 1.0000
42.4900 392.0000 1.0000
42.5000 403.0000 1.0000
42.5100 427.0000 1.0000
42.5200 408.0000 1.0000
42.5300 398.0000 1.0000
42.5400 403.0000 1.0000
42.5500 387.0000 1.0000
42.5600 369.0000 1.0000
42.5700 368.0000 1.0000
42.5800 377.0000 1.0000
42.5900 354.0000 1.0000
42.6000 391.0000 1.0000
42.6100 342.0000 1.0000
42.6200 378.0000 1.0000
42.6300 379.0000 1.0000
42.6400 396.0000 1.0000
42.6500 375.0000 1.0000
42.6600 349.0000 1.0000
42.6700 392.0000 1.0000
42.6800 383.0000 1.0000
42.6900 377.0000 1.0000
42.7000 367.0000 1.0000
42.7100 388.0000 1.0000
42.7200 369.0000 1.0000
42.7300 349.0000 1.0000
42.7400 371.0000 1.0000
42.7500 366.0000 1.0000
42.7600 365.0000 1.0000
42.7700 361.0000 1.0000
42.7800 379.0000 1.0000
42.7900 356.0000 1.0000
42.8000 337.0000 1.0000
42.8100 341.0000 1.0000
42.8200 370.0000 1.0000
42.8300 367.0000 1.0000
42.8400 365.0000 1.0000
42.8500 357.0000 1.0000
42.8600 366.0000 1.0000
42.8700 352.0000 1.0000
42.8800 348.0000 1.0000
42.8900 369.0000 1.0000
42.9000 357.0000 1.0000
42.9100 367.0000 1.0000
42.9200 377.0000 1.0000
42.9300 369.0000 1.0000
42.9400 375.0000 1.0000
42.9500 348.0000 1.0000
42.9600 351.0000 1.0000
42.9700 357.0000 1.0000
42.9800 358.0000 1.0000
42.9900 359.0000 1.0000
43.0000 360.0000 1.0000
43.0100 373.0000 1.0000
43.0200 357.0000 1.0000
43.0300 352.0000 1.0000
43.0400 362.0000 1.0000
43.0500 382.0000 1.0000
43.0600 359.0000 1.0000
43.0700 346.0000 1.0000
43.0800 382.0000 1.0000
43.0900 355.0000 1.0000
43.1000 358.0000 1.0000
43.1100 351.0000 1.0000
43.1200 355.0000 1.0000
43.1300 364.0000 1.0000
43.1400 354.0000 1.0000
43.1500 353.0000 1.0000
43.1600 389.0000 1.0000
43.1700 374.0000 1.0000
43.1800 378.0000 1.0000
43.1900 353.0000 1.0000
43.2000 382.0000 1.0000
43.2100 330.0000 1.0000
43.2200 339.0000 1.0000
43.2300 393.0000 1.0000
43.2400 370.0000 1.0000
43.2500 386.0000 1.0000
43.2600 321.0000 1.0000
43.2700 355.0000 1.0000
43.2800 368.0000 1.0000
43.2900 380.0000 1.0000
43.3000 353.0000 1.0000
43.3100 368.0000 1.0000
43.3200 346.0000 1.0000
43.3300 344.0000 1.0000
43.3400 359.0000 1.0000
43.3500 359.0000 1.0000
43.3600 356.0000 1.0000
43.3700 381.0000 1.0000
43.3800 334.0000 1.0000
43.3900 359.0000 1.0000
43.4000 356.0000 1.0000
43.4100 381.0000 1.0000
43.4200 383.0000 1.0000
43.4300 371.0000 1.0000
43.4400 367.0000 1.0000
43.4500 348.0000 1.0000
43.4600 357.0000 1.0000
43.4700 364.0000 1.0000
43.4800 359.0000 1.0000
43.4900 360.0000 1.0000
43.5000 361.0000 1.0000
43.5100 387.0000 1.0000
43.5200 382.0000 1.0000
43.5300 384.0000 1.0000
43.5400 394.0000 1.0000
43.5500 359.0000 1.0000
43.5600 366.0000 1.0000
43.5700 359.0000 1.0000
43.5800 359.0000 1.0000
43.5900 356.0000 1.0000
43.6000 367.0000 1.0000
43.6100 373.0000 1.0000
43.6200 380.0000 1.0000
43.6300 357.0000 1.0000
43.6400 325.0000 1.0000
43.6500 327.0000 1.0000
43.6600 361.0000 1.0000
43.6700 386.0000 1.0000
43.6800 352.0000 1.0000
43.6900 368.0000 1.0000
43.7000 358.0000 1.0000
43.7100 338.0000 1.0000
43.7200 351.0000 1.0000
43.7300 368.0000 1.0000
43.7400 325.0000 1.0000
43.7500 356.0000 1.0000
43.7600 361.0000 1.0000
43.7700 344.0000 1.0000
43.7800 325.0000 1.0000
43.7900 355.0000 1.0000
43.8000 374.0000 1.0000
43.8100 354.0000 1.0000
43.8200 373.0000 1.0000
43.8300 360.0000 1.0000
43.8400 340.0000 1.0000
43.8500 367.0000 1.0000
43.8600 345.0000 1.0000
43.8700 319.0000 1.0000
43.8800 372.0000 1.0000
43.8900 342.0000 1.0000
43.9000 334.0000 1.0000
43.9100 337.0000 1.0000
43.9200 324.0000 1.0000
43.9300 345.0000 1.0000
43.9400 336.0000 1.0000
43.9500 372.0000 1.0000
43.9600 386.0000 1.0000
43.9700 345.0000 1.0000
43.9800 328.0000 1.0000
43.9900 347.0000 1.0000
44.0000 377.0000 1.0000
44.0100 386.0000 1.0000
44.0200 331.0000 1.0000
44.0300 355.0000 1.0000
44.0400 356.0000 1.0000
44.0500 342.0000 1.0000
44.0600 327.0000 1.0000
44.0700 342.0000 1.0000
44.0800 343.0000 1.0000
44.0900 355.0000 1.0000
44.1000 354.0000 1.0000
44.1100 347.0000 1.0000
44.1200 332.0000 1.0000
44.1300 329.0000 1.0000
44.1400 364.0000 1.0000
44.1500 368.0000 1.0000
44.1600 365.0000 1.0000
44.1700 311.0000 1.0000
44.1800 335.0000 1.0000
44.1900 342.0000 1.0000
44.2000 332.0000 1.0000
44.2100 375.0000 1.0000
44.2200 319.0000 1.0000
44.2300 301.0000 1.0000
44.2400 296.0000 1.0000
44.2500 346.0000 1.0000
44.2600 315.0000 1.0000
44.2700 317.0000 1.0000
44.2800 334.0000 1.0000
44.2900 369.0000 1.0000
44.3000 352.0000 1.0000
44.3100 349.0000 1.0000
44.3200 362.0000 1.0000
44.3300 365.0000 1.0000
44.3400 325.0000 1.0000
44.3500 354.0000 1.0000
44.3600 357.0000 1.0000
44.3700 307.0000 1.0000
44.3800 356.0000 1.0000
44.3900 347.0000 1.0000
44.4000 369.0000 1.0000
44.4100 358.0000 1.0000
44.4200 329.0000 1.0000
44.4300 334.0000 1.0000
44.4400 314.0000 1.0000
44.4500 300.0000 1.0000
44.4600 328.0000 1.0000
44.4700 318.0000 1.0000
44.4800 347.0000 1.0000
44.4900 364.0000 1.0000
44.5000 370.0000 1.0000
44.5100 365.0000 1.0000
44.5200 332.0000 1.0000
44.5300 352.0000 1.0000
44.5400 341.0000 1.0000
44.5500 343.0000 1.0000
44.5600 329.0000 1.0000
44.5700 365.0000 1.0000
44.5800 364.0000 1.0000
44.5900 331.0000 1.0000
44.6000 331.0000 1.0000
44.6100 331.0000 1.0000
44.6200 350.0000 1.0000
44.6300 340.0000 1.0000
44.6400 367.0000 1.0000
44.6500 350.0000 1.0000
44.6600 345.0000 1.0000
44.6700 314.0000 1.0000
44.6800 354.0000 1.0000
44.6900 364.0000 1.0000
44.7000 352.0000 1.0000
44.7100 365.0000 1.0000
44.7200 361.0000 1.0000
44.7300 329.0000 1.0000
44.7400 345.0000 1.0000
44.7500 320.0000 1.0000
44.7600 337.0000 1.0000
44.7700 332.0000 1.0000
44.7800 353.0000 1.0000
44.7900 340.0000 1.0000
44.8000 348.0000 1.0000
44.8100 335.0000 1.0000
44.8200 320.0000 1.0000
44.8300 320.0000 1.0000
44.8400 336.0000 1.0000
44.8500 341.0000 1.0000
44.8600 349.0000 1.0000
44.8700 362.0000 1.0000
44.8800 331.0000 1.0000
44.8900 360.0000 1.0000
44.9000 357.0000 1.0000
44.9100 315.0000 1.0000
44.9200 286.0000 1.0000
44.9300 352.0000 1.0000
44.9400 361.0000 1.0000
44.9500 343.0000 1.0000
44.9600 324.0000 1.0000
44.9700 319.0000 1.0000
44.9800 317.0000 1.0000
44.9900 342.0000 1.0000
45.0000 349.0000 1.0000
45.0100 332.0000 1.0000
45.0200 333.0000 1.0000
45.0300 328.0000 1.0000
45.0400 359.0000 1.0000
45.0500 362.0000 1.0000
45.0600 337.0000 1.0000
45.0700 317.0000 1.0000
45.0800 351.0000 1.0000
45.0900 337.0000 1.0000
45.1000 342.0000 1.0000
45.1100 368.0000 1.0000
45.1200 346.0000 1.0000
45.1300 334.0000 1.0000
45.1400 346.0000 1.0000
45.1500 326.0000 1.0000
45.1600 348.0000 1.0000
45.1700 337.0000 1.0000
45.1800 359.0000 1.0000
45.1900 329.0000 1.0000
45.2000 347.0000 1.0000
45.2100 363.0000 1.0000
45.2200 339.0000 1.0000
45.2300 351.0000 1.0000
45.2400 309.0000 1.0000
45.2500 328.0000 1.0000
45.2600 337.0000 1.0000
45.2700 332.0000 1.0000
45.2800 357.0000 1.0000
45.2900 359.0000 1.0000
45.3000 350.0000 1.0000
45.3100 343.0000 1.0000
45.3200 346.0000 1.0000
45.3300 359.0000 1.0000
45.3400 319.0000 1.0000
45.3500 325.0000 1.0000
45.3600 316.0000 1.0000
45.3700 324.0000 1.0000
45.3800 320.0000 1.0000
45.3900 330.0000 1.0000
45.4000 329.0000 1.0000
45.4100 336.0000 1.0000
45.4200 338.0000 1.0000
45.4300 337.0000 1.0000
45.4400 316.0000 1.0000
45.4500 340.0000 1.0000
45.4600 324.0000 1.0000
45.4700 379.0000 1.0000
45.4800 327.0000 1.0000
45.4900 332.0000 1.0000
45.5000 339.0000 1.0000
45.5100 338.0000 1.0000
45.5200 326.0000 1.0000
45.5300 340.0000 1.0000
45.5400 340.0000 1.0000
45.5500 361.0000 1.0000
45.5600 341.0000 1.0000
45.5700 333.0000 1.0000
45.5800 317.0000 1.0000
45.5900 321.0000 1.0000
45.6000 339.0000 1.0000
45.6100 292.0000 1.0000
45.6200 291.0000 1.0000
45.6300 310.0000 1.0000
45.6400 325.0000 1.0000
45.6500 325.0000 1.0000
45.6600 341.0000 1.0000
45.6700 331.0000 1.0000
45.6800 298.0000 1.0000
45.6900 310.0000 1.0000
45.7000 351.0000 1.0000
45.7100 334.0000 1.0000
45.7200 344.0000 1.0000
45.7300 357.0000 1.0000
45.7400 320.0000 1.0000
45.7500 321.0000 1.0000
45.7600 335.0000 1.0000
45.7700 337.0000 1.0000
45.7800 343.0000 1.0000
45.7900 335.0000 1.0000
45.8000 305.0000 1.0000
45.8100 338.0000 1.0000
45.8200 364.0000 1.0000
45.8300 331.0000 1.0000
45.8400 338.0000 1.0000
45.8500 344.0000 1.0000
45.8600 342.0000 1.0000
45.8700 325.0000 1.0000
45.8800 354.0000 1.0000
45.8900 325.0000 1.0000
45.9000 311.0000 1.0000
45.9100 304.0000 1.0000
45.9200 316.0000 1.0000
45.9300 344.0000 1.0000
45.9400 326.0000 1.0000
45.9500 321.0000 1.0000
45.9600 329.0000 1.0000
45.9700 337.0000 1.0000
45.9800 326.0000 1.0000
45.9900 318.0000 1.0000
46.0000 348.0000 1.0000
46.0100 336.0000 1.0000
46.0200 343.0000 1.0000
46.0300 346.0000 1.0000
46.0400 328.0000 1.0000
46.0500 320.0000 1.0000
46.0600 348.0000 1.0000
46.0700 350.0000 1.0000
46.0800 352.0000 1.0000
46.0900 348.0000 1.0000
46.1000 330.0000 1.0000
46.1100 330.0000 1.0000
46.1200 321.0000 1.0000
46.1300 334.0000 1.0000
46.1400 350.0000 1.0000
46.1500 338.0000 1.0000
46.1600 335.0000 1.0000
46.1700 337.0000 1.0000
46.1800 339.0000 1.0000
46.1900 347.0000 1.0000
46.2000 346.0000 1.0000
46.2100 321.0000 1.0000
46.2200 351.0000 1.0000
46.2300 349.0000 1.0000
46.2400 364.0000 1.0000
46.2500 355.0000 1.0000
46.2600 343.0000 1.0000
46.2700 332.0000 1.0000
46.2800 347.0000 1.0000
46.2900 354.0000 1.0000
46.3000 333.0000 1.0000
46.3100 343.0000 1.0000
46.3200 326.0000 1.0000
46.3300 330.0000 1.0000
46.3400 336.0000 1.0000
46.3500 351.0000 1.0000
46.3600 324.0000 1.0000
46.3700 315.0000 1.0000
46.3800 331.0000 1.0000
46.3900 329.0000 1.0000
46.4000 330.0000 1.0000
46.4100 321.0000 1.0000
46.4200 337.0000 1.0000
46.4300 319.0000 1.0000
46.4400 316.0000 1.0000
46.4500 332.0000 1.0000
46.4600 323.0000 1.0000
46.4700 314.0000 1.0000
46.4800 306.0000 1.0000
46.4900 310.0000 1.0000
46.5000 349.0000 1.0000
46.5100 333.0000 1.0000
46.5200 323.0000 1.0000
46.5300 334.0000 1.0000
46.5400 310.0000 1.0000
46.5500 314.0000 1.0000
46.5600 342.0000 1.0000
46.5700 323.0000 1.0000
46.5800 327.0000 1.0000
46.5900 315.0000 1.0000
46.6000 320.0000 1.0000
46.6100 323.0000 1.0000
46.6200 349.0000 1.0000
46.6300 336.0000 1.0000
46.6400 342.0000 1.0000
46.6500 347.0000 1.0000
46.6600 328.0000 1.0000
46.6700 311.0000 1.0000
46.6800 311.0000 1.0000
46.6900 333.0000 1.0000
46.7000 327.0000 1.0000
46.7100 331.0000 1.0000
46.7200 342.0000 1.0000
46.7300 335.0000 1.0000
46.7400 320.0000 1.0000
46.7500 308.0000 1.0000
46.7600 343.0000 1.0000
46.7700 322.0000 1.0000
46.7800 332.0000 1.0000
46.7900 315.0000 1.0000
46.8000 332.0000 1.0000
46.8100 308.0000 1.0000
46.8200 331.0000 1.0000
46.8300 360.0000 1.0000
46.8400 337.0000 1.0000
46.8500 320.0000 1.0000
46.8600 306.0000 1.0000
46.8700 315.0000 1.0000
46.8800 346.0000 1.0000
46.8900 301.0000 1.0000
46.9000 279.0000 1.0000
46.9100 322.0000 1.0000
46.9200 313.0000 1.0000
46.9300 292.0000 1.0000
46.9400 320.0000 1.0000
46.9500 325.0000 1.0000
46.9600 316.0000 1.0000
46.9700 335.0000 1.0000
46.9800 334.0000 1.0000
46.9900 336.0000 1.0000
47.0000 303.0000 1.0000
47.0100 327.0000 1.0000
47.0200 323.0000 1.0000
47.0300 295.0000 1.0000
47.0400 315.0000 1.0000
47.0500 318.0000 1.0000
47.0600 336.0000 1.0000
47.0700 307.0000 1.0000
47.0800 275.0000 1.0000
47.0900 314.0000 1.0000
47.1000 306.0000 1.0000
47.1100 311.0000 1.0000
47.1200 315.0000 1.0000
47.1300 308.0000 1.0000
47.1400 312.0000 1.0000
47.1500 297.0000 1.0000
47.1600 313.0000 1.0000
47.1700 298.0000 1.0000
47.1800 324.0000 1.0000
47.1900 294.0000 1.0000
47.2000 334.0000 1.0000
47.2100 318.0000 1.0000
47.2200 319.0000 1.0000
47.2300 325.0000 1.0000
47.2400 323.0000 1.0000
47.2500 337.0000 1.0000
47.2600 327.0000 1.0000
47.2700 341.0000 1.0000
47.2800 327.0000 1.0000
47.2900 348.0000 1.0000
47.3000 317.0000 1.0000
47.3100 308.0000 1.0000
47.3200 289.0000 1.0000
47.3300 301.0000 1.0000
47.3400 285.0000 1.0000
47.3500 321.0000 1.0000
47.3600 297.0000 1.0000
47.3700 312.0000 1.0000
47.3800 328.0000 1.0000
47.3900 334.0000 1.0000
47.4000 280.0000 1.0000
47.4100 299.0000 1.0000
47.4200 323.0000 1.0000
47.4300 331.0000 1.0000
47.4400 314.0000 1.0000
47.4500 311.0000 1.0000
47.4600 326.0000 1.0000
47.4700 335.0000 1.0000
47.4800 325.0000 1.0000
47.4900 307.0000 1.0000
47.5000 306.0000 1.0000
47.5100 305.0000 1.0000
47.5200 311.0000 1.0000
47.5300 288.0000 1.0000
47.5400 315.0000 1.0000
47.5500 313.0000 1.0000
47.5600 320.0000 1.0000
47.5700 291.0000 1.0000
47.5800 296.0000 1.0000
47.5900 321.0000 1.0000
47.6000 308.0000 1.0000
47.6100 311.0000 1.0000
47.6200 301.0000 1.0000
47.6300 311.0000 1.0000
47.6400 323.0000 1.0000
47.6500 306.0000 1.0000
47.6600 291.0000 1.0000
47.6700 325.0000 1.0000
47.6800 309.0000 1.0000
47.6900 314.0000 1.0000
47.7000 337.0000 1.0000
47.7100 321.0000 1.0000
47.7200 319.0000 1.0000
47.7300 320.0000 1.0000
47.7400 321.0000 1.0000
47.7500 327.0000 1.0000
47.7600 307.0000 1.0000
47.7700 314.0000 1.0000
47.7800 297.0000 1.0000
47.7900 300.0000 1.0000
47.8000 301.0000 1.0000
47.8100 332.0000 1.0000
47.8200 300.0000 1.0000
47.8300 294.0000 1.0000
47.8400 299.0000 1.0000
47.8500 315.0000 1.0000
47.8600 317.0000 1.0000
47.8700 296.0000 1.0000
47.8800 315.0000 1.0000
47.8900 323.0000 1.0000
47.9000 321.0000 1.0000
47.9100 329.0000 1.0000
47.9200 308.0000 1.0000
47.9300 314.0000 1.0000
47.9400 295.0000 1.0000
47.9500 338.0000 1.0000
47.9600 315.0000 1.0000
47.9700 301.0000 1.0000
47.9800 303.0000 1.0000
47.9900 302.0000 1.0000
48.0000 304.0000 1.0000
48.0100 344.0000 1.0000
48.0200 326.0000 1.0000
48.0300 333.0000 1.0000
48.0400 315.0000 1.0000
48.0500 321.0000 1.0000
48.0600 322.0000 1.0000
48.0700 331.0000 1.0000
48.0800 317.0000 1.0000
48.0900 325.0000 1.0000
48.1000 305.0000 1.0000
48.1100 314.0000 1.0000
48.1200 308.0000 1.0000
48.1300 315.0000 1.0000
48.1400 305.0000 1.0000
48.1500 293.0000 1.0000
48.1600 301.0000 1.0000
48.1700 301.0000 1.0000
48.1800 313.0000 1.0000
48.1900 281.0000 1.0000
48.2000 312.0000 1.0000
48.2100 315.0000 1.0000
48.2200 325.0000 1.0000
48.2300 321.0000 1.0000
48.2400 320.0000 1.0000
48.2500 325.0000 1.0000
48.2600 295.0000 1.0000
48.2700 300.0000 1.0000
48.2800 313.0000 1.0000
48.2900 345.0000 1.0000
48.3000 347.0000 1.0000
48.3100 317.0000 1.0000
48.3200 287.0000 1.0000
48.3300 290.0000 1.0000
48.3400 317.0000 1.0000
48.3500 308.0000 1.0000
48.3600 302.0000 1.0000
48.3700 295.0000 1.0000
48.3800 286.0000 1.0000
48.3900 299.0000 1.0000
48.4000 307.0000 1.0000
48.4100 298.0000 1.0000
48.4200 328.0000 1.0000
48.4300 328.0000 1.0000
48.4400 317.0000 1.0000
48.4500 298.0000 1.0000
48.4600 313.0000 1.0000
48.4700 284.0000 1.0000
48.4800 288.0000 1.0000
48.4900 289.0000 1.0000
48.5000 291.0000 1.0000
48.5100 317.0000 1.0000
48.5200 327.0000 1.0000
48.5300 322.0000 1.0000
48.5400 310.0000 1.0000
48.5500 317.0000 1.0000
48.5600 328.0000 1.0000
48.5700 301.0000 1.0000
48.5800 309.0000 1.0000
48.5900 333.0000 1.0000
48.6000 318.0000 1.0000
48.6100 287.0000 1.0000
48.6200 289.0000 1.0000
48.6300 290.0000 1.0000
48.6400 288.0000 1.0000
48.6500 292.0000 1.0000
48.6600 297.0000 1.0000
48.6700 284.0000 1.0000
48.6800 309.0000 1.0000
48.6900 297.0000 1.0000
48.7000 311.0000 1.0000
48.7100 319.0000 1.0000
48.7200 312.0000 1.0000
48.7300 326.0000 1.0000
48.7400 296.0000 1.0000
48.7500 273.0000 1.0000
48.7600 285.0000 1.0000
48.7700 295.0000 1.0000
48.7800 310.0000 1.0000
48.7900 322.0000 1.0000
48.8000 337.0000 1.0000
48.8100 317.0000 1.0000
48.8200 290.0000 1.0000
48.8300 324.0000 1.0000
48.8400 334.0000 1.0000
48.8500 300.0000 1.0000
48.8600 318.0000 1.0000
48.8700 297.0000 1.0000
48.8800 309.0000 1.0000
48.8900 313.0000 1.0000
48.9000 293.0000 1.0000
48.9100 303.0000 1.0000
48.9200 308.0000 1.0000
48.9300 299.0000 1.0000
48.9400 319.0000 1.0000
48.9500 325.0000 1.0000
48.9600 333.0000 1.0000
48.9700 316.0000 1.0000
48.9800 301.0000 1.0000
48.9900 309.0000 1.0000
49.0000 297.0000 1.0000
49.0100 308.0000 1.0000
49.0200 278.0000 1.0000
49.0300 306.0000 1.0000
49.0400 326.0000 1.0000
49.0500 321.0000 1.0000
49.0600 310.0000 1.0000
49.0700 284.0000 1.0000
49.0800 298.0000 1.0000
49.0900 305.0000 1.0000
49.1000 338.0000 1.0000
49.1100 312.0000 1.0000
49.1200 316.0000 1.0000
49.1300 329.0000 1.0000
49.1400 306.0000 1.0000
49.1500 302.0000 1.0000
49.1600 300.0000 1.0000
49.1700 306.0000 1.0000
49.1800 309.0000 1.0000
49.1900 302.0000 1.0000
49.2000 304.0000 1.0000
49.2100 305.0000 1.0000
49.2200 341.0000 1.0000
49.2300 316.0000 1.0000
49.2400 316.0000 1.0000
49.2500 348.0000 1.0000
49.2600 301.0000 1.0000
49.2700 300.0000 1.0000
49.2800 301.0000 1.0000
49.2900 325.0000 1.0000
49.3000 318.0000 1.0000
49.3100 315.0000 1.0000
49.3200 343.0000 1.0000
49.3300 346.0000 1.0000
49.3400 312.0000 1.0000
49.3500 317.0000 1.0000
49.3600 306.0000 1.0000
49.3700 334.0000 1.0000
49.3800 360.0000 1.0000
49.3900 363.0000 1.0000
49.4000 368.0000 1.0000
49.4100 350.0000 1.0000
49.4200 332.0000 1.0000
49.4300 336.0000 1.0000
49.4400 351.0000 1.0000
49.4500 368.0000 1.0000
49.4600 357.0000 1.0000
49.4700 363.0000 1.0000
49.4800 338.0000 1.0000
49.4900 367.0000 1.0000
49.5000 331.0000 1.0000
49.5100 342.0000 1.0000
49.5200 341.0000 1.0000
49.5300 344.0000 1.0000
49.5400 319.0000 1.0000
49.5500 337.0000 1.0000
49.5600 346.0000 1.0000
49.5700 339.0000 1.0000
49.5800 350.0000 1.0000
49.5900 313.0000 1.0000
49.6000 316.0000 1.0000
49.6100 304.0000 1.0000
49.6200 353.0000 1.0000
49.6300 324.0000 1.0000
49.6400 355.0000 1.0000
49.6500 309.0000 1.0000
49.6600 334.0000 1.0000
49.6700 293.0000 1.0000
49.6800 300.0000 1.0000
49.6900 318.0000 1.0000
49.7000 314.0000 1.0000
49.7100 328.0000 1.0000
49.7200 316.0000 1.0000
49.7300 327.0000 1.0000
49.7400 322.0000 1.0000
49.7500 328.0000 1.0000
49.7600 285.0000 1.0000
49.7700 277.0000 1.0000
49.7800 320.0000 1.0000
49.7900 330.0000 1.0000
49.8000 334.0000 1.0000
49.8100 312.0000 1.0000
49.8200 302.0000 1.0000
49.8300 303.0000 1.0000
49.8400 327.0000 1.0000
49.8500 326.0000 1.0000
49.8600 324.0000 1.0000
49.8700 314.0000 1.0000
49.8800 283.0000 1.0000
49.8900 298.0000 1.0000
49.9000 297.0000 1.0000
49.9100 316.0000 1.0000
49.9200 297.0000 1.0000
49.9300 320.0000 1.0000
49.9400 324.0000 1.0000
49.9500 325.0000 1.0000
49.9600 301.0000 1.0000
49.9700 320.0000 1.0000
49.9800 326.0000 1.0000
49.9900 313.0000 1.0000
50.0000 329.0000 1.0000
50.0100 311.0000 1.0000
50.0200 309.0000 1.0000
50.0300 317.0000 1.0000
50.0400 316.0000 1.0000
50.0500 324.0000 1.0000
50.0600 337.0000 1.0000
50.0700 300.0000 1.0000
50.0800 295.0000 1.0000
50.0900 321.0000 1.0000
50.1000 299.0000 1.0000
50.1100 285.0000 1.0000
50.1200 294.0000 1.0000
50.1300 306.0000 1.0000
50.1400 313.0000 1.0000
50.1500 283.0000 1.0000
50.1600 313.0000 1.0000
50.1700 305.0000 1.0000
50.1800 328.0000 1.0000
50.1900 319.0000 1.0000
50.2000 333.0000 1.0000
50.2100 322.0000 1.0000
50.2200 315.0000 1.0000
50.2300 308.0000 1.0000
50.2400 331.0000 1.0000
50.2500 319.0000 1.0000
50.2600 328.0000 1.0000
50.2700 321.0000 1.0000
50.2800 307.0000 1.0000
50.2900 305.0000 1.0000
50.3000 299.0000 1.0000
50.3100 334.0000 1.0000
50.3200 311.0000 1.0000
50.3300 329.0000 1.0000
50.3400 327.0000 1.0000
50.3500 324.0000 1.0000
50.3600 328.0000 1.0000
50.3700 320.0000 1.0000
50.3800 343.0000 1.0000
50.3900 328.0000 1.0000
50.4000 305.0000 1.0000
50.4100 317.0000 1.0000
50.4200 300.0000 1.0000
50.4300 340.0000 1.0000
50.4400 295.0000 1.0000
50.4500 313.0000 1.0000
50.4600 309.0000 1.0000
50.4700 330.0000 1.0000
50.4800 298.0000 1.0000
50.4900 320.0000 1.0000
50.5000 285.0000 1.0000
50.5100 301.0000 1.0000
50.5200 291.0000 1.0000
50.5300 343.0000 1.0000
50.5400 307.0000 1.0000
50.5500 303.0000 1.0000
50.5600 318.0000 1.0000
50.5700 318.0000 1.0000
50.5800 334.0000 1.0000
50.5900 327.0000 1.0000
50.6000 339.0000 1.0000
50.6100 318.0000 1.0000
50.6200 322.0000 1.0000
50.6300 323.0000 1.0000
50.6400 319.0000 1.0000
50.6500 311.0000 1.0000
50.6600 311.0000 1.0000
50.6700 315.0000 1.0000
50.6800 266.0000 1.0000
50.6900 293.0000 1.0000
50.7000 299.0000 1.0000
50.7100 314.0000 1.0000
50.7200 341.0000 1.0000
50.7300 313.0000 1.0000
50.7400 287.0000 1.0000
50.7500 329.0000 1.0000
50.7600 307.0000 1.0000
50.7700 329.0000 1.0000
50.7800 303.0000 1.0000
50.7900 290.0000 1.0000
50.8000 328.0000 1.0000
50.8100 308.0000 1.0000
50.8200 299.0000 1.0000
50.8300 328.0000 1.0000
50.8400 324.0000 1.0000
50.8500 343.0000 1.0000
50.8600 349.0000 1.0000
50.8700 324.0000 1.0000
50.8800 332.0000 1.0000
50.8900 339.0000 1.0000
50.9000 351.0000 1.0000
50.9100 330.0000 1.0000
50.9200 338.0000 1.0000
50.9300 320.0000 1.0000
50.9400 312.0000 1.0000
50.9500 357.0000 1.0000
50.9600 327.0000 1.0000
50.9700 333.0000 1.0000
50.9800 306.0000 1.0000
50.9900 337.0000 1.0000
51.0000 340.0000 1.0000
51.0100 350.0000 1.0000
51.0200 355.0000 1.0000
51.0300 335.0000 1.0000
51.0400 345.0000 1.0000
51.0500 372.0000 1.0000
51.0600 370.0000 1.0000
51.0700 378.0000 1.0000
51.0800 364.0000 1.0000
51.0900 380.0000 1.0000
51.1000 389.0000 1.0000
51.1100 383.0000 1.0000
51.1200 365.0000 1.0000
51.1300 391.0000 1.0000
51.1400 391.0000 1.0000
51.1500 410.0000 1.0000
51.1600 388.0000 1.0000
51.1700 434.0000 1.0000
51.1800 423.0000 1.0000
51.1900 469.0000 1.0000
51.2000 427.0000 1.0000
51.2100 442.0000 1.0000
51.2200 458.0000 1.0000
51.2300 507.0000 1.0000
51.2400 489.0000 1.0000
51.2500 552.0000 1.0000
51.2600 592.0000 1.0000
51.2700 566.0000 1.0000
51.2800 570.0000 1.0000
51.2900 635.0000 1.0000
51.3000 648.0000 1.0000
51.3100 677.0000 1.0000
51.3200 729.0000 1.0000
51.3300 757.0000 1.0000
51.3400 782.0000 1.0000
51.3500 871.0000 1.0000
51.3600 938.0000 1.0000
51.3700 970.0000 1.0000
51.3800 1101.0000 1.0000
51.3900 1253.0000 1.0000
51.4000 1302.0000 1.0000
51.4100 1424.0000 1.0000
51.4200 1477.0000 1.0000
51.4300 1600.0000 1.0000
51.4400 1644.0000 1.0000
51.4500 1808.0000 1.0000
51.4600 1870.0000 1.0000
51.4700 1971.0000 1.0000
51.4800 2046.0000 1.0000
51.4900 2177.0000 1.0000
51.5000 2105.0000 1.0000
51.5100 2106.0000 1.0000
51.5200 2102.0000 1.0000
51.5300 2112.0000 1.0000
51.5400 1970.0000 1.0000
51.5500 1952.0000 1.0000
51.5600 1828.0000 1.0000
51.5700 1714.0000 1.0000
51.5800 1770.0000 1.0000
51.5900 1693.0000 1.0000
51.6000 1637.0000 1.0000
51.6100 1616.0000 1.0000
51.6200 1556.0000 1.0000
51.6300 1534.0000 1.0000
51.6400 1534.0000 1.0000
51.6500 1428.0000 1.0000
51.6600 1348.0000 1.0000
51.6700 1233.0000 1.0000
51.6800 1178.0000 1.0000
51.6900 1066.0000 1.0000
51.7000 1017.0000 1.0000
51.7100 972.0000 1.0000
51.7200 938.0000 1.0000
51.7300 823.0000 1.0000
51.7400 791.0000 1.0000
51.7500 695.0000 1.0000
51.7600 705.0000 1.0000
51.7700 649.0000 1.0000
51.7800 612.0000 1.0000
51.7900 595.0000 1.0000
51.8000 572.0000 1.0000
51.8100 551.0000 1.0000
51.8200 545.0000 1.0000
51.8300 504.0000 1.0000
51.8400 477.0000 1.0000
51.8500 429.0000 1.0000
51.8600 447.0000 1.0000
51.8700 461.0000 1.0000
51.8800 434.0000 1.0000
51.8900 436.0000 1.0000
51.9000 402.0000 1.0000
51.9100 432.0000 1.0000
51.9200 389.0000 1.0000
51.9300 415.0000 1.0000
51.9400 402.0000 1.0000
51.9500 392.0000 1.0000
51.9600 369.0000 1.0000
51.9700 357.0000 1.0000
51.9800 385.0000 1.0000
51.9900 373.0000 1.0000
52.0000 387.0000 1.0000
52.0100 352.0000 1.0000
52.0200 358.0000 1.0000
52.0300 335.0000 1.0000
52.0400 366.0000 1.0000
52.0500 350.0000 1.0000
52.0600 342.0000 1.0000
52.0700 345.0000 1.0000
52.0800 332.0000 1.0000
52.0900 371.0000 1.0000
52.1000 344.0000 1.0000
52.1100 322.0000 1.0000
52.1200 324.0000 1.0000
52.1300 344.0000 1.0000
52.1400 327.0000 1.0000
52.1500 358.0000 1.0000
52.1600 330.0000 1.0000
52.1700 344.0000 1.0000
52.1800 347.0000 1.0000
52.1900 324.0000 1.0000
52.2000 297.0000 1.0000
52.2100 333.0000 1.0000
52.2200 327.0000 1.0000
52.2300 313.0000 1.0000
52.2400 300.0000 1.0000
52.2500 317.0000 1.0000
52.2600 333.0000 1.0000
52.2700 311.0000 1.0000
52.2800 318.0000 1.0000
52.2900 311.0000 1.0000
52.3000 302.0000 1.0000
52.3100 291.0000 1.0000
52.3200 299.0000 1.0000
52.3300 328.0000 1.0000
52.3400 344.0000 1.0000
52.3500 309.0000 1.0000
52.3600 311.0000 1.0000
52.3700 300.0000 1.0000
52.3800 291.0000 1.0000
52.3900 315.0000 1.0000
52.4000 303.0000 1.0000
52.4100 316.0000 1.0000
52.4200 330.0000 1.0000
52.4300 308.0000 1.0000
52.4400 304.0000 1.0000
52.4500 327.0000 1.0000
52.4600 311.0000 1.0000
52.4700 339.0000 1.0000
52.4800 338.0000 1.0000
52.4900 317.0000 1.0000
52.5000 325.0000 1.0000
52.5100 321.0000 1.0000
52.5200 310.0000 1.0000
52.5300 298.0000 1.0000
52.5400 270.0000 1.0000
52.5500 309.0000 1.0000
52.5600 335.0000 1.0000
52.5700 290.0000 1.0000
52.5800 302.0000 1.0000
52.5900 290.0000 1.0000
52.6000 315.0000 1.0000
52.6100 314.0000 1.0000
52.6200 308.0000 1.0000
52.6300 305.0000 1.0000
52.6400 340.0000 1.0000
52.6500 287.0000 1.0000
52.6600 307.0000 1.0000
52.6700 319.0000 1.0000
52.6800 312.0000 1.0000
52.6900 325.0000 1.0000
52.7000 298.0000 1.0000
52.7100 281.0000 1.0000
52.7200 282.0000 1.0000
52.7300 302.0000 1.0000
52.7400 286.0000 1.0000
52.7500 318.0000 1.0000
52.7600 327.0000 1.0000
52.7700 298.0000 1.0000
52.7800 269.0000 1.0000
52.7900 283.0000 1.0000
52.8000 323.0000 1.0000
52.8100 338.0000 1.0000
52.8200 321.0000 1.0000
52.8300 296.0000 1.0000
52.8400 297.0000 1.0000
52.8500 304.0000 1.0000
52.8600 296.0000 1.0000
52.8700 282.0000 1.0000
52.8800 309.0000 1.0000
52.8900 278.0000 1.0000
52.9000 300.0000 1.0000
52.9100 304.0000 1.0000
52.9200 275.0000 1.0000
52.9300 301.0000 1.0000
52.9400 318.0000 1.0000
52.9500 296.0000 1.0000
52.9600 312.0000 1.0000
52.9700 321.0000 1.0000
52.9800 295.0000 1.0000
52.9900 291.0000 1.0000
53.0000 300.0000 1.0000
53.0100 292.0000 1.0000
53.0200 302.0000 1.0000
53.0300 295.0000 1.0000
53.0400 313.0000 1.0000
53.0500 281.0000 1.0000
53.0600 283.0000 1.0000
53.0700 326.0000 1.0000
53.0800 284.0000 1.0000
53.0900 300.0000 1.0000
53.1000 327.0000 1.0000
53.1100 304.0000 1.0000
53.1200 287.0000 1.0000
53.1300 290.0000 1.0000
53.1400 274.0000 1.0000
53.1500 277.0000 1.0000
53.1600 300.0000 1.0000
53.1700 298.0000 1.0000
53.1800 285.0000 1.0000
53.1900 307.0000 1.0000
53.2000 314.0000 1.0000
53.2100 304.0000 1.0000
53.2200 302.0000 1.0000
53.2300 285.0000 1.0000
53.2400 299.0000 1.0000
53.2500 299.0000 1.0000
53.2600 278.0000 1.0000
53.2700 321.0000 1.0000
53.2800 296.0000 1.0000
53.2900 299.0000 1.0000
53.3000 271.0000 1.0000
53.3100 288.0000 1.0000
53.3200 300.0000 1.0000
53.3300 269.0000 1.0000
53.3400 260.0000 1.0000
53.3500 288.0000 1.0000
53.3600 310.0000 1.0000
53.3700 284.0000 1.0000
53.3800 313.0000 1.0000
53.3900 303.0000 1.0000
53.4000 303.0000 1.0000
53.4100 286.0000 1.0000
53.4200 274.0000 1.0000
53.4300 297.0000 1.0000
53.4400 291.0000 1.0000
53.4500 313.0000 1.0000
53.4600 280.0000 1.0000
53.4700 294.0000 1.0000
53.4800 280.0000 1.0000
53.4900 289.0000 1.0000
53.5000 300.0000 1.0000
53.5100 287.0000 1.0000
53.5200 287.0000 1.0000
53.5300 307.0000 1.0000
53.5400 316.0000 1.0000
53.5500 304.0000 1.0000
53.5600 299.0000 1.0000
53.5700 304.0000 1.0000
53.5800 311.0000 1.0000
53.5900 282.0000 1.0000
53.6000 272.0000 1.0000
53.6100 299.0000 1.0000
53.6200 288.0000 1.0000
53.6300 291.0000 1.0000
53.6400 301.0000 1.0000
53.6500 303.0000 1.0000
53.6600 283.0000 1.0000
53.6700 291.0000 1.0000
53.6800 267.0000 1.0000
53.6900 289.0000 1.0000
53.7000 278.0000 1.0000
53.7100 287.0000 1.0000
53.7200 299.0000 1.0000
53.7300 314.0000 1.0000
53.7400 288.0000 1.0000
53.7500 299.0000 1.0000
53.7600 282.0000 1.0000
53.7700 295.0000 1.0000
53.7800 290.0000 1.0000
53.7900 272.0000 1.0000
53.8000 292.0000 1.0000
53.8100 296.0000 1.0000
53.8200 300.0000 1.0000
53.8300 290.0000 1.0000
53.8400 269.0000 1.0000
53.8500 289.0000 1.0000
53.8600 317.0000 1.0000
53.8700 305.0000 1.0000
53.8800 281.0000 1.0000
53.8900 295.0000 1.0000
53.9000 316.0000 1.0000
53.9100 313.0000 1.0000
53.9200 306.0000 1.0000
53.9300 298.0000 1.0000
53.9400 291.0000 1.0000
53.9500 289.0000 1.0000
53.9600 310.0000 1.0000
53.9700 291.0000 1.0000
53.9800 339.0000 1.0000
53.9900 320.0000 1.0000
54.0000 334.0000 1.0000
54.0100 319.0000 1.0000
54.0200 318.0000 1.0000
54.0300 325.0000 1.0000
54.0400 336.0000 1.0000
54.0500 364.0000 1.0000
54.0600 324.0000 1.0000
54.0700 327.0000 1.0000
54.0800 338.0000 1.0000
54.0900 332.0000 1.0000
54.1000 321.0000 1.0000
54.1100 316.0000 1.0000
54.1200 309.0000 1.0000
54.1300 307.0000 1.0000
54.1400 325.0000 1.0000
54.1500 340.0000 1.0000
54.1600 328.0000 1.0000
54.1700 309.0000 1.0000
54.1800 301.0000 1.0000
54.1900 279.0000 1.0000
54.2000 318.0000 1.0000
54.2100 332.0000 1.0000
54.2200 341.0000 1.0000
54.2300 324.0000 1.0000
54.2400 304.0000 1.0000
54.2500 314.0000 1.0000
54.2600 318.0000 1.0000
54.2700 310.0000 1.0000
54.2800 293.0000 1.0000
54.2900 317.0000 1.0000
54.3000 344.0000 1.0000
54.3100 354.0000 1.0000
54.3200 312.0000 1.0000
54.3300 345.0000 1.0000
54.3400 341.0000 1.0000
54.3500 312.0000 1.0000
54.3600 357.0000 1.0000
54.3700 357.0000 1.0000
54.3800 388.0000 1.0000
54.3900 374.0000 1.0000
54.4000 343.0000 1.0000
54.4100 411.0000 1.0000
54.4200 381.0000 1.0000
54.4300 375.0000 1.0000
54.4400 400.0000 1.0000
54.4500 390.0000 1.0000
54.4600 400.0000 1.0000
54.4700 412.0000 1.0000
54.4800 425.0000 1.0000
54.4900 436.0000 1.0000
54.5000 445.0000 1.0000
54.5100 405.0000 1.0000
54.5200 423.0000 1.0000
54.5300 468.0000 1.0000
54.5400 435.0000 1.0000
54.5500 429.0000 1.0000
54.5600 423.0000 1.0000
54.5700 441.0000 1.0000
54.5800 422.0000 1.0000
54.5900 414.0000 1.0000
54.6000 428.0000 1.0000
54.6100 380.0000 1.0000
54.6200 433.0000 1.0000
54.6300 453.0000 1.0000
54.6400 402.0000 1.0000
54.6500 412.0000 1.0000
54.6600 412.0000 1.0000
54.6700 397.0000 1.0000
54.6800 398.0000 1.0000
54.6900 386.0000 1.0000
54.7000 389.0000 1.0000
54.7100 391.0000 1.0000
54.7200 367.0000 1.0000
54.7300 394.0000 1.0000
54.7400 362.0000 1.0000
54.7500 378.0000 1.0000
54.7600 348.0000 1.0000
54.7700 337.0000 1.0000
54.7800 355.0000 1.0000
54.7900 369.0000 1.0000
54.8000 357.0000 1.0000
54.8100 323.0000 1.0000
54.8200 341.0000 1.0000
54.8300 325.0000 1.0000
54.8400 324.0000 1.0000
54.8500 312.0000 1.0000
54.8600 313.0000 1.0000
54.8700 294.0000 1.0000
54.8800 331.0000 1.0000
54.8900 342.0000 1.0000
54.9000 321.0000 1.0000
54.9100 329.0000 1.0000
54.9200 297.0000 1.0000
54.9300 297.0000 1.0000
54.9400 299.0000 1.0000
54.9500 340.0000 1.0000
54.9600 310.0000 1.0000
54.9700 295.0000 1.0000
54.9800 304.0000 1.0000
54.9900 320.0000 1.0000
55.0000 312.0000 1.0000
55.0100 261.0000 1.0000
55.0200 292.0000 1.0000
55.0300 291.0000 1.0000
55.0400 302.0000 1.0000
55.0500 304.0000 1.0000
55.0600 292.0000 1.0000
55.0700 308.0000 1.0000
55.0800 291.0000 1.0000
55.0900 293.0000 1.0000
55.1000 301.0000 1.0000
55.1100 288.0000 1.0000
55.1200 309.0000 1.0000
55.1300 308.0000 1.0000
55.1400 299.0000 1.0000
55.1500 321.0000 1.0000
55.1600 288.0000 1.0000
55.1700 278.0000 1.0000
55.1800 268.0000 1.0000
55.1900 290.0000 1.0000
55.2000 321.0000 1.0000
55.2100 301.0000 1.0000
55.2200 280.0000 1.0000
55.2300 290.0000 1.0000
55.2400 272.0000 1.0000
55.2500 275.0000 1.0000
55.2600 296.0000 1.0000
55.2700 299.0000 1.0000
55.2800 325.0000 1.0000
55.2900 299.0000 1.0000
55.3000 295.0000 1.0000
55.3100 328.0000 1.0000
55.3200 302.0000 1.0000
55.3300 298.0000 1.0000
55.3400 291.0000 1.0000
55.3500 328.0000 1.0000
55.3600 284.0000 1.0000
55.3700 291.0000 1.0000
55.3800 247.0000 1.0000
55.3900 281.0000 1.0000
55.4000 288.0000 1.0000
55.4100 295.0000 1.0000
55.4200 305.0000 1.0000
55.4300 309.0000 1.0000
55.4400 288.0000 1.0000
55.4500 271.0000 1.0000
55.4600 293.0000 1.0000
55.4700 287.0000 1.0000
55.4800 303.0000 1.0000
55.4900 282.0000 1.0000
55.5000 310.0000 1.0000
55.5100 311.0000 1.0000
55.5200 310.0000 1.0000
55.5300 303.0000 1.0000
55.5400 280.0000 1.0000
55.5500 285.0000 1.0000
55.5600 295.0000 1.0000
55.5700 298.0000 1.0000
55.5800 293.0000 1.0000
55.5900 292.0000 1.0000
55.6000 269.0000 1.0000
55.6100 284.0000 1.0000
55.6200 263.0000 1.0000
55.6300 283.0000 1.0000
55.6400 294.0000 1.0000
55.6500 305.0000 1.0000
55.6600 282.0000 1.0000
55.6700 288.0000 1.0000
55.6800 316.0000 1.0000
55.6900 297.0000 1.0000
55.7000 300.0000 1.0000
55.7100 302.0000 1.0000
55.7200 260.0000 1.0000
55.7300 268.0000 1.0000
55.7400 290.0000 1.0000
55.7500 284.0000 1.0000
55.7600 271.0000 1.0000
55.7700 309.0000 1.0000
55.7800 303.0000 1.0000
55.7900 274.0000 1.0000
55.8000 286.0000 1.0000
55.8100 294.0000 1.0000
55.8200 315.0000 1.0000
55.8300 312.0000 1.0000
55.8400 291.0000 1.0000
55.8500 280.0000 1.0000
55.8600 263.0000 1.0000
55.8700 279.0000 1.0000
55.8800 282.0000 1.0000
55.8900 279.0000 1.0000
55.9000 295.0000 1.0000
55.9100 312.0000 1.0000
55.9200 294.0000 1.0000
55.9300 298.0000 1.0000
55.9400 303.0000 1.0000
55.9500 299.0000 1.0000
55.9600 273.0000 1.0000
55.9700 313.0000 1.0000
55.9800 284.0000 1.0000
55.9900 294.0000 1.0000
56.0000 305.0000 1.0000
56.0100 301.0000 1.0000
56.0200 283.0000 1.0000
56.0300 266.0000 1.0000
56.0400 276.0000 1.0000
56.0500 296.0000 1.0000
56.0600 301.0000 1.0000
56.0700 295.0000 1.0000
56.0800 314.0000 1.0000
56.0900 293.0000 1.0000
56.1000 231.0000 1.0000
56.1100 279.0000 1.0000
56.1200 291.0000 1.0000
56.1300 275.0000 1.0000
56.1400 270.0000 1.0000
56.1500 286.0000 1.0000
56.1600 264.0000 1.0000
56.1700 319.0000 1.0000
56.1800 300.0000 1.0000
56.1900 285.0000 1.0000
56.2000 289.0000 1.0000
56.2100 267.0000 1.0000
56.2200 278.0000 1.0000
56.2300 298.0000 1.0000
56.2400 299.0000 1.0000
56.2500 277.0000 1.0000
56.2600 274.0000 1.0000
56.2700 302.0000 1.0000
56.2800 315.0000 1.0000
56.2900 292.0000 1.0000
56.3000 272.0000 1.0000
56.3100 260.0000 1.0000
56.3200 287.0000 1.0000
56.3300 283.0000 1.0000
56.3400 303.0000 1.0000
56.3500 290.0000 1.0000
56.3600 274.0000 1.0000
56.3700 275.0000 1.0000
56.3800 279.0000 1.0000
56.3900 281.0000 1.0000
56.4000 308.0000 1.0000
56.4100 312.0000 1.0000
56.4200 287.0000 1.0000
56.4300 262.0000 1.0000
56.4400 309.0000 1.0000
56.4500 310.0000 1.0000
56.4600 299.0000 1.0000
56.4700 277.0000 1.0000
56.4800 271.0000 1.0000
56.4900 262.0000 1.0000
56.5000 307.0000 1.0000
56.5100 301.0000 1.0000
56.5200 281.0000 1.0000
56.5300 280.0000 1.0000
56.5400 268.0000 1.0000
56.5500 294.0000 1.0000
56.5600 307.0000 1.0000
56.5700 296.0000 1.0000
56.5800 269.0000 1.0000
56.5900 297.0000 1.0000
56.6000 294.0000 1.0000
56.6100 275.0000 1.0000
56.6200 289.0000 1.0000
56.6300 272.0000 1.0000
56.6400 264.0000 1.0000
56.6500 282.0000 1.0000
56.6600 300.0000 1.0000
56.6700 291.0000 1.0000
56.6800 277.0000 1.0000
56.6900 300.0000 1.0000
56.7000 291.0000 1.0000
56.7100 284.0000 1.0000
56.7200 274.0000 1.0000
56.7300 290.0000 1.0000
56.7400 302.0000 1.0000
56.7500 272.0000 1.0000
56.7600 281.0000 1.0000
56.7700 306.0000 1.0000
56.7800 287.0000 1.0000
56.7900 303.0000 1.0000
56.8000 274.0000 1.0000
56.8100 268.0000 1.0000
56.8200 283.0000 1.0000
56.8300 267.0000 1.0000
56.8400 283.0000 1.0000
56.8500 283.0000 1.0000
56.8600 286.0000 1.0000
56.8700 263.0000 1.0000
56.8800 308.0000 1.0000
56.8900 290.0000 1.0000
56.9000 311.0000 1.0000
56.9100 271.0000 1.0000
56.9200 274.0000 1.0000
56.9300 293.0000 1.0000
56.9400 279.0000 1.0000
56.9500 267.0000 1.0000
56.9600 278.0000 1.0000
56.9700 257.0000 1.0000
56.9800 273.0000 1.0000
56.9900 287.0000 1.0000
57.0000 307.0000 1.0000
57.0100 288.0000 1.0000
57.0200 281.0000 1.0000
57.0300 276.0000 1.0000
57.0400 281.0000 1.0000
57.0500 264.0000 1.0000
57.0600 292.0000 1.0000
57.0700 264.0000 1.0000
57.0800 344.0000 1.0000
57.0900 310.0000 1.0000
57.1000 294.0000 1.0000
57.1100 304.0000 1.0000
57.1200 285.0000 1.0000
57.1300 293.0000 1.0000
57.1400 285.0000 1.0000
57.1500 280.0000 1.0000
57.1600 298.0000 1.0000
57.1700 290.0000 1.0000
57.1800 300.0000 1.0000
57.1900 287.0000 1.0000
57.2000 293.0000 1.0000
57.2100 294.0000 1.0000
57.2200 272.0000 1.0000
57.2300 276.0000 1.0000
57.2400 292.0000 1.0000
57.2500 272.0000 1.0000
57.2600 268.0000 1.0000
57.2700 249.0000 1.0000
57.2800 284.0000 1.0000
57.2900 277.0000 1.0000
57.3000 297.0000 1.0000
57.3100 303.0000 1.0000
57.3200 274.0000 1.0000
57.3300 274.0000 1.0000
57.3400 284.0000 1.0000
57.3500 290.0000 1.0000
57.3600 278.0000 1.0000
57.3700 318.0000 1.0000
57.3800 305.0000 1.0000
57.3900 287.0000 1.0000
57.4000 293.0000 1.0000
57.4100 274.0000 1.0000
57.4200 292.0000 1.0000
57.4300 310.0000 1.0000
57.4400 302.0000 1.0000
57.4500 320.0000 1.0000
57.4600 304.0000 1.0000
57.4700 283.0000 1.0000
57.4800 303.0000 1.0000
57.4900 301.0000 1.0000
57.5000 293.0000 1.0000
57.5100 298.0000 1.0000
57.5200 293.0000 1.0000
57.5300 294.0000 1.0000
57.5400 302.0000 1.0000
57.5500 292.0000 1.0000
57.5600 300.0000 1.0000
57.5700 299.0000 1.0000
57.5800 311.0000 1.0000
57.5900 323.0000 1.0000
57.6000 288.0000 1.0000
57.6100 277.0000 1.0000
57.6200 290.0000 1.0000
57.6300 292.0000 1.0000
57.6400 313.0000 1.0000
57.6500 287.0000 1.0000
57.6600 283.0000 1.0000
57.6700 276.0000 1.0000
57.6800 273.0000 1.0000
57.6900 285.0000 1.0000
57.7000 273.0000 1.0000
57.7100 279.0000 1.0000
57.7200 248.0000 1.0000
57.7300 269.0000 1.0000
57.7400 292.0000 1.0000
57.7500 285.0000 1.0000
57.7600 314.0000 1.0000
57.7700 286.0000 1.0000
57.7800 270.0000 1.0000
57.7900 257.0000 1.0000
57.8000 278.0000 1.0000
57.8100 287.0000 1.0000
57.8200 288.0000 1.0000
57.8300 268.0000 1.0000
57.8400 296.0000 1.0000
57.8500 311.0000 1.0000
57.8600 293.0000 1.0000
57.8700 288.0000 1.0000
57.8800 293.0000 1.0000
57.8900 290.0000 1.0000
57.9000 282.0000 1.0000
57.9100 275.0000 1.0000
57.9200 297.0000 1.0000
57.9300 264.0000 1.0000
57.9400 259.0000 1.0000
57.9500 306.0000 1.0000
57.9600 288.0000 1.0000
57.9700 292.0000 1.0000
57.9800 264.0000 1.0000
57.9900 258.0000 1.0000
58.0000 293.0000 1.0000
58.0100 292.0000 1.0000
58.0200 281.0000 1.0000
58.0300 278.0000 1.0000
58.0400 287.0000 1.0000
58.0500 296.0000 1.0000
58.0600 304.0000 1.0000
58.0700 326.0000 1.0000
58.0800 280.0000 1.0000
58.0900 262.0000 1.0000
58.1000 263.0000 1.0000
58.1100 248.0000 1.0000
58.1200 296.0000 1.0000
58.1300 270.0000 1.0000
58.1400 286.0000 1.0000
58.1500 288.0000 1.0000
58.1600 304.0000 1.0000
58.1700 240.0000 1.0000
58.1800 277.0000 1.0000
58.1900 275.0000 1.0000
58.2000 296.0000 1.0000
58.2100 291.0000 1.0000
58.2200 285.0000 1.0000
58.2300 299.0000 1.0000
58.2400 287.0000 1.0000
58.2500 291.0000 1.0000
58.2600 265.0000 1.0000
58.2700 282.0000 1.0000
58.2800 285.0000 1.0000
58.2900 285.0000 1.0000
58.3000 255.0000 1.0000
58.3100 306.0000 1.0000
58.3200 279.0000 1.0000
58.3300 288.0000 1.0000
58.3400 251.0000 1.0000
58.3500 287.0000 1.0000
58.3600 275.0000 1.0000
58.3700 299.0000 1.0000
58.3800 283.0000 1.0000
58.3900 305.0000 1.0000
58.4000 306.0000 1.0000
58.4100 313.0000 1.0000
58.4200 290.0000 1.0000
58.4300 284.0000 1.0000
58.4400 262.0000 1.0000
58.4500 269.0000 1.0000
58.4600 298.0000 1.0000
58.4700 299.0000 1.0000
58.4800 291.0000 1.0000
58.4900 296.0000 1.0000
58.5000 289.0000 1.0000
58.5100 273.0000 1.0000
58.5200 280.0000 1.0000
58.5300 281.0000 1.0000
58.5400 292.0000 1.0000
58.5500 257.0000 1.0000
58.5600 292.0000 1.0000
58.5700 292.0000 1.0000
58.5800 272.0000 1.0000
58.5900 283.0000 1.0000
58.6000 297.0000 1.0000
58.6100 303.0000 1.0000
58.6200 297.0000 1.0000
58.6300 275.0000 1.0000
58.6400 278.0000 1.0000
58.6500 278.0000 1.0000
58.6600 285.0000 1.0000
58.6700 294.0000 1.0000
58.6800 322.0000 1.0000
58.6900 273.0000 1.0000
58.7000 277.0000 1.0000
58.7100 302.0000 1.0000
58.7200 295.0000 1.0000
58.7300 291.0000 1.0000
58.7400 289.0000 1.0000
58.7500 282.0000 1.0000
58.7600 284.0000 1.0000
58.7700 282.0000 1.0000
58.7800 279.0000 1.0000
58.7900 291.0000 1.0000
58.8000 265.0000 1.0000
58.8100 274.0000 1.0000
58.8200 293.0000 1.0000
58.8300 287.0000 1.0000
58.8400 287.0000 1.0000
58.8500 276.0000 1.0000
58.8600 306.0000 1.0000
58.8700 276.0000 1.0000
58.8800 279.0000 1.0000
58.8900 300.0000 1.0000
58.9000 274.0000 1.0000
58.9100 265.0000 1.0000
58.9200 311.0000 1.0000
58.9300 272.0000 1.0000
58.9400 294.0000 1.0000
58.9500 283.0000 1.0000
58.9600 261.0000 1.0000
58.9700 285.0000 1.0000
58.9800 297.0000 1.0000
58.9900 327.0000 1.0000
59.0000 305.0000 1.0000
59.0100 290.0000 1.0000
59.0200 323.0000 1.0000
59.0300 289.0000 1.0000
59.0400 287.0000 1.0000
59.0500 287.0000 1.0000
59.0600 271.0000 1.0000
59.0700 281.0000 1.0000
59.0800 266.0000 1.0000
59.0900 269.0000 1.0000
59.1000 286.0000 1.0000
59.1100 260.0000 1.0000
59.1200 288.0000 1.0000
59.1300 268.0000 1.0000
59.1400 265.0000 1.0000
59.1500 247.0000 1.0000
59.1600 270.0000 1.0000
59.1700 314.0000 1.0000
59.1800 272.0000 1.0000
59.1900 289.0000 1.0000
59.2000 290.0000 1.0000
59.2100 263.0000 1.0000
59.2200 280.0000 1.0000
59.2300 264.0000 1.0000
59.2400 276.0000 1.0000
59.2500 271.0000 1.0000
59.2600 291.0000 1.0000
59.2700 289.0000 1.0000
59.2800 263.0000 1.0000
59.2900 260.0000 1.0000
59.3000 297.0000 1.0000
59.3100 267.0000 1.0000
59.3200 285.0000 1.0000
59.3300 281.0000 1.0000
59.3400 285.0000 1.0000
59.3500 270.0000 1.0000
59.3600 311.0000 1.0000
59.3700 313.0000 1.0000
59.3800 304.0000 1.0000
59.3900 287.0000 1.0000
59.4000 275.0000 1.0000
59.4100 262.0000 1.0000
59.4200 287.0000 1.0000
59.4300 259.0000 1.0000
59.4400 287.0000 1.0000
59.4500 275.0000 1.0000
59.4600 318.0000 1.0000
59.4700 296.0000 1.0000
59.4800 252.0000 1.0000
59.4900 266.0000 1.0000
59.5000 243.0000 1.0000
59.5100 270.0000 1.0000
59.5200 271.0000 1.0000
59.5300 278.0000 1.0000
59.5400 299.0000 1.0000
59.5500 278.0000 1.0000
59.5600 270.0000 1.0000
59.5700 257.0000 1.0000
59.5800 273.0000 1.0000
59.5900 290.0000 1.0000
59.6000 320.0000 1.0000
59.6100 277.0000 1.0000
59.6200 294.0000 1.0000
59.6300 276.0000 1.0000
59.6400 289.0000 1.0000
59.6500 274.0000 1.0000
59.6600 245.0000 1.0000
59.6700 281.0000 1.0000
59.6800 288.0000 1.0000
59.6900 283.0000 1.0000
59.7000 277.0000 1.0000
59.7100 268.0000 1.0000
59.7200 266.0000 1.0000
59.7300 268.0000 1.0000
59.7400 288.0000 1.0000
59.7500 276.0000 1.0000
59.7600 276.0000 1.0000
59.7700 292.0000 1.0000
59.7800 278.0000 1.0000
59.7900 265.0000 1.0000
59.8000 274.0000 1.0000
59.8100 268.0000 1.0000
59.8200 279.0000 1.0000
59.8300 303.0000 1.0000
59.8400 288.0000 1.0000
59.8500 283.0000 1.0000
59.8600 271.0000 1.0000
59.8700 287.0000 1.0000
59.8800 303.0000 1.0000
59.8900 276.0000 1.0000
59.9000 284.0000 1.0000
59.9100 306.0000 1.0000
59.9200 262.0000 1.0000
59.9300 252.0000 1.0000
59.9400 247.0000 1.0000
59.9500 268.0000 1.0000
59.9600 274.0000 1.0000
59.9700 284.0000 1.0000
59.9800 258.0000 1.0000
59.9900 278.0000 1.0000
60.0000 286.0000 1.0000
60.0100 274.0000 1.0000
60.0200 265.0000 1.0000
60.0300 272.0000 1.0000
60.0400 286.0000 1.0000
60.0500 271.0000 1.0000
60.0600 258.0000 1.0000
60.0700 297.0000 1.0000
60.0800 261.0000 1.0000
60.0900 264.0000 1.0000
60.1000 260.0000 1.0000
60.1100 280.0000 1.0000
60.1200 301.0000 1.0000
60.1300 257.0000 1.0000
60.1400 264.0000 1.0000
60.1500 258.0000 1.0000
60.1600 283.0000 1.0000
60.1700 260.0000 1.0000
60.1800 290.0000 1.0000
60.1900 287.0000 1.0000
60.2000 289.0000 1.0000
60.2100 287.0000 1.0000
60.2200 248.0000 1.0000
60.2300 272.0000 1.0000
60.2400 274.0000 1.0000
60.2500 270.0000 1.0000
60.2600 263.0000 1.0000
60.2700 280.0000 1.0000
60.2800 268.0000 1.0000
60.2900 268.0000 1.0000
60.3000 278.0000 1.0000
60.3100 272.0000 1.0000
60.3200 262.0000 1.0000
60.3300 280.0000 1.0000
60.3400 269.0000 1.0000
60.3500 295.0000 1.0000
60.3600 276.0000 1.0000
60.3700 276.0000 1.0000
60.3800 265.0000 1.0000
60.3900 271.0000 1.0000
60.4000 292.0000 1.0000
60.4100 271.0000 1.0000
60.4200 269.0000 1.0000
60.4300 279.0000 1.0000
60.4400 279.0000 1.0000
60.4500 288.0000 1.0000
60.4600 271.0000 1.0000
60.4700 294.0000 1.0000
60.4800 272.0000 1.0000
60.4900 278.0000 1.0000
60.5000 315.0000 1.0000
60.5100 278.0000 1.0000
60.5200 291.0000 1.0000
60.5300 289.0000 1.0000
60.5400 309.0000 1.0000
60.5500 296.0000 1.0000
60.5600 293.0000 1.0000
60.5700 281.0000 1.0000
60.5800 302.0000 1.0000
60.5900 299.0000 1.0000
60.6000 275.0000 1.0000
60.6100 301.0000 1.0000
60.6200 259.0000 1.0000
60.6300 283.0000 1.0000
60.6400 260.0000 1.0000
60.6500 286.0000 1.0000
60.6600 283.0000 1.0000
60.6700 292.0000 1.0000
60.6800 281.0000 1.0000
60.6900 299.0000 1.0000
60.7000 304.0000 1.0000
60.7100 277.0000 1.0000
60.7200 295.0000 1.0000
60.7300 283.0000 1.0000
60.7400 258.0000 1.0000
60.7500 284.0000 1.0000
60.7600 268.0000 1.0000
60.7700 307.0000 1.0000
60.7800 275.0000 1.0000
60.7900 287.0000 1.0000
60.8000 275.0000 1.0000
60.8100 287.0000 1.0000
60.8200 272.0000 1.0000
60.8300 289.0000 1.0000
60.8400 287.0000 1.0000
60.8500 280.0000 1.0000
60.8600 273.0000 1.0000
60.8700 273.0000 1.0000
60.8800 283.0000 1.0000
60.8900 289.0000 1.0000
60.9000 270.0000 1.0000
60.9100 287.0000 1.0000
60.9200 274.0000 1.0000
60.9300 268.0000 1.0000
60.9400 278.0000 1.0000
60.9500 282.0000 1.0000
60.9600 261.0000 1.0000
60.9700 284.0000 1.0000
60.9800 275.0000 1.0000
60.9900 275.0000 1.0000
61.0000 278.0000 1.0000
61.0100 283.0000 1.0000
61.0200 277.0000 1.0000
61.0300 299.0000 1.0000
61.0400 282.0000 1.0000
61.0500 278.0000 1.0000
61.0600 319.0000 1.0000
61.0700 298.0000 1.0000
61.0800 282.0000 1.0000
61.0900 293.0000 1.0000
61.1000 298.0000 1.0000
61.1100 315.0000 1.0000
61.1200 287.0000 1.0000
61.1300 303.0000 1.0000
61.1400 315.0000 1.0000
61.1500 292.0000 1.0000
61.1600 317.0000 1.0000
61.1700 313.0000 1.0000
61.1800 317.0000 1.0000
61.1900 307.0000 1.0000
61.2000 311.0000 1.0000
61.2100 343.0000 1.0000
61.2200 294.0000 1.0000
61.2300 311.0000 1.0000
61.2400 319.0000 1.0000
61.2500 336.0000 1.0000
61.2600 337.0000 1.0000
61.2700 370.0000 1.0000
61.2800 359.0000 1.0000
61.2900 319.0000 1.0000
61.3000 348.0000 1.0000
61.3100 346.0000 1.0000
61.3200 371.0000 1.0000
61.3300 391.0000 1.0000
61.3400 381.0000 1.0000
61.3500 383.0000 1.0000
61.3600 416.0000 1.0000
61.3700 459.0000 1.0000
61.3800 438.0000 1.0000
61.3900 423.0000 1.0000
61.4000 444.0000 1.0000
61.4100 480.0000 1.0000
61.4200 500.0000 1.0000
61.4300 479.0000 1.0000
61.4400 503.0000 1.0000
61.4500 508.0000 1.0000
61.4600 510.0000 1.0000
61.4700 534.0000 1.0000
61.4800 518.0000 1.0000
61.4900 542.0000 1.0000
61.5000 571.0000 1.0000
61.5100 580.0000 1.0000
61.5200 571.0000 1.0000
61.5300 572.0000 1.0000
61.5400 560.0000 1.0000
61.5500 592.0000 1.0000
61.5600 560.0000 1.0000
61.5700 582.0000 1.0000
61.5800 593.0000 1.0000
61.5900 571.0000 1.0000
61.6000 606.0000 1.0000
61.6100 572.0000 1.0000
61.6200 569.0000 1.0000
61.6300 575.0000 1.0000
61.6400 557.0000 1.0000
61.6500 566.0000 1.0000
61.6600 546.0000 1.0000
61.6700 567.0000 1.0000
61.6800 532.0000 1.0000
61.6900 501.0000 1.0000
61.7000 523.0000 1.0000
61.7100 510.0000 1.0000
61.7200 536.0000 1.0000
61.7300 510.0000 1.0000
61.7400 500.0000 1.0000
61.7500 502.0000 1.0000
61.7600 461.0000 1.0000
61.7700 476.0000 1.0000
61.7800 437.0000 1.0000
61.7900 437.0000 1.0000
61.8000 415.0000 1.0000
61.8100 423.0000 1.0000
61.8200 411.0000 1.0000
61.8300 433.0000 1.0000
61.8400 427.0000 1.0000
61.8500 420.0000 1.0000
61.8600 400.0000 1.0000
61.8700 375.0000 1.0000
61.8800 381.0000 1.0000
61.8900 385.0000 1.0000
61.9000 367.0000 1.0000
61.9100 385.0000 1.0000
61.9200 344.0000 1.0000
61.9300 336.0000 1.0000
61.9400 314.0000 1.0000
61.9500 364.0000 1.0000
61.9600 318.0000 1.0000
61.9700 353.0000 1.0000
61.9800 345.0000 1.0000
61.9900 323.0000 1.0000
62.0000 321.0000 1.0000
62.0100 353.0000 1.0000
62.0200 308.0000 1.0000
62.0300 319.0000 1.0000
62.0400 308.0000 1.0000
62.0500 350.0000 1.0000
62.0600 328.0000 1.0000
62.0700 302.0000 1.0000
62.0800 280.0000 1.0000
62.0900 296.0000 1.0000
62.1000 295.0000 1.0000
62.1100 317.0000 1.0000
62.1200 288.0000 1.0000
62.1300 330.0000 1.0000
62.1400 301.0000 1.0000
62.1500 311.0000 1.0000
62.1600 304.0000 1.0000
62.1700 284.0000 1.0000
62.1800 285.0000 1.0000
62.1900 304.0000 1.0000
62.2000 287.0000 1.0000
62.2100 307.0000 1.0000
62.2200 287.0000 1.0000
62.2300 297.0000 1.0000
62.2400 307.0000 1.0000
62.2500 318.0000 1.0000
62.2600 338.0000 1.0000
62.2700 308.0000 1.0000
62.2800 296.0000 1.0000
62.2900 312.0000 1.0000
62.3000 292.0000 1.0000
62.3100 299.0000 1.0000
62.3200 324.0000 1.0000
62.3300 333.0000 1.0000
62.3400 321.0000 1.0000
62.3500 310.0000 1.0000
62.3600 308.0000 1.0000
62.3700 334.0000 1.0000
62.3800 295.0000 1.0000
62.3900 352.0000 1.0000
62.4000 313.0000 1.0000
62.4100 324.0000 1.0000
62.4200 326.0000 1.0000
62.4300 281.0000 1.0000
62.4400 328.0000 1.0000
62.4500 326.0000 1.0000
62.4600 285.0000 1.0000
62.4700 271.0000 1.0000
62.4800 302.0000 1.0000
62.4900 267.0000 1.0000
62.5000 301.0000 1.0000
62.5100 286.0000 1.0000
62.5200 298.0000 1.0000
62.5300 307.0000 1.0000
62.5400 298.0000 1.0000
62.5500 297.0000 1.0000
62.5600 288.0000 1.0000
62.5700 283.0000 1.0000
62.5800 296.0000 1.0000
62.5900 291.0000 1.0000
62.6000 297.0000 1.0000
62.6100 298.0000 1.0000
62.6200 291.0000 1.0000
62.6300 275.0000 1.0000
62.6400 278.0000 1.0000
62.6500 284.0000 1.0000
62.6600 275.0000 1.0000
62.6700 293.0000 1.0000
62.6800 297.0000 1.0000
62.6900 295.0000 1.0000
62.7000 292.0000 1.0000
62.7100 265.0000 1.0000
62.7200 275.0000 1.0000
62.7300 288.0000 1.0000
62.7400 273.0000 1.0000
62.7500 290.0000 1.0000
62.7600 286.0000 1.0000
62.7700 304.0000 1.0000
62.7800 284.0000 1.0000
62.7900 260.0000 1.0000
62.8000 291.0000 1.0000
62.8100 286.0000 1.0000
62.8200 286.0000 1.0000
62.8300 297.0000 1.0000
62.8400 297.0000 1.0000
62.8500 278.0000 1.0000
62.8600 290.0000 1.0000
62.8700 246.0000 1.0000
62.8800 285.0000 1.0000
62.8900 277.0000 1.0000
62.9000 260.0000 1.0000
62.9100 270.0000 1.0000
62.9200 269.0000 1.0000
62.9300 278.0000 1.0000
62.9400 281.0000 1.0000
62.9500 270.0000 1.0000
62.9600 275.0000 1.0000
62.9700 285.0000 1.0000
62.9800 287.0000 1.0000
62.9900 270.0000 1.0000
63.0000 293.0000 1.0000
63.0100 275.0000 1.0000
63.0200 253.0000 1.0000
63.0300 254.0000 1.0000
63.0400 284.0000 1.0000
63.0500 277.0000 1.0000
63.0600 294.0000 1.0000
63.0700 282.0000 1.0000
63.0800 283.0000 1.0000
63.0900 290.0000 1.0000
63.1000 258.0000 1.0000
63.1100 262.0000 1.0000
63.1200 259.0000 1.0000
63.1300 267.0000 1.0000
63.1400 274.0000 1.0000
63.1500 267.0000 1.0000
63.1600 271.0000 1.0000
63.1700 271.0000 1.0000
63.1800 283.0000 1.0000
63.1900 260.0000 1.0000
63.2000 254.0000 1.0000
63.2100 280.0000 1.0000
63.2200 266.0000 1.0000
63.2300 283.0000 1.0000
63.2400 288.0000 1.0000
63.2500 265.0000 1.0000
63.2600 274.0000 1.0000
63.2700 264.0000 1.0000
63.2800 291.0000 1.0000
63.2900 292.0000 1.0000
63.3000 305.0000 1.0000
63.3100 266.0000 1.0000
63.3200 287.0000 1.0000
63.3300 270.0000 1.0000
63.3400 259.0000 1.0000
63.3500 269.0000 1.0000
63.3600 278.0000 1.0000
63.3700 290.0000 1.0000
63.3800 267.0000 1.0000
63.3900 267.0000 1.0000
63.4000 264.0000 1.0000
63.4100 277.0000 1.0000
63.4200 287.0000 1.0000
63.4300 279.0000 1.0000
63.4400 252.0000 1.0000
63.4500 273.0000 1.0000
63.4600 272.0000 1.0000
63.4700 259.0000 1.0000
63.4800 274.0000 1.0000
63.4900 272.0000 1.0000
63.5000 259.0000 1.0000
63.5100 284.0000 1.0000
63.5200 279.0000 1.0000
63.5300 277.0000 1.0000
63.5400 297.0000 1.0000
63.5500 272.0000 1.0000
63.5600 274.0000 1.0000
63.5700 273.0000 1.0000
63.5800 288.0000 1.0000
63.5900 299.0000 1.0000
63.6000 280.0000 1.0000
63.6100 273.0000 1.0000
63.6200 251.0000 1.0000
63.6300 275.0000 1.0000
63.6400 284.0000 1.0000
63.6500 271.0000 1.0000
63.6600 286.0000 1.0000
63.6700 314.0000 1.0000
63.6800 304.0000 1.0000
63.6900 319.0000 1.0000
63.7000 272.0000 1.0000
63.7100 286.0000 1.0000
63.7200 270.0000 1.0000
63.7300 288.0000 1.0000
63.7400 290.0000 1.0000
63.7500 288.0000 1.0000
63.7600 297.0000 1.0000
63.7700 307.0000 1.0000
63.7800 311.0000 1.0000
63.7900 290.0000 1.0000
63.8000 312.0000 1.0000
63.8100 291.0000 1.0000
63.8200 299.0000 1.0000
63.8300 307.0000 1.0000
63.8400 329.0000 1.0000
63.8500 319.0000 1.0000
63.8600 352.0000 1.0000
63.8700 348.0000 1.0000
63.8800 365.0000 1.0000
63.8900 387.0000 1.0000
63.9000 439.0000 1.0000
63.9100 414.0000 1.0000
63.9200 404.0000 1.0000
63.9300 428.0000 1.0000
63.9400 460.0000 1.0000
63.9500 439.0000 1.0000
63.9600 467.0000 1.0000
63.9700 447.0000 1.0000
63.9800 448.0000 1.0000
63.9900 379.0000 1.0000
64.0000 410.0000 1.0000
64.0100 425.0000 1.0000
64.0200 393.0000 1.0000
64.0300 353.0000 1.0000
64.0400 378.0000 1.0000
64.0500 384.0000 1.0000
64.0600 370.0000 1.0000
64.0700 368.0000 1.0000
64.0800 398.0000 1.0000
64.0900 375.0000 1.0000
64.1000 374.0000 1.0000
64.1100 364.0000 1.0000
64.1200 381.0000 1.0000
64.1300 405.0000 1.0000
64.1400 390.0000 1.0000
64.1500 372.0000 1.0000
64.1600 379.0000 1.0000
64.1700 367.0000 1.0000
64.1800 345.0000 1.0000
64.1900 356.0000 1.0000
64.2000 327.0000 1.0000
64.2100 329.0000 1.0000
64.2200 318.0000 1.0000
64.2300 313.0000 1.0000
64.2400 310.0000 1.0000
64.2500 301.0000 1.0000
64.2600 298.0000 1.0000
64.2700 317.0000 1.0000
64.2800 294.0000 1.0000
64.2900 279.0000 1.0000
64.3000 293.0000 1.0000
64.3100 303.0000 1.0000
64.3200 286.0000 1.0000
64.3300 271.0000 1.0000
64.3400 294.0000 1.0000
64.3500 278.0000 1.0000
64.3600 330.0000 1.0000
64.3700 296.0000 1.0000
64.3800 259.0000 1.0000
64.3900 272.0000 1.0000
64.4000 283.0000 1.0000
64.4100 282.0000 1.0000
64.4200 274.0000 1.0000
64.4300 284.0000 1.0000
64.4400 287.0000 1.0000
64.4500 269.0000 1.0000
64.4600 268.0000 1.0000
64.4700 274.0000 1.0000
64.4800 280.0000 1.0000
64.4900 273.0000 1.0000
64.5000 250.0000 1.0000
64.5100 271.0000 1.0000
64.5200 279.0000 1.0000
64.5300 299.0000 1.0000
64.5400 305.0000 1.0000
64.5500 320.0000 1.0000
64.5600 292.0000 1.0000
64.5700 283.0000 1.0000
64.5800 283.0000 1.0000
64.5900 287.0000 1.0000
64.6000 278.0000 1.0000
64.6100 297.0000 1.0000
64.6200 274.0000 1.0000
64.6300 284.0000 1.0000
64.6400 315.0000 1.0000
64.6500 264.0000 1.0000
64.6600 291.0000 1.0000
64.6700 275.0000 1.0000
64.6800 276.0000 1.0000
64.6900 272.0000 1.0000
64.7000 275.0000 1.0000
64.7100 286.0000 1.0000
64.7200 272.0000 1.0000
64.7300 288.0000 1.0000
64.7400 298.0000 1.0000
64.7500 288.0000 1.0000
64.7600 300.0000 1.0000
64.7700 289.0000 1.0000
64.7800 269.0000 1.0000
64.7900 267.0000 1.0000
64.8000 295.0000 1.0000
64.8100 291.0000 1.0000
64.8200 277.0000 1.0000
64.8300 291.0000 1.0000
64.8400 287.0000 1.0000
64.8500 298.0000 1.0000
64.8600 252.0000 1.0000
64.8700 281.0000 1.0000
64.8800 308.0000 1.0000
64.8900 287.0000 1.0000
64.9000 273.0000 1.0000
64.9100 292.0000 1.0000
64.9200 277.0000 1.0000
64.9300 301.0000 1.0000
64.9400 306.0000 1.0000
64.9500 293.0000 1.0000
64.9600 278.0000 1.0000
64.9700 295.0000 1.0000
64.9800 320.0000 1.0000
64.9900 314.0000 1.0000
65.0000 290.0000 1.0000
65.0100 277.0000 1.0000
65.0200 308.0000 1.0000
65.0300 285.0000 1.0000
65.0400 316.0000 1.0000
65.0500 312.0000 1.0000
65.0600 283.0000 1.0000
65.0700 298.0000 1.0000
65.0800 283.0000 1.0000
65.0900 298.0000 1.0000
65.1000 319.0000 1.0000
65.1100 287.0000 1.0000
65.1200 294.0000 1.0000
65.1300 318.0000 1.0000
65.1400 328.0000 1.0000
65.1500 326.0000 1.0000
65.1600 324.0000 1.0000
65.1700 332.0000 1.0000
65.1800 338.0000 1.0000
65.1900 340.0000 1.0000
65.2000 347.0000 1.0000
65.2100 380.0000 1.0000
65.2200 351.0000 1.0000
65.2300 357.0000 1.0000
65.2400 377.0000 1.0000
65.2500 344.0000 1.0000
65.2600 379.0000 1.0000
65.2700 394.0000 1.0000
65.2800 394.0000 1.0000
65.2900 409.0000 1.0000
65.3000 425.0000 1.0000
65.3100 412.0000 1.0000
65.3200 456.0000 1.0000
65.3300 473.0000 1.0000
65.3400 471.0000 1.0000
65.3500 491.0000 1.0000
65.3600 525.0000 1.0000
65.3700 561.0000 1.0000
65.3800 528.0000 1.0000
65.3900 608.0000 1.0000
65.4000 653.0000 1.0000
65.4100 633.0000 1.0000
65.4200 682.0000 1.0000
65.4300 668.0000 1.0000
65.4400 699.0000 1.0000
65.4500 739.0000 1.0000
65.4600 800.0000 1.0000
65.4700 803.0000 1.0000
65.4800 858.0000 1.0000
65.4900 862.0000 1.0000
65.5000 964.0000 1.0000
65.5100 948.0000 1.0000
65.5200 942.0000 1.0000
65.5300 1008.0000 1.0000
65.5400 977.0000 1.0000
65.5500 1014.0000 1.0000
65.5600 1024.0000 1.0000
65.5700 1009.0000 1.0000
65.5800 995.0000 1.0000
65.5900 986.0000 1.0000
65.6000 985.0000 1.0000
65.6100 943.0000 1.0000
65.6200 965.0000 1.0000
65.6300 882.0000 1.0000
65.6400 935.0000 1.0000
65.6500 902.0000 1.0000
65.6600 859.0000 1.0000
65.6700 852.0000 1.0000
65.6800 829.0000 1.0000
65.6900 838.0000 1.0000
65.7000 831.0000 1.0000
65.7100 812.0000 1.0000
65.7200 787.0000 1.0000
65.7300 803.0000 1.0000
65.7400 775.0000 1.0000
65.7500 741.0000 1.0000
65.7600 749.0000 1.0000
65.7700 731.0000 1.0000
65.7800 700.0000 1.0000
65.7900 667.0000 1.0000
65.8000 622.0000 1.0000
65.8100 622.0000 1.0000
65.8200 612.0000 1.0000
65.8300 540.0000 1.0000
65.8400 535.0000 1.0000
65.8500 477.0000 1.0000
65.8600 475.0000 1.0000
65.8700 510.0000 1.0000
65.8800 494.0000 1.0000
65.8900 473.0000 1.0000
65.9000 445.0000 1.0000
65.9100 429.0000 1.0000
65.9200 403.0000 1.0000
65.9300 445.0000 1.0000
65.9400 386.0000 1.0000
65.9500 400.0000 1.0000
65.9600 341.0000 1.0000
65.9700 341.0000 1.0000
65.9800 365.0000 1.0000
65.9900 370.0000 1.0000
66.0000 348.0000 1.0000
66.0100 332.0000 1.0000
66.0200 334.0000 1.0000
66.0300 342.0000 1.0000
66.0400 371.0000 1.0000
66.0500 336.0000 1.0000
66.0600 329.0000 1.0000
66.0700 325.0000 1.0000
66.0800 309.0000 1.0000
66.0900 317.0000 1.0000
66.1000 317.0000 1.0000
66.1100 321.0000 1.0000
66.1200 325.0000 1.0000
66.1300 290.0000 1.0000
66.1400 299.0000 1.0000
66.1500 316.0000 1.0000
66.1600 312.0000 1.0000
66.1700 310.0000 1.0000
66.1800 298.0000 1.0000
66.1900 299.0000 1.0000
66.2000 302.0000 1.0000
66.2100 289.0000 1.0000
66.2200 270.0000 1.0000
66.2300 275.0000 1.0000
66.2400 277.0000 1.0000
66.2500 275.0000 1.0000
66.2600 276.0000 1.0000
66.2700 265.0000 1.0000
66.2800 281.0000 1.0000
66.2900 270.0000 1.0000
66.3000 252.0000 1.0000
66.3100 277.0000 1.0000
66.3200 273.0000 1.0000
66.3300 256.0000 1.0000
66.3400 277.0000 1.0000
66.3500 255.0000 1.0000
66.3600 260.0000 1.0000
66.3700 257.0000 1.0000
66.3800 253.0000 1.0000
66.3900 258.0000 1.0000
66.4000 265.0000 1.0000
66.4100 254.0000 1.0000
66.4200 273.0000 1.0000
66.4300 271.0000 1.0000
66.4400 268.0000 1.0000
66.4500 262.0000 1.0000
66.4600 229.0000 1.0000
66.4700 275.0000 1.0000
66.4800 245.0000 1.0000
66.4900 268.0000 1.0000
66.5000 287.0000 1.0000
66.5100 248.0000 1.0000
66.5200 261.0000 1.0000
66.5300 247.0000 1.0000
66.5400 271.0000 1.0000
66.5500 265.0000 1.0000
66.5600 271.0000 1.0000
66.5700 250.0000 1.0000
66.5800 270.0000 1.0000
66.5900 267.0000 1.0000
66.6000 238.0000 1.0000
66.6100 279.0000 1.0000
66.6200 251.0000 1.0000
66.6300 235.0000 1.0000
66.6400 237.0000 1.0000
66.6500 250.0000 1.0000
66.6600 267.0000 1.0000
66.6700 262.0000 1.0000
66.6800 273.0000 1.0000
66.6900 275.0000 1.0000
66.7000 267.0000 1.0000
66.7100 241.0000 1.0000
66.7200 280.0000 1.0000
66.7300 257.0000 1.0000
66.7400 275.0000 1.0000
66.7500 255.0000 1.0000
66.7600 255.0000 1.0000
66.7700 249.0000 1.0000
66.7800 247.0000 1.0000
66.7900 268.0000 1.0000
66.8000 268.0000 1.0000
66.8100 246.0000 1.0000
66.8200 273.0000 1.0000
66.8300 264.0000 1.0000
66.8400 271.0000 1.0000
66.8500 256.0000 1.0000
66.8600 263.0000 1.0000
66.8700 258.0000 1.0000
66.8800 247.0000 1.0000
66.8900 268.0000 1.0000
66.9000 250.0000 1.0000
66.9100 252.0000 1.0000
66.9200 243.0000 1.0000
66.9300 239.0000 1.0000
66.9400 283.0000 1.0000
66.9500 270.0000 1.0000
66.9600 270.0000 1.0000
66.9700 257.0000 1.0000
66.9800 254.0000 1.0000
66.9900 255.0000 1.0000
67.0000 265.0000 1.0000
67.0100 263.0000 1.0000
67.0200 260.0000 1.0000
67.0300 253.0000 1.0000
67.0400 252.0000 1.0000
67.0500 243.0000 1.0000
67.0600 266.0000 1.0000
67.0700 260.0000 1.0000
67.0800 274.0000 1.0000
67.0900 251.0000 1.0000
67.1000 241.0000 1.0000
67.1100 264.0000 1.0000
67.1200 252.0000 1.0000
67.1300 252.0000 1.0000
67.1400 211.0000 1.0000
67.1500 254.0000 1.0000
67.1600 250.0000 1.0000
67.1700 245.0000 1.0000
67.1800 231.0000 1.0000
67.1900 242.0000 1.0000
67.2000 246.0000 1.0000
67.2100 262.0000 1.0000
67.2200 241.0000 1.0000
67.2300 211.0000 1.0000
67.2400 241.0000 1.0000
67.2500 243.0000 1.0000
67.2600 239.0000 1.0000
67.2700 256.0000 1.0000
67.2800 234.0000 1.0000
67.2900 243.0000 1.0000
67.3000 229.0000 1.0000
67.3100 246.0000 1.0000
67.3200 241.0000 1.0000
67.3300 247.0000 1.0000
67.3400 235.0000 1.0000
67.3500 244.0000 1.0000
67.3600 240.0000 1.0000
67.3700 231.0000 1.0000
67.3800 241.0000 1.0000
67.3900 238.0000 1.0000
67.4000 248.0000 1.0000
67.4100 270.0000 1.0000
67.4200 254.0000 1.0000
67.4300 241.0000 1.0000
67.4400 241.0000 1.0000
67.4500 239.0000 1.0000
67.4600 252.0000 1.0000
67.4700 255.0000 1.0000
67.4800 239.0000 1.0000
67.4900 228.0000 1.0000
67.5000 227.0000 1.0000
67.5100 228.0000 1.0000
67.5200 240.0000 1.0000
67.5300 249.0000 1.0000
67.5400 242.0000 1.0000
67.5500 279.0000 1.0000
67.5600 231.0000 1.0000
67.5700 238.0000 1.0000
67.5800 241.0000 1.0000
67.5900 238.0000 1.0000
67.6000 235.0000 1.0000
67.6100 245.0000 1.0000
67.6200 229.0000 1.0000
67.6300 225.0000 1.0000
67.6400 239.0000 1.0000
67.6500 250.0000 1.0000
67.6600 227.0000 1.0000
67.6700 221.0000 1.0000
67.6800 223.0000 1.0000
67.6900 257.0000 1.0000
67.7000 222.0000 1.0000
67.7100 237.0000 1.0000
67.7200 253.0000 1.0000
67.7300 233.0000 1.0000
67.7400 263.0000 1.0000
67.7500 245.0000 1.0000
67.7600 220.0000 1.0000
67.7700 246.0000 1.0000
67.7800 240.0000 1.0000
67.7900 236.0000 1.0000
67.8000 234.0000 1.0000
67.8100 240.0000 1.0000
67.8200 253.0000 1.0000
67.8300 248.0000 1.0000
67.8400 245.0000 1.0000
67.8500 226.0000 1.0000
67.8600 270.0000 1.0000
67.8700 242.0000 1.0000
67.8800 234.0000 1.0000
67.8900 259.0000 1.0000
67.9000 248.0000 1.0000
67.9100 242.0000 1.0000
67.9200 251.0000 1.0000
67.9300 244.0000 1.0000
67.9400 259.0000 1.0000
67.9500 262.0000 1.0000
67.9600 226.0000 1.0000
67.9700 219.0000 1.0000
67.9800 240.0000 1.0000
67.9900 232.0000 1.0000
68.0000 225.0000 1.0000
68.0100 233.0000 1.0000
68.0200 245.0000 1.0000
68.0300 243.0000 1.0000
68.0400 238.0000 1.0000
68.0500 236.0000 1.0000
68.0600 244.0000 1.0000
68.0700 245.0000 1.0000
68.0800 234.0000 1.0000
68.0900 229.0000 1.0000
68.1000 229.0000 1.0000
68.1100 265.0000 1.0000
68.1200 239.0000 1.0000
68.1300 224.0000 1.0000
68.1400 228.0000 1.0000
68.1500 242.0000 1.0000
68.1600 239.0000 1.0000
68.1700 234.0000 1.0000
68.1800 240.0000 1.0000
68.1900 225.0000 1.0000
68.2000 237.0000 1.0000
68.2100 228.0000 1.0000
68.2200 261.0000 1.0000
68.2300 238.0000 1.0000
68.2400 237.0000 1.0000
68.2500 247.0000 1.0000
68.2600 243.0000 1.0000
68.2700 233.0000 1.0000
68.2800 238.0000 1.0000
68.2900 262.0000 1.0000
68.3000 268.0000 1.0000
68.3100 250.0000 1.0000
68.3200 234.0000 1.0000
68.3300 247.0000 1.0000
68.3400 259.0000 1.0000
68.3500 238.0000 1.0000
68.3600 230.0000 1.0000
68.3700 262.0000 1.0000
68.3800 248.0000 1.0000
68.3900 278.0000 1.0000
68.4000 255.0000 1.0000
68.4100 221.0000 1.0000
68.4200 226.0000 1.0000
68.4300 235.0000 1.0000
68.4400 216.0000 1.0000
68.4500 211.0000 1.0000
68.4600 244.0000 1.0000
68.4700 257.0000 1.0000
68.4800 214.0000 1.0000
68.4900 219.0000 1.0000
68.5000 208.0000 1.0000
68.5100 245.0000 1.0000
68.5200 242.0000 1.0000
68.5300 249.0000 1.0000
68.5400 223.0000 1.0000
68.5500 238.0000 1.0000
68.5600 267.0000 1.0000
68.5700 240.0000 1.0000
68.5800 230.0000 1.0000
68.5900 238.0000 1.0000
68.6000 250.0000 1.0000
68.6100 251.0000 1.0000
68.6200 252.0000 1.0000
68.6300 242.0000 1.0000
68.6400 274.0000 1.0000
68.6500 216.0000 1.0000
68.6600 249.0000 1.0000
68.6700 264.0000 1.0000
68.6800 237.0000 1.0000
68.6900 223.0000 1.0000
68.7000 222.0000 1.0000
68.7100 245.0000 1.0000
68.7200 247.0000 1.0000
68.7300 246.0000 1.0000
68.7400 251.0000 1.0000
68.7500 271.0000 1.0000
68.7600 231.0000 1.0000
68.7700 220.0000 1.0000
68.7800 231.0000 1.0000
68.7900 227.0000 1.0000
68.8000 247.0000 1.0000
68.8100 241.0000 1.0000
68.8200 236.0000 1.0000
68.8300 244.0000 1.0000
68.8400 223.0000 1.0000
68.8500 220.0000 1.0000
68.8600 236.0000 1.0000
68.8700 224.0000 1.0000
68.8800 236.0000 1.0000
68.8900 245.0000 1.0000
68.9000 257.0000 1.0000
68.9100 244.0000 1.0000
68.9200 263.0000 1.0000
68.9300 266.0000 1.0000
68.9400 269.0000 1.0000
68.9500 251.0000 1.0000
68.9600 265.0000 1.0000
68.9700 231.0000 1.0000
68.9800 248.0000 1.0000
68.9900 234.0000 1.0000
69.0000 227.0000 1.0000
69.0100 269.0000 1.0000
69.0200 253.0000 1.0000
69.0300 222.0000 1.0000
69.0400 208.0000 1.0000
69.0500 243.0000 1.0000
69.0600 242.0000 1.0000
69.0700 255.0000 1.0000
69.0800 230.0000 1.0000
69.0900 229.0000 1.0000
69.1000 227.0000 1.0000
69.1100 231.0000 1.0000
69.1200 251.0000 1.0000
69.1300 227.0000 1.0000
69.1400 248.0000 1.0000
69.1500 232.0000 1.0000
69.1600 241.0000 1.0000
69.1700 217.0000 1.0000
69.1800 252.0000 1.0000
69.1900 258.0000 1.0000
69.2000 250.0000 1.0000
69.2100 255.0000 1.0000
69.2200 237.0000 1.0000
69.2300 257.0000 1.0000
69.2400 239.0000 1.0000
69.2500 252.0000 1.0000
69.2600 233.0000 1.0000
69.2700 219.0000 1.0000
69.2800 243.0000 1.0000
69.2900 258.0000 1.0000
69.3000 237.0000 1.0000
69.3100 211.0000 1.0000
69.3200 244.0000 1.0000
69.3300 261.0000 1.0000
69.3400 250.0000 1.0000
69.3500 244.0000 1.0000
69.3600 220.0000 1.0000
69.3700 236.0000 1.0000
69.3800 222.0000 1.0000
69.3900 223.0000 1.0000
69.4000 246.0000 1.0000
69.4100 246.0000 1.0000
69.4200 254.0000 1.0000
69.4300 242.0000 1.0000
69.4400 239.0000 1.0000
69.4500 221.0000 1.0000
69.4600 259.0000 1.0000
69.4700 232.0000 1.0000
69.4800 219.0000 1.0000
69.4900 238.0000 1.0000
69.5000 211.0000 1.0000
69.5100 249.0000 1.0000
69.5200 242.0000 1.0000
69.5300 215.0000 1.0000
69.5400 216.0000 1.0000
69.5500 241.0000 1.0000
69.5600 222.0000 1.0000
69.5700 224.0000 1.0000
69.5800 224.0000 1.0000
69.5900 243.0000 1.0000
69.6000 227.0000 1.0000
69.6100 246.0000 1.0000
69.6200 234.0000 1.0000
69.6300 260.0000 1.0000
69.6400 261.0000 1.0000
69.6500 238.0000 1.0000
69.6600 244.0000 1.0000
69.6700 244.0000 1.0000
69.6800 228.0000 1.0000
69.6900 227.0000 1.0000
69.7000 238.0000 1.0000
69.7100 224.0000 1.0000
69.7200 233.0000 1.0000
69.7300 219.0000 1.0000
69.7400 207.0000 1.0000
69.7500 216.0000 1.0000
69.7600 251.0000 1.0000
69.7700 241.0000 1.0000
69.7800 243.0000 1.0000
69.7900 226.0000 1.0000
69.8000 211.0000 1.0000
69.8100 226.0000 1.0000
69.8200 230.0000 1.0000
69.8300 231.0000 1.0000
69.8400 246.0000 1.0000
69.8500 236.0000 1.0000
69.8600 230.0000 1.0000
69.8700 238.0000 1.0000
69.8800 237.0000 1.0000
69.8900 245.0000 1.0000
69.9000 247.0000 1.0000
69.9100 247.0000 1.0000
69.9200 225.0000 1.0000
69.9300 231.0000 1.0000
69.9400 224.0000 1.0000
69.9500 235.0000 1.0000
69.9600 222.0000 1.0000
69.9700 205.0000 1.0000
69.9800 226.0000 1.0000
69.9900 222.0000 1.0000
70.0000 222.0000 1.0000
*RAS_INT_END
*RAS_TEMPERATURE_START
*RAS_TEMPERATURE_END
*RAS_DATA_END
