*RAS_DATA_START
*RAS_HEADER_START
*DISP_FMT_X "%.2f"
*DISP_FMT_Y "%.0f"
*DISP_FULLSCALE "14372.0000000000"
*DISP_LINE_COLOR "255.0000000000"
*DISP_LINE_STYLE "0.0000000000"
*DISP_LINE_WIDTH "0.2500000000"
*DISP_NOTE "測定データ-2"
*DISP_OFFSET_Y "0.0000000000"
*DISP_PEAKSEARCH_UNIT_Y "cps"
*DISP_RANGE_BOTTOM "0.0000000000"
*DISP_RANGE_LEFT "20.0000000000"
*DISP_RANGE_LOGCUTOFF "0.0100000000"
*DISP_RANGE_RIGHT "70.0000000000"
*DISP_RANGE_TOP "14372.0000000000"
*DISP_SCALE_MODE_Y "0.0000000000"
*DISP_TAB_NAME "2θ/θ"
*DISP_TITLE_Y "強度"
*DISP_UNIT_Y "cps"
*DISP_WINDOW_NAME "MSG_MACROENGINE"
*FILE_COMMENT " "
*FILE_MD5 ""
*FILE_MEMO " "
*FILE_OPERATOR "Administrator"
*FILE_SAMPLE " "
*FILE_TYPE "RAS_RAW"
*FILE_USERGROUP "システムマネージャ"
*FILE_VERSION "1.0000000000"
*HW_ATTACHMENT_ID "ATT0025"
*HW_ATTACHMENT_NAME "標準|Standard"
*HW_COUNTER_ID-0 "CUT0025"
*HW_COUNTER_ID-1 "CUT0020"
*HW_COUNTER_ID-2 "CUT0020"
*HW_COUNTER_ID-3 "CSL0021"
*HW_COUNTER_ID-4 "CMC0021"
*HW_COUNTER_NAME-0 "D/teX Ultra|D/teX Ultra"
*HW_COUNTER_NAME-1 "None|None"
*HW_COUNTER_NAME-2 "None|None"
*HW_COUNTER_NAME-3 "BBM|BBM"
*HW_COUNTER_NAME-4 "検出器モノクロメータ|Detector monochromator"
*HW_COUNTER_SELECT_NAME "D/teX Ultra|D/teX Ultra"
*HW_GONIOMETER_ID "GON0023"
*HW_GONIOMETER_NAME "SmartLab|SmartLab"
*HW_GONIOMETER_RADIUS-0 "90.0"
*HW_GONIOMETER_RADIUS-1 "114.0"
*HW_GONIOMETER_RADIUS-2 "190.0"
*HW_GONIOMETER_RADIUS-3 "300.0"
*HW_GONIOMETER_RADIUS-4 "187.0"
*HW_GONIOMETER_RADIUS-5 "300.0"
*HW_GONIOMETER_RADIUS-6 "113.0"
*HW_GONIOMETER_RADIUS-7 "331.0"
*HW_I_OPT_ID-0 "CBO0021"
*HW_I_OPT_ID-1 "ICR0023"
*HW_I_OPT_ID-2 "ISL0021"
*HW_I_OPT_ID-3 "ISO0021"
*HW_I_OPT_ID-4 "IAD0021"
*HW_I_OPT_ID-5 "IPR0001"
*HW_I_OPT_NAME-0 "CBOユニット|CBO unit"
*HW_I_OPT_NAME-1 "標準入射光学ユニット|Standard incident optical unit"
*HW_I_OPT_NAME-2 "標準入射スリットボックス|Standard incident slit box"
*HW_I_OPT_NAME-3 "入射平行スリット|Incident parallel slit"
*HW_I_OPT_NAME-4 "長手制限スリット|Length limiting slit"
*HW_I_OPT_NAME-5 "None|None"
*HW_R_ATTENUATER_AUTOMODE "0"
*HW_R_OPT_ID-0 "RSS0021"
*HW_R_OPT_ID-1 "RCR0023"
*HW_R_OPT_ID-2 "RSO0021"
*HW_R_OPT_ID-3 "RRS0021"
*HW_R_OPT_ID-4 "ATN0021"
*HW_R_OPT_ID-5 "RFL0021"
*HW_R_OPT_ID-6 "RAD0021"
*HW_R_OPT_NAME-0 "標準受光スリットボックス1|Standard receiving slit box # 1"
*HW_R_OPT_NAME-1 "標準受光光学ユニット1|Standard receiving unit # 1"
*HW_R_OPT_NAME-2 "標準受光光学ユニット2|Standard receiving optical unit # 2"
*HW_R_OPT_NAME-3 "標準受光スリットボックス2|Standard receiving slit box # 2"
*HW_R_OPT_NAME-4 "標準アッテネータ|Standard Attenuator"
*HW_R_OPT_NAME-5 "Cu Kβ|Cu K-beta"
*HW_R_OPT_NAME-6 "調整用受光スリット|Alignment receiving slit"
*HW_SAMPLE_HOLDER_ID "SMP0023"
*HW_SAMPLE_HOLDER_NAME "標準Zステージ|Standard Z stage"
*HW_XG_CURRENT_MAX "50"
*HW_XG_CURRENT_MIN "2"
*HW_XG_CURRENT_RESOLUTION "1"
*HW_XG_CURRENT_UNIT "mA"
*HW_XG_FOCUS "1mm x 10mm"
*HW_XG_FOCUS_TYPE "Normal"
*HW_XG_ID ""
*HW_XG_NAME "3kW 封入管(ID:1200)|3kW Sealed tube(ID:1200)"
*HW_XG_TARGET_ATOMIC_NUMBER "29.0000000000"
*HW_XG_TARGET_NAME "Cu"
*HW_XG_TYPE "Hermetic"
*HW_XG_VOLTAGE_MAX "60"
*HW_XG_VOLTAGE_MIN "20"
*HW_XG_VOLTAGE_RESOLUTION "1"
*HW_XG_VOLTAGE_UNIT "kV"
*HW_XG_WATT_MAX "1.500"
*HW_XG_WATT_UNIT "kW"
*HW_XG_WAVE_LENGTH_ALPHA1 "1.540593"
*HW_XG_WAVE_LENGTH_ALPHA2 "1.544414"
*HW_XG_WAVE_LENGTH_BETA "1.392250"
*MEAS_COND_AXIS_NAME-0 "2θ/θ"
*MEAS_COND_AXIS_NAME-1 "2θ"
*MEAS_COND_AXIS_NAME-2 "ω"
*MEAS_COND_AXIS_NAME-3 "Z"
*MEAS_COND_AXIS_NAME-4 "2θ/ω"
*MEAS_COND_AXIS_NAME-5 "θs"
*MEAS_COND_AXIS_NAME-6 "θd"
*MEAS_COND_AXIS_NAME-7 "Ts"
*MEAS_COND_AXIS_NAME-8 "CBO選択スリット"
*MEAS_COND_AXIS_NAME-9 "M"
*MEAS_COND_AXIS_NAME-10 "入射平行スリット"
*MEAS_COND_AXIS_NAME-11 "入射スリット"
*MEAS_COND_AXIS_NAME-12 ""
*MEAS_COND_AXIS_NAME-13 "Zs"
*MEAS_COND_AXIS_NAME-14 "入射光学素子"
*MEAS_COND_AXIS_NAME-15 "長手制限スリット"
*MEAS_COND_AXIS_NAME-16 "センタースリット"
*MEAS_COND_AXIS_NAME-17 "フィルター"
*MEAS_COND_AXIS_NAME-18 "受光スリット1"
*MEAS_COND_AXIS_NAME-19 "受光スリット2"
*MEAS_COND_AXIS_NAME-20 "受光光学素子"
*MEAS_COND_AXIS_NAME-21 "受光平行スリット"
*MEAS_COND_AXIS_NAME-22 "調整用受光スリット"
*MEAS_COND_AXIS_NAME-23 ""
*MEAS_COND_AXIS_NAME-24 ""
*MEAS_COND_AXIS_NAME-25 "Zd"
*MEAS_COND_AXIS_NAME-26 "アッテネータ"
*MEAS_COND_AXIS_NAME-27 "検出器モノクロメータ"
*MEAS_COND_AXIS_NAME-28 "モノクロメータスリット"
*MEAS_COND_AXIS_NAME-29 "プライマリビーム"
*MEAS_COND_AXIS_NAME-30 "PHA"
*MEAS_COND_AXIS_NAME_INTERNAL-0 "TwoThetaTheta"
*MEAS_COND_AXIS_NAME_INTERNAL-1 "TwoTheta"
*MEAS_COND_AXIS_NAME_INTERNAL-2 "Omega"
*MEAS_COND_AXIS_NAME_INTERNAL-3 "Z"
*MEAS_COND_AXIS_NAME_INTERNAL-4 "TwoThetaOmega"
*MEAS_COND_AXIS_NAME_INTERNAL-5 "ThetaS"
*MEAS_COND_AXIS_NAME_INTERNAL-6 "ThetaD"
*MEAS_COND_AXIS_NAME_INTERNAL-7 "Ts"
*MEAS_COND_AXIS_NAME_INTERNAL-8 "CBO"
*MEAS_COND_AXIS_NAME_INTERNAL-9 "CBO-M"
*MEAS_COND_AXIS_NAME_INTERNAL-10 "IncidentSollerSlit"
*MEAS_COND_AXIS_NAME_INTERNAL-11 "IncidentSlitBox"
*MEAS_COND_AXIS_NAME_INTERNAL-12 "IncidentSlitBox-_Axis"
*MEAS_COND_AXIS_NAME_INTERNAL-13 "Zs"
*MEAS_COND_AXIS_NAME_INTERNAL-14 "IncidentMonochromator"
*MEAS_COND_AXIS_NAME_INTERNAL-15 "IncidentAxdSlit"
*MEAS_COND_AXIS_NAME_INTERNAL-16 "CenterSlit"
*MEAS_COND_AXIS_NAME_INTERNAL-17 "Filter"
*MEAS_COND_AXIS_NAME_INTERNAL-18 "ReceivingSlitBox1"
*MEAS_COND_AXIS_NAME_INTERNAL-19 "ReceivingSlitBox2"
*MEAS_COND_AXIS_NAME_INTERNAL-20 "ReceivingOptics"
*MEAS_COND_AXIS_NAME_INTERNAL-21 "ReceivingSollerSlit"
*MEAS_COND_AXIS_NAME_INTERNAL-22 "ReceivingAxdSlit"
*MEAS_COND_AXIS_NAME_INTERNAL-23 "ReceivingSlitBox1-_Axis"
*MEAS_COND_AXIS_NAME_INTERNAL-24 "ReceivingSlitBox2-_Axis"
*MEAS_COND_AXIS_NAME_INTERNAL-25 "ReceivingSlitBox2-Zd"
*MEAS_COND_AXIS_NAME_INTERNAL-26 "Attenuator"
*MEAS_COND_AXIS_NAME_INTERNAL-27 "CounterMonochromator"
*MEAS_COND_AXIS_NAME_INTERNAL-28 "CounterSlit"
*MEAS_COND_AXIS_NAME_INTERNAL-29 "IncidentPrimary"
*MEAS_COND_AXIS_NAME_INTERNAL-30 "PHA"
*MEAS_COND_AXIS_NAME_MAGICNO-0 "83951616.0000000000"
*MEAS_COND_AXIS_NAME_MAGICNO-1 "268632064.0000000000"
*MEAS_COND_AXIS_NAME_MAGICNO-2 "268500992.0000000000"
*MEAS_COND_AXIS_NAME_MAGICNO-3 "285278208.0000000000"
*MEAS_COND_AXIS_NAME_MAGICNO-4 "83951616.0000000000"
*MEAS_COND_AXIS_NAME_MAGICNO-5 "131072.0000000000"
*MEAS_COND_AXIS_NAME_MAGICNO-6 "131072.0000000000"
*MEAS_COND_AXIS_NAME_MAGICNO-7 "318898176.0000000000"
*MEAS_COND_AXIS_NAME_MAGICNO-8 "20971521.0000000000"
*MEAS_COND_AXIS_NAME_MAGICNO-9 "285343744.0000000000"
*MEAS_COND_AXIS_NAME_MAGICNO-10 "20971521.0000000000"
*MEAS_COND_AXIS_NAME_MAGICNO-11 "22020097.0000000000"
*MEAS_COND_AXIS_NAME_MAGICNO-12 "25165824.0000000000"
*MEAS_COND_AXIS_NAME_MAGICNO-13 "318898176.0000000000"
*MEAS_COND_AXIS_NAME_MAGICNO-14 "1.0000000000"
*MEAS_COND_AXIS_NAME_MAGICNO-15 "20971521.0000000000"
*MEAS_COND_AXIS_NAME_MAGICNO-16 "20971521.0000000000"
*MEAS_COND_AXIS_NAME_MAGICNO-17 "20971521.0000000000"
*MEAS_COND_AXIS_NAME_MAGICNO-18 "23068673.0000000000"
*MEAS_COND_AXIS_NAME_MAGICNO-19 "23068673.0000000000"
*MEAS_COND_AXIS_NAME_MAGICNO-20 "20971521.0000000000"
*MEAS_COND_AXIS_NAME_MAGICNO-21 "20971521.0000000000"
*MEAS_COND_AXIS_NAME_MAGICNO-22 "20971521.0000000000"
*MEAS_COND_AXIS_NAME_MAGICNO-23 "25165824.0000000000"
*MEAS_COND_AXIS_NAME_MAGICNO-24 "25165824.0000000000"
*MEAS_COND_AXIS_NAME_MAGICNO-25 "285343744.0000000000"
*MEAS_COND_AXIS_NAME_MAGICNO-26 "17301505.0000000000"
*MEAS_COND_AXIS_NAME_MAGICNO-27 "20971521.0000000000"
*MEAS_COND_AXIS_NAME_MAGICNO-28 "20971521.0000000000"
*MEAS_COND_AXIS_NAME_MAGICNO-29 "20971521.0000000000"
*MEAS_COND_AXIS_NAME_MAGICNO-30 "0.0000000000"
*MEAS_COND_AXIS_OFFSET-0 "-"
*MEAS_COND_AXIS_OFFSET-1 "-0.1081000000"
*MEAS_COND_AXIS_OFFSET-2 "0.3758000000"
*MEAS_COND_AXIS_OFFSET-3 "-"
*MEAS_COND_AXIS_OFFSET-4 "-"
*MEAS_COND_AXIS_OFFSET-5 "0.3758000000"
*MEAS_COND_AXIS_OFFSET-6 "-0.4839000000"
*MEAS_COND_AXIS_OFFSET-7 "-"
*MEAS_COND_AXIS_OFFSET-8 "-"
*MEAS_COND_AXIS_OFFSET-9 "-"
*MEAS_COND_AXIS_OFFSET-10 "-"
*MEAS_COND_AXIS_OFFSET-11 "-"
*MEAS_COND_AXIS_OFFSET-12 "-"
*MEAS_COND_AXIS_OFFSET-13 "-"
*MEAS_COND_AXIS_OFFSET-14 "-"
*MEAS_COND_AXIS_OFFSET-15 "-"
*MEAS_COND_AXIS_OFFSET-16 "-"
*MEAS_COND_AXIS_OFFSET-17 "-"
*MEAS_COND_AXIS_OFFSET-18 "-"
*MEAS_COND_AXIS_OFFSET-19 "-"
*MEAS_COND_AXIS_OFFSET-20 "-"
*MEAS_COND_AXIS_OFFSET-21 "-"
*MEAS_COND_AXIS_OFFSET-22 "-"
*MEAS_COND_AXIS_OFFSET-23 "-"
*MEAS_COND_AXIS_OFFSET-24 "-"
*MEAS_COND_AXIS_OFFSET-25 "-"
*MEAS_COND_AXIS_OFFSET-26 "-"
*MEAS_COND_AXIS_OFFSET-27 "-"
*MEAS_COND_AXIS_OFFSET-28 "-"
*MEAS_COND_AXIS_OFFSET-29 "-"
*MEAS_COND_AXIS_OFFSET-30 "-"
*MEAS_COND_AXIS_POSITION-0 "0.0000000000"
*MEAS_COND_AXIS_POSITION-1 "0.0000000000"
*MEAS_COND_AXIS_POSITION-2 "0.0000000000"
*MEAS_COND_AXIS_POSITION-3 "-0.5500000000"
*MEAS_COND_AXIS_POSITION-4 "0.0000000000"
*MEAS_COND_AXIS_POSITION-5 "0.0000000000"
*MEAS_COND_AXIS_POSITION-6 "0.0000000000"
*MEAS_COND_AXIS_POSITION-7 "-0.4278800000"
*MEAS_COND_AXIS_POSITION-8 "BB"
*MEAS_COND_AXIS_POSITION-9 "0.0000000000"
*MEAS_COND_AXIS_POSITION-10 "Soller_slit_5.0deg"
*MEAS_COND_AXIS_POSITION-11 "2/3deg"
*MEAS_COND_AXIS_POSITION-12 "2.2088000000"
*MEAS_COND_AXIS_POSITION-13 "-0.4140600000"
*MEAS_COND_AXIS_POSITION-14 "0.0000000000"
*MEAS_COND_AXIS_POSITION-15 "10.0mm"
*MEAS_COND_AXIS_POSITION-16 "None"
*MEAS_COND_AXIS_POSITION-17 "Cu_K-beta"
*MEAS_COND_AXIS_POSITION-18 "13.000mm"
*MEAS_COND_AXIS_POSITION-19 "13.000mm"
*MEAS_COND_AXIS_POSITION-20 "No_unit"
*MEAS_COND_AXIS_POSITION-21 "Soller_slit_5.0deg"
*MEAS_COND_AXIS_POSITION-22 "None"
*MEAS_COND_AXIS_POSITION-23 "13.0000000000"
*MEAS_COND_AXIS_POSITION-24 "13.0000000000"
*MEAS_COND_AXIS_POSITION-25 "0.0109400000"
*MEAS_COND_AXIS_POSITION-26 "Open"
*MEAS_COND_AXIS_POSITION-27 "None"
*MEAS_COND_AXIS_POSITION-28 "None"
*MEAS_COND_AXIS_POSITION-29 "None"
*MEAS_COND_AXIS_POSITION-30 "38.0000000000"
*MEAS_COND_AXIS_UNIT-0 "deg"
*MEAS_COND_AXIS_UNIT-1 "deg"
*MEAS_COND_AXIS_UNIT-2 "deg"
*MEAS_COND_AXIS_UNIT-3 "mm"
*MEAS_COND_AXIS_UNIT-4 "deg"
*MEAS_COND_AXIS_UNIT-5 "deg"
*MEAS_COND_AXIS_UNIT-6 "deg"
*MEAS_COND_AXIS_UNIT-7 "mm"
*MEAS_COND_AXIS_UNIT-8 ""
*MEAS_COND_AXIS_UNIT-9 "pulse"
*MEAS_COND_AXIS_UNIT-10 ""
*MEAS_COND_AXIS_UNIT-11 ""
*MEAS_COND_AXIS_UNIT-12 "mm"
*MEAS_COND_AXIS_UNIT-13 "mm"
*MEAS_COND_AXIS_UNIT-14 ""
*MEAS_COND_AXIS_UNIT-15 ""
*MEAS_COND_AXIS_UNIT-16 ""
*MEAS_COND_AXIS_UNIT-17 ""
*MEAS_COND_AXIS_UNIT-18 ""
*MEAS_COND_AXIS_UNIT-19 ""
*MEAS_COND_AXIS_UNIT-20 ""
*MEAS_COND_AXIS_UNIT-21 ""
*MEAS_COND_AXIS_UNIT-22 ""
*MEAS_COND_AXIS_UNIT-23 "mm"
*MEAS_COND_AXIS_UNIT-24 "mm"
*MEAS_COND_AXIS_UNIT-25 "mm"
*MEAS_COND_AXIS_UNIT-26 ""
*MEAS_COND_AXIS_UNIT-27 ""
*MEAS_COND_AXIS_UNIT-28 ""
*MEAS_COND_AXIS_UNIT-29 ""
*MEAS_COND_AXIS_UNIT-30 "div"
*MEAS_COND_COUNTER_CNTLOSS_CORR "0.0000000000"
*MEAS_COND_COUNTER_PHABASE "38.0000000000"
*MEAS_COND_COUNTER_PHAWINDOW "16.0000000000"
*MEAS_COND_COUNTER_PHA_UNIT "div"
*MEAS_COND_COUNTER_TAUDIFF "30.0000000000"
*MEAS_COND_COUNTER_TAUINT "0.0000000000"
*MEAS_COND_IRRADIATION_MODE "OFF"
*MEAS_COND_IRRADIATION_WIDTH ""
*MEAS_COND_OPT_ATTR "集中法"
*MEAS_COND_OPT_NAME "@集中法"
*MEAS_COND_UNSYMMETRIC_MODE "OFF"
*MEAS_COND_XG_CURRENT "30.0000000000"
*MEAS_COND_XG_VOLTAGE "40.0000000000"
*MEAS_COND_XG_WAVE_TYPE "Ka"
*MEAS_DATA_COUNT "5001.0000000000"
*MEAS_SCAN_AXIS_X "2θ/θ"
*MEAS_SCAN_AXIS_X_INTERNAL "TwoThetaTheta"
*MEAS_SCAN_END_TIME "06/30/21 13:24:50"
*MEAS_SCAN_MODE "CONTINUOUS"
*MEAS_SCAN_MONITOR "0"
*MEAS_SCAN_RESOLUTION_X "0.0002"
*MEAS_SCAN_SPEED "1.0"
*MEAS_SCAN_SPEED_UNIT "deg/min"
*MEAS_SCAN_START "20.0000000000"
*MEAS_SCAN_START_TIME "06/30/21 12:31:57"
*MEAS_SCAN_STEP "0.0100000000"
*MEAS_SCAN_STOP "70.0000000000"
*MEAS_SCAN_UNIT_X "deg"
*MEAS_SCAN_UNIT_Y "counts"
*RAS_HEADER_END
*RAS_INT_START
20.0000 1642.0000 1.0000
20.0100 1668.0000 1.0000
20.0200 1614.0000 1.0000
20.0300 1585.0000 1.0000
20.0400 1659.0000 1.0000
20.0500 1716.0000 1.0000
20.0600 1691.0000 1.0000
20.0700 1688.0000 1.0000
20.0800 1680.0000 1.0000
20.0900 1664.0000 1.0000
20.1000 1637.0000 1.0000
20.1100 1609.0000 1.0000
20.1200 1644.0000 1.0000
20.1300 1661.0000 1.0000
20.1400 1627.0000 1.0000
20.1500 1615.0000 1.0000
20.1600 1644.0000 1.0000
20.1700 1652.0000 1.0000
20.1800 1650.0000 1.0000
20.1900 1678.0000 1.0000
20.2000 1621.0000 1.0000
20.2100 1648.0000 1.0000
20.2200 1615.0000 1.0000
20.2300 1648.0000 1.0000
20.2400 1645.0000 1.0000
20.2500 1629.0000 1.0000
20.2600 1659.0000 1.0000
20.2700 1598.0000 1.0000
20.2800 1636.0000 1.0000
20.2900 1633.0000 1.0000
20.3000 1580.0000 1.0000
20.3100 1634.0000 1.0000
20.3200 1621.0000 1.0000
20.3300 1629.0000 1.0000
20.3400 1663.0000 1.0000
20.3500 1676.0000 1.0000
20.3600 1633.0000 1.0000
20.3700 1666.0000 1.0000
20.3800 1641.0000 1.0000
20.3900 1666.0000 1.0000
20.4000 1677.0000 1.0000
20.4100 1567.0000 1.0000
20.4200 1692.0000 1.0000
20.4300 1668.0000 1.0000
20.4400 1648.0000 1.0000
20.4500 1646.0000 1.0000
20.4600 1655.0000 1.0000
20.4700 1631.0000 1.0000
20.4800 1674.0000 1.0000
20.4900 1616.0000 1.0000
20.5000 1604.0000 1.0000
20.5100 1592.0000 1.0000
20.5200 1648.0000 1.0000
20.5300 1675.0000 1.0000
20.5400 1659.0000 1.0000
20.5500 1637.0000 1.0000
20.5600 1625.0000 1.0000
20.5700 1656.0000 1.0000
20.5800 1615.0000 1.0000
20.5900 1627.0000 1.0000
20.6000 1602.0000 1.0000
20.6100 1578.0000 1.0000
20.6200 1623.0000 1.0000
20.6300 1631.0000 1.0000
20.6400 1612.0000 1.0000
20.6500 1662.0000 1.0000
20.6600 1674.0000 1.0000
20.6700 1721.0000 1.0000
20.6800 1599.0000 1.0000
20.6900 1641.0000 1.0000
20.7000 1623.0000 1.0000
20.7100 1696.0000 1.0000
20.7200 1642.0000 1.0000
20.7300 1649.0000 1.0000
20.7400 1671.0000 1.0000
20.7500 1680.0000 1.0000
20.7600 1670.0000 1.0000
20.7700 1599.0000 1.0000
20.7800 1566.0000 1.0000
20.7900 1649.0000 1.0000
20.8000 1623.0000 1.0000
20.8100 1649.0000 1.0000
20.8200 1591.0000 1.0000
20.8300 1657.0000 1.0000
20.8400 1664.0000 1.0000
20.8500 1632.0000 1.0000
20.8600 1643.0000 1.0000
20.8700 1724.0000 1.0000
20.8800 1599.0000 1.0000
20.8900 1664.0000 1.0000
20.9000 1673.0000 1.0000
20.9100 1639.0000 1.0000
20.9200 1600.0000 1.0000
20.9300 1620.0000 1.0000
20.9400 1673.0000 1.0000
20.9500 1672.0000 1.0000
20.9600 1619.0000 1.0000
20.9700 1666.0000 1.0000
20.9800 1630.0000 1.0000
20.9900 1707.0000 1.0000
21.0000 1611.0000 1.0000
21.0100 1667.0000 1.0000
21.0200 1656.0000 1.0000
21.0300 1639.0000 1.0000
21.0400 1658.0000 1.0000
21.0500 1640.0000 1.0000
21.0600 1588.0000 1.0000
21.0700 1652.0000 1.0000
21.0800 1683.0000 1.0000
21.0900 1647.0000 1.0000
21.1000 1670.0000 1.0000
21.1100 1684.0000 1.0000
21.1200 1645.0000 1.0000
21.1300 1603.0000 1.0000
21.1400 1669.0000 1.0000
21.1500 1726.0000 1.0000
21.1600 1683.0000 1.0000
21.1700 1663.0000 1.0000
21.1800 1646.0000 1.0000
21.1900 1691.0000 1.0000
21.2000 1654.0000 1.0000
21.2100 1662.0000 1.0000
21.2200 1644.0000 1.0000
21.2300 1698.0000 1.0000
21.2400 1645.0000 1.0000
21.2500 1658.0000 1.0000
21.2600 1664.0000 1.0000
21.2700 1585.0000 1.0000
21.2800 1612.0000 1.0000
21.2900 1580.0000 1.0000
21.3000 1654.0000 1.0000
21.3100 1644.0000 1.0000
21.3200 1656.0000 1.0000
21.3300 1608.0000 1.0000
21.3400 1679.0000 1.0000
21.3500 1677.0000 1.0000
21.3600 1686.0000 1.0000
21.3700 1661.0000 1.0000
21.3800 1670.0000 1.0000
21.3900 1612.0000 1.0000
21.4000 1660.0000 1.0000
21.4100 1619.0000 1.0000
21.4200 1695.0000 1.0000
21.4300 1683.0000 1.0000
21.4400 1690.0000 1.0000
21.4500 1641.0000 1.0000
21.4600 1638.0000 1.0000
21.4700 1676.0000 1.0000
21.4800 1742.0000 1.0000
21.4900 1708.0000 1.0000
21.5000 1615.0000 1.0000
21.5100 1702.0000 1.0000
21.5200 1712.0000 1.0000
21.5300 1605.0000 1.0000
21.5400 1623.0000 1.0000
21.5500 1615.0000 1.0000
21.5600 1685.0000 1.0000
21.5700 1605.0000 1.0000
21.5800 1645.0000 1.0000
21.5900 1634.0000 1.0000
21.6000 1665.0000 1.0000
21.6100 1721.0000 1.0000
21.6200 1669.0000 1.0000
21.6300 1642.0000 1.0000
21.6400 1641.0000 1.0000
21.6500 1696.0000 1.0000
21.6600 1653.0000 1.0000
21.6700 1618.0000 1.0000
21.6800 1658.0000 1.0000
21.6900 1651.0000 1.0000
21.7000 1663.0000 1.0000
21.7100 1663.0000 1.0000
21.7200 1651.0000 1.0000
21.7300 1626.0000 1.0000
21.7400 1609.0000 1.0000
21.7500 1600.0000 1.0000
21.7600 1661.0000 1.0000
21.7700 1718.0000 1.0000
21.7800 1665.0000 1.0000
21.7900 1628.0000 1.0000
21.8000 1685.0000 1.0000
21.8100 1639.0000 1.0000
21.8200 1725.0000 1.0000
21.8300 1669.0000 1.0000
21.8400 1687.0000 1.0000
21.8500 1605.0000 1.0000
21.8600 1660.0000 1.0000
21.8700 1637.0000 1.0000
21.8800 1641.0000 1.0000
21.8900 1655.0000 1.0000
21.9000 1687.0000 1.0000
21.9100 1621.0000 1.0000
21.9200 1628.0000 1.0000
21.9300 1597.0000 1.0000
21.9400 1578.0000 1.0000
21.9500 1688.0000 1.0000
21.9600 1775.0000 1.0000
21.9700 1688.0000 1.0000
21.9800 1700.0000 1.0000
21.9900 1640.0000 1.0000
22.0000 1640.0000 1.0000
22.0100 1684.0000 1.0000
22.0200 1671.0000 1.0000
22.0300 1624.0000 1.0000
22.0400 1634.0000 1.0000
22.0500 1630.0000 1.0000
22.0600 1632.0000 1.0000
22.0700 1626.0000 1.0000
22.0800 1600.0000 1.0000
22.0900 1634.0000 1.0000
22.1000 1692.0000 1.0000
22.1100 1600.0000 1.0000
22.1200 1669.0000 1.0000
22.1300 1677.0000 1.0000
22.1400 1719.0000 1.0000
22.1500 1728.0000 1.0000
22.1600 1730.0000 1.0000
22.1700 1689.0000 1.0000
22.1800 1611.0000 1.0000
22.1900 1640.0000 1.0000
22.2000 1647.0000 1.0000
22.2100 1670.0000 1.0000
22.2200 1718.0000 1.0000
22.2300 1706.0000 1.0000
22.2400 1658.0000 1.0000
22.2500 1668.0000 1.0000
22.2600 1657.0000 1.0000
22.2700 1684.0000 1.0000
22.2800 1613.0000 1.0000
22.2900 1640.0000 1.0000
22.3000 1599.0000 1.0000
22.3100 1680.0000 1.0000
22.3200 1646.0000 1.0000
22.3300 1667.0000 1.0000
22.3400 1612.0000 1.0000
22.3500 1707.0000 1.0000
22.3600 1666.0000 1.0000
22.3700 1710.0000 1.0000
22.3800 1648.0000 1.0000
22.3900 1684.0000 1.0000
22.4000 1661.0000 1.0000
22.4100 1617.0000 1.0000
22.4200 1722.0000 1.0000
22.4300 1625.0000 1.0000
22.4400 1713.0000 1.0000
22.4500 1635.0000 1.0000
22.4600 1659.0000 1.0000
22.4700 1634.0000 1.0000
22.4800 1626.0000 1.0000
22.4900 1629.0000 1.0000
22.5000 1689.0000 1.0000
22.5100 1653.0000 1.0000
22.5200 1718.0000 1.0000
22.5300 1733.0000 1.0000
22.5400 1727.0000 1.0000
22.5500 1584.0000 1.0000
22.5600 1689.0000 1.0000
22.5700 1634.0000 1.0000
22.5800 1751.0000 1.0000
22.5900 1671.0000 1.0000
22.6000 1679.0000 1.0000
22.6100 1651.0000 1.0000
22.6200 1611.0000 1.0000
22.6300 1668.0000 1.0000
22.6400 1670.0000 1.0000
22.6500 1746.0000 1.0000
22.6600 1660.0000 1.0000
22.6700 1689.0000 1.0000
22.6800 1664.0000 1.0000
22.6900 1643.0000 1.0000
22.7000 1630.0000 1.0000
22.7100 1630.0000 1.0000
22.7200 1725.0000 1.0000
22.7300 1664.0000 1.0000
22.7400 1708.0000 1.0000
22.7500 1688.0000 1.0000
22.7600 1672.0000 1.0000
22.7700 1662.0000 1.0000
22.7800 1687.0000 1.0000
22.7900 1669.0000 1.0000
22.8000 1621.0000 1.0000
22.8100 1623.0000 1.0000
22.8200 1683.0000 1.0000
22.8300 1704.0000 1.0000
22.8400 1638.0000 1.0000
22.8500 1653.0000 1.0000
22.8600 1723.0000 1.0000
22.8700 1656.0000 1.0000
22.8800 1642.0000 1.0000
22.8900 1705.0000 1.0000
22.9000 1648.0000 1.0000
22.9100 1656.0000 1.0000
22.9200 1714.0000 1.0000
22.9300 1698.0000 1.0000
22.9400 1703.0000 1.0000
22.9500 1723.0000 1.0000
22.9600 1695.0000 1.0000
22.9700 1709.0000 1.0000
22.9800 1636.0000 1.0000
22.9900 1719.0000 1.0000
23.0000 1751.0000 1.0000
23.0100 1717.0000 1.0000
23.0200 1727.0000 1.0000
23.0300 1683.0000 1.0000
23.0400 1640.0000 1.0000
23.0500 1717.0000 1.0000
23.0600 1685.0000 1.0000
23.0700 1685.0000 1.0000
23.0800 1615.0000 1.0000
23.0900 1657.0000 1.0000
23.1000 1710.0000 1.0000
23.1100 1712.0000 1.0000
23.1200 1642.0000 1.0000
23.1300 1703.0000 1.0000
23.1400 1694.0000 1.0000
23.1500 1689.0000 1.0000
23.1600 1684.0000 1.0000
23.1700 1702.0000 1.0000
23.1800 1657.0000 1.0000
23.1900 1669.0000 1.0000
23.2000 1720.0000 1.0000
23.2100 1647.0000 1.0000
23.2200 1644.0000 1.0000
23.2300 1746.0000 1.0000
23.2400 1637.0000 1.0000
23.2500 1719.0000 1.0000
23.2600 1717.0000 1.0000
23.2700 1703.0000 1.0000
23.2800 1737.0000 1.0000
23.2900 1756.0000 1.0000
23.3000 1699.0000 1.0000
23.3100 1686.0000 1.0000
23.3200 1695.0000 1.0000
23.3300 1685.0000 1.0000
23.3400 1710.0000 1.0000
23.3500 1705.0000 1.0000
23.3600 1742.0000 1.0000
23.3700 1726.0000 1.0000
23.3800 1656.0000 1.0000
23.3900 1728.0000 1.0000
23.4000 1711.0000 1.0000
23.4100 1697.0000 1.0000
23.4200 1684.0000 1.0000
23.4300 1705.0000 1.0000
23.4400 1640.0000 1.0000
23.4500 1703.0000 1.0000
23.4600 1662.0000 1.0000
23.4700 1647.0000 1.0000
23.4800 1643.0000 1.0000
23.4900 1668.0000 1.0000
23.5000 1664.0000 1.0000
23.5100 1699.0000 1.0000
23.5200 1682.0000 1.0000
23.5300 1687.0000 1.0000
23.5400 1711.0000 1.0000
23.5500 1666.0000 1.0000
23.5600 1729.0000 1.0000
23.5700 1665.0000 1.0000
23.5800 1722.0000 1.0000
23.5900 1729.0000 1.0000
23.6000 1693.0000 1.0000
23.6100 1725.0000 1.0000
23.6200 1727.0000 1.0000
23.6300 1748.0000 1.0000
23.6400 1662.0000 1.0000
23.6500 1628.0000 1.0000
23.6600 1698.0000 1.0000
23.6700 1675.0000 1.0000
23.6800 1714.0000 1.0000
23.6900 1713.0000 1.0000
23.7000 1718.0000 1.0000
23.7100 1703.0000 1.0000
23.7200 1694.0000 1.0000
23.7300 1686.0000 1.0000
23.7400 1653.0000 1.0000
23.7500 1690.0000 1.0000
23.7600 1611.0000 1.0000
23.7700 1728.0000 1.0000
23.7800 1717.0000 1.0000
23.7900 1697.0000 1.0000
23.8000 1681.0000 1.0000
23.8100 1683.0000 1.0000
23.8200 1738.0000 1.0000
23.8300 1703.0000 1.0000
23.8400 1712.0000 1.0000
23.8500 1693.0000 1.0000
23.8600 1705.0000 1.0000
23.8700 1704.0000 1.0000
23.8800 1730.0000 1.0000
23.8900 1672.0000 1.0000
23.9000 1671.0000 1.0000
23.9100 1667.0000 1.0000
23.9200 1690.0000 1.0000
23.9300 1653.0000 1.0000
23.9400 1681.0000 1.0000
23.9500 1702.0000 1.0000
23.9600 1699.0000 1.0000
23.9700 1728.0000 1.0000
23.9800 1705.0000 1.0000
23.9900 1693.0000 1.0000
24.0000 1709.0000 1.0000
24.0100 1697.0000 1.0000
24.0200 1705.0000 1.0000
24.0300 1668.0000 1.0000
24.0400 1671.0000 1.0000
24.0500 1788.0000 1.0000
24.0600 1766.0000 1.0000
24.0700 1777.0000 1.0000
24.0800 1784.0000 1.0000
24.0900 1755.0000 1.0000
24.1000 1719.0000 1.0000
24.1100 1679.0000 1.0000
24.1200 1717.0000 1.0000
24.1300 1676.0000 1.0000
24.1400 1695.0000 1.0000
24.1500 1721.0000 1.0000
24.1600 1714.0000 1.0000
24.1700 1775.0000 1.0000
24.1800 1747.0000 1.0000
24.1900 1668.0000 1.0000
24.2000 1674.0000 1.0000
24.2100 1692.0000 1.0000
24.2200 1699.0000 1.0000
24.2300 1748.0000 1.0000
24.2400 1769.0000 1.0000
24.2500 1671.0000 1.0000
24.2600 1714.0000 1.0000
24.2700 1745.0000 1.0000
24.2800 1750.0000 1.0000
24.2900 1691.0000 1.0000
24.3000 1716.0000 1.0000
24.3100 1653.0000 1.0000
24.3200 1708.0000 1.0000
24.3300 1694.0000 1.0000
24.3400 1699.0000 1.0000
24.3500 1663.0000 1.0000
24.3600 1647.0000 1.0000
24.3700 1708.0000 1.0000
24.3800 1693.0000 1.0000
24.3900 1745.0000 1.0000
24.4000 1691.0000 1.0000
24.4100 1652.0000 1.0000
24.4200 1662.0000 1.0000
24.4300 1746.0000 1.0000
24.4400 1755.0000 1.0000
24.4500 1742.0000 1.0000
24.4600 1687.0000 1.0000
24.4700 1718.0000 1.0000
24.4800 1713.0000 1.0000
24.4900 1731.0000 1.0000
24.5000 1691.0000 1.0000
24.5100 1687.0000 1.0000
24.5200 1662.0000 1.0000
24.5300 1684.0000 1.0000
24.5400 1747.0000 1.0000
24.5500 1676.0000 1.0000
24.5600 1750.0000 1.0000
24.5700 1753.0000 1.0000
24.5800 1670.0000 1.0000
24.5900 1782.0000 1.0000
24.6000 1697.0000 1.0000
24.6100 1726.0000 1.0000
24.6200 1734.0000 1.0000
24.6300 1717.0000 1.0000
24.6400 1721.0000 1.0000
24.6500 1719.0000 1.0000
24.6600 1710.0000 1.0000
24.6700 1825.0000 1.0000
24.6800 1751.0000 1.0000
24.6900 1748.0000 1.0000
24.7000 1759.0000 1.0000
24.7100 1740.0000 1.0000
24.7200 1769.0000 1.0000
24.7300 1799.0000 1.0000
24.7400 1766.0000 1.0000
24.7500 1764.0000 1.0000
24.7600 1719.0000 1.0000
24.7700 1761.0000 1.0000
24.7800 1817.0000 1.0000
24.7900 1802.0000 1.0000
24.8000 1780.0000 1.0000
24.8100 1742.0000 1.0000
24.8200 1740.0000 1.0000
24.8300 1728.0000 1.0000
24.8400 1792.0000 1.0000
24.8500 1781.0000 1.0000
24.8600 1731.0000 1.0000
24.8700 1752.0000 1.0000
24.8800 1790.0000 1.0000
24.8900 1739.0000 1.0000
24.9000 1869.0000 1.0000
24.9100 1868.0000 1.0000
24.9200 1825.0000 1.0000
24.9300 1775.0000 1.0000
24.9400 1832.0000 1.0000
24.9500 1806.0000 1.0000
24.9600 1792.0000 1.0000
24.9700 1828.0000 1.0000
24.9800 1775.0000 1.0000
24.9900 1804.0000 1.0000
25.0000 1821.0000 1.0000
25.0100 1823.0000 1.0000
25.0200 1823.0000 1.0000
25.0300 1777.0000 1.0000
25.0400 1775.0000 1.0000
25.0500 1757.0000 1.0000
25.0600 1767.0000 1.0000
25.0700 1789.0000 1.0000
25.0800 1731.0000 1.0000
25.0900 1712.0000 1.0000
25.1000 1738.0000 1.0000
25.1100 1777.0000 1.0000
25.1200 1769.0000 1.0000
25.1300 1797.0000 1.0000
25.1400 1798.0000 1.0000
25.1500 1800.0000 1.0000
25.1600 1802.0000 1.0000
25.1700 1826.0000 1.0000
25.1800 1808.0000 1.0000
25.1900 1748.0000 1.0000
25.2000 1723.0000 1.0000
25.2100 1676.0000 1.0000
25.2200 1735.0000 1.0000
25.2300 1760.0000 1.0000
25.2400 1775.0000 1.0000
25.2500 1753.0000 1.0000
25.2600 1774.0000 1.0000
25.2700 1701.0000 1.0000
25.2800 1733.0000 1.0000
25.2900 1795.0000 1.0000
25.3000 1715.0000 1.0000
25.3100 1716.0000 1.0000
25.3200 1729.0000 1.0000
25.3300 1797.0000 1.0000
25.3400 1764.0000 1.0000
25.3500 1731.0000 1.0000
25.3600 1773.0000 1.0000
25.3700 1700.0000 1.0000
25.3800 1729.0000 1.0000
25.3900 1812.0000 1.0000
25.4000 1772.0000 1.0000
25.4100 1811.0000 1.0000
25.4200 1766.0000 1.0000
25.4300 1696.0000 1.0000
25.4400 1744.0000 1.0000
25.4500 1713.0000 1.0000
25.4600 1796.0000 1.0000
25.4700 1753.0000 1.0000
25.4800 1688.0000 1.0000
25.4900 1723.0000 1.0000
25.5000 1732.0000 1.0000
25.5100 1734.0000 1.0000
25.5200 1776.0000 1.0000
25.5300 1772.0000 1.0000
25.5400 1737.0000 1.0000
25.5500 1780.0000 1.0000
25.5600 1703.0000 1.0000
25.5700 1710.0000 1.0000
25.5800 1723.0000 1.0000
25.5900 1827.0000 1.0000
25.6000 1762.0000 1.0000
25.6100 1866.0000 1.0000
25.6200 1773.0000 1.0000
25.6300 1773.0000 1.0000
25.6400 1756.0000 1.0000
25.6500 1740.0000 1.0000
25.6600 1725.0000 1.0000
25.6700 1736.0000 1.0000
25.6800 1781.0000 1.0000
25.6900 1680.0000 1.0000
25.7000 1763.0000 1.0000
25.7100 1758.0000 1.0000
25.7200 1704.0000 1.0000
25.7300 1785.0000 1.0000
25.7400 1747.0000 1.0000
25.7500 1724.0000 1.0000
25.7600 1770.0000 1.0000
25.7700 1803.0000 1.0000
25.7800 1814.0000 1.0000
25.7900 1703.0000 1.0000
25.8000 1773.0000 1.0000
25.8100 1756.0000 1.0000
25.8200 1730.0000 1.0000
25.8300 1716.0000 1.0000
25.8400 1714.0000 1.0000
25.8500 1725.0000 1.0000
25.8600 1756.0000 1.0000
25.8700 1760.0000 1.0000
25.8800 1761.0000 1.0000
25.8900 1780.0000 1.0000
25.9000 1739.0000 1.0000
25.9100 1788.0000 1.0000
25.9200 1720.0000 1.0000
25.9300 1736.0000 1.0000
25.9400 1742.0000 1.0000
25.9500 1751.0000 1.0000
25.9600 1745.0000 1.0000
25.9700 1781.0000 1.0000
25.9800 1807.0000 1.0000
25.9900 1800.0000 1.0000
26.0000 1735.0000 1.0000
26.0100 1753.0000 1.0000
26.0200 1745.0000 1.0000
26.0300 1766.0000 1.0000
26.0400 1766.0000 1.0000
26.0500 1737.0000 1.0000
26.0600 1740.0000 1.0000
26.0700 1704.0000 1.0000
26.0800 1740.0000 1.0000
26.0900 1680.0000 1.0000
26.1000 1787.0000 1.0000
26.1100 1735.0000 1.0000
26.1200 1714.0000 1.0000
26.1300 1805.0000 1.0000
26.1400 1750.0000 1.0000
26.1500 1786.0000 1.0000
26.1600 1761.0000 1.0000
26.1700 1728.0000 1.0000
26.1800 1758.0000 1.0000
26.1900 1816.0000 1.0000
26.2000 1855.0000 1.0000
26.2100 1795.0000 1.0000
26.2200 1787.0000 1.0000
26.2300 1768.0000 1.0000
26.2400 1738.0000 1.0000
26.2500 1781.0000 1.0000
26.2600 1745.0000 1.0000
26.2700 1795.0000 1.0000
26.2800 1756.0000 1.0000
26.2900 1765.0000 1.0000
26.3000 1787.0000 1.0000
26.3100 1805.0000 1.0000
26.3200 1782.0000 1.0000
26.3300 1788.0000 1.0000
26.3400 1812.0000 1.0000
26.3500 1801.0000 1.0000
26.3600 1801.0000 1.0000
26.3700 1774.0000 1.0000
26.3800 1855.0000 1.0000
26.3900 1834.0000 1.0000
26.4000 1888.0000 1.0000
26.4100 1841.0000 1.0000
26.4200 1817.0000 1.0000
26.4300 1818.0000 1.0000
26.4400 1832.0000 1.0000
26.4500 1888.0000 1.0000
26.4600 1821.0000 1.0000
26.4700 1856.0000 1.0000
26.4800 1833.0000 1.0000
26.4900 1864.0000 1.0000
26.5000 1833.0000 1.0000
26.5100 1880.0000 1.0000
26.5200 1915.0000 1.0000
26.5300 1828.0000 1.0000
26.5400 1790.0000 1.0000
26.5500 1833.0000 1.0000
26.5600 1779.0000 1.0000
26.5700 1874.0000 1.0000
26.5800 1808.0000 1.0000
26.5900 1826.0000 1.0000
26.6000 1845.0000 1.0000
26.6100 1815.0000 1.0000
26.6200 1840.0000 1.0000
26.6300 1826.0000 1.0000
26.6400 1772.0000 1.0000
26.6500 1788.0000 1.0000
26.6600 1954.0000 1.0000
26.6700 1838.0000 1.0000
26.6800 1839.0000 1.0000
26.6900 1927.0000 1.0000
26.7000 1848.0000 1.0000
26.7100 1885.0000 1.0000
26.7200 1874.0000 1.0000
26.7300 1907.0000 1.0000
26.7400 1899.0000 1.0000
26.7500 1921.0000 1.0000
26.7600 1881.0000 1.0000
26.7700 1895.0000 1.0000
26.7800 1895.0000 1.0000
26.7900 1952.0000 1.0000
26.8000 1959.0000 1.0000
26.8100 1985.0000 1.0000
26.8200 2029.0000 1.0000
26.8300 1990.0000 1.0000
26.8400 1932.0000 1.0000
26.8500 1960.0000 1.0000
26.8600 1992.0000 1.0000
26.8700 2066.0000 1.0000
26.8800 2000.0000 1.0000
26.8900 1985.0000 1.0000
26.9000 2086.0000 1.0000
26.9100 2104.0000 1.0000
26.9200 2125.0000 1.0000
26.9300 2126.0000 1.0000
26.9400 2178.0000 1.0000
26.9500 2167.0000 1.0000
26.9600 2186.0000 1.0000
26.9700 2313.0000 1.0000
26.9800 2314.0000 1.0000
26.9900 2276.0000 1.0000
27.0000 2374.0000 1.0000
27.0100 2330.0000 1.0000
27.0200 2486.0000 1.0000
27.0300 2507.0000 1.0000
27.0400 2500.0000 1.0000
27.0500 2606.0000 1.0000
27.0600 2684.0000 1.0000
27.0700 2719.0000 1.0000
27.0800 2766.0000 1.0000
27.0900 2911.0000 1.0000
27.1000 3055.0000 1.0000
27.1100 3155.0000 1.0000
27.1200 3233.0000 1.0000
27.1300 3370.0000 1.0000
27.1400 3486.0000 1.0000
27.1500 3684.0000 1.0000
27.1600 3791.0000 1.0000
27.1700 4050.0000 1.0000
27.1800 4138.0000 1.0000
27.1900 4410.0000 1.0000
27.2000 4612.0000 1.0000
27.2100 4913.0000 1.0000
27.2200 5020.0000 1.0000
27.2300 5428.0000 1.0000
27.2400 5649.0000 1.0000
27.2500 5940.0000 1.0000
27.2600 6101.0000 1.0000
27.2700 6365.0000 1.0000
27.2800 6495.0000 1.0000
27.2900 6564.0000 1.0000
27.3000 6626.0000 1.0000
27.3100 6688.0000 1.0000
27.3200 6658.0000 1.0000
27.3300 6493.0000 1.0000
27.3400 6263.0000 1.0000
27.3500 6107.0000 1.0000
27.3600 5937.0000 1.0000
27.3700 5639.0000 1.0000
27.3800 5353.0000 1.0000
27.3900 5248.0000 1.0000
27.4000 5026.0000 1.0000
27.4100 4768.0000 1.0000
27.4200 4429.0000 1.0000
27.4300 4224.0000 1.0000
27.4400 4038.0000 1.0000
27.4500 3862.0000 1.0000
27.4600 3662.0000 1.0000
27.4700 3533.0000 1.0000
27.4800 3383.0000 1.0000
27.4900 3296.0000 1.0000
27.5000 3085.0000 1.0000
27.5100 2953.0000 1.0000
27.5200 2912.0000 1.0000
27.5300 2792.0000 1.0000
27.5400 2618.0000 1.0000
27.5500 2760.0000 1.0000
27.5600 2696.0000 1.0000
27.5700 2579.0000 1.0000
27.5800 2500.0000 1.0000
27.5900 2497.0000 1.0000
27.6000 2386.0000 1.0000
27.6100 2356.0000 1.0000
27.6200 2383.0000 1.0000
27.6300 2234.0000 1.0000
27.6400 2201.0000 1.0000
27.6500 2185.0000 1.0000
27.6600 2231.0000 1.0000
27.6700 2137.0000 1.0000
27.6800 2168.0000 1.0000
27.6900 2163.0000 1.0000
27.7000 2114.0000 1.0000
27.7100 2091.0000 1.0000
27.7200 2029.0000 1.0000
27.7300 1946.0000 1.0000
27.7400 2075.0000 1.0000
27.7500 2020.0000 1.0000
27.7600 1987.0000 1.0000
27.7700 1985.0000 1.0000
27.7800 1986.0000 1.0000
27.7900 1938.0000 1.0000
27.8000 1935.0000 1.0000
27.8100 1988.0000 1.0000
27.8200 1943.0000 1.0000
27.8300 1884.0000 1.0000
27.8400 1888.0000 1.0000
27.8500 1887.0000 1.0000
27.8600 1841.0000 1.0000
27.8700 1849.0000 1.0000
27.8800 1816.0000 1.0000
27.8900 1856.0000 1.0000
27.9000 1816.0000 1.0000
27.9100 1942.0000 1.0000
27.9200 1891.0000 1.0000
27.9300 1829.0000 1.0000
27.9400 1802.0000 1.0000
27.9500 1753.0000 1.0000
27.9600 1816.0000 1.0000
27.9700 1794.0000 1.0000
27.9800 1787.0000 1.0000
27.9900 1770.0000 1.0000
28.0000 1824.0000 1.0000
28.0100 1813.0000 1.0000
28.0200 1741.0000 1.0000
28.0300 1772.0000 1.0000
28.0400 1811.0000 1.0000
28.0500 1814.0000 1.0000
28.0600 1809.0000 1.0000
28.0700 1730.0000 1.0000
28.0800 1683.0000 1.0000
28.0900 1764.0000 1.0000
28.1000 1704.0000 1.0000
28.1100 1772.0000 1.0000
28.1200 1695.0000 1.0000
28.1300 1706.0000 1.0000
28.1400 1757.0000 1.0000
28.1500 1743.0000 1.0000
28.1600 1741.0000 1.0000
28.1700 1747.0000 1.0000
28.1800 1744.0000 1.0000
28.1900 1751.0000 1.0000
28.2000 1740.0000 1.0000
28.2100 1740.0000 1.0000
28.2200 1749.0000 1.0000
28.2300 1739.0000 1.0000
28.2400 1750.0000 1.0000
28.2500 1790.0000 1.0000
28.2600 1725.0000 1.0000
28.2700 1661.0000 1.0000
28.2800 1710.0000 1.0000
28.2900 1627.0000 1.0000
28.3000 1731.0000 1.0000
28.3100 1739.0000 1.0000
28.3200 1688.0000 1.0000
28.3300 1738.0000 1.0000
28.3400 1648.0000 1.0000
28.3500 1660.0000 1.0000
28.3600 1706.0000 1.0000
28.3700 1685.0000 1.0000
28.3800 1704.0000 1.0000
28.3900 1710.0000 1.0000
28.4000 1680.0000 1.0000
28.4100 1681.0000 1.0000
28.4200 1649.0000 1.0000
28.4300 1634.0000 1.0000
28.4400 1691.0000 1.0000
28.4500 1688.0000 1.0000
28.4600 1689.0000 1.0000
28.4700 1675.0000 1.0000
28.4800 1644.0000 1.0000
28.4900 1689.0000 1.0000
28.5000 1654.0000 1.0000
28.5100 1630.0000 1.0000
28.5200 1653.0000 1.0000
28.5300 1658.0000 1.0000
28.5400 1638.0000 1.0000
28.5500 1569.0000 1.0000
28.5600 1714.0000 1.0000
28.5700 1653.0000 1.0000
28.5800 1712.0000 1.0000
28.5900 1628.0000 1.0000
28.6000 1632.0000 1.0000
28.6100 1678.0000 1.0000
28.6200 1666.0000 1.0000
28.6300 1620.0000 1.0000
28.6400 1647.0000 1.0000
28.6500 1675.0000 1.0000
28.6600 1605.0000 1.0000
28.6700 1724.0000 1.0000
28.6800 1610.0000 1.0000
28.6900 1717.0000 1.0000
28.7000 1671.0000 1.0000
28.7100 1631.0000 1.0000
28.7200 1636.0000 1.0000
28.7300 1676.0000 1.0000
28.7400 1696.0000 1.0000
28.7500 1737.0000 1.0000
28.7600 1633.0000 1.0000
28.7700 1636.0000 1.0000
28.7800 1616.0000 1.0000
28.7900 1605.0000 1.0000
28.8000 1679.0000 1.0000
28.8100 1677.0000 1.0000
28.8200 1597.0000 1.0000
28.8300 1651.0000 1.0000
28.8400 1615.0000 1.0000
28.8500 1580.0000 1.0000
28.8600 1685.0000 1.0000
28.8700 1604.0000 1.0000
28.8800 1571.0000 1.0000
28.8900 1599.0000 1.0000
28.9000 1661.0000 1.0000
28.9100 1632.0000 1.0000
28.9200 1630.0000 1.0000
28.9300 1664.0000 1.0000
28.9400 1548.0000 1.0000
28.9500 1588.0000 1.0000
28.9600 1623.0000 1.0000
28.9700 1640.0000 1.0000
28.9800 1643.0000 1.0000
28.9900 1590.0000 1.0000
29.0000 1647.0000 1.0000
29.0100 1585.0000 1.0000
29.0200 1585.0000 1.0000
29.0300 1647.0000 1.0000
29.0400 1604.0000 1.0000
29.0500 1641.0000 1.0000
29.0600 1663.0000 1.0000
29.0700 1598.0000 1.0000
29.0800 1600.0000 1.0000
29.0900 1614.0000 1.0000
29.1000 1616.0000 1.0000
29.1100 1621.0000 1.0000
29.1200 1641.0000 1.0000
29.1300 1583.0000 1.0000
29.1400 1551.0000 1.0000
29.1500 1652.0000 1.0000
29.1600 1612.0000 1.0000
29.1700 1587.0000 1.0000
29.1800 1663.0000 1.0000
29.1900 1654.0000 1.0000
29.2000 1639.0000 1.0000
29.2100 1572.0000 1.0000
29.2200 1609.0000 1.0000
29.2300 1627.0000 1.0000
29.2400 1578.0000 1.0000
29.2500 1602.0000 1.0000
29.2600 1582.0000 1.0000
29.2700 1590.0000 1.0000
29.2800 1716.0000 1.0000
29.2900 1616.0000 1.0000
29.3000 1595.0000 1.0000
29.3100 1636.0000 1.0000
29.3200 1598.0000 1.0000
29.3300 1620.0000 1.0000
29.3400 1616.0000 1.0000
29.3500 1595.0000 1.0000
29.3600 1594.0000 1.0000
29.3700 1639.0000 1.0000
29.3800 1613.0000 1.0000
29.3900 1693.0000 1.0000
29.4000 1596.0000 1.0000
29.4100 1548.0000 1.0000
29.4200 1602.0000 1.0000
29.4300 1640.0000 1.0000
29.4400 1572.0000 1.0000
29.4500 1634.0000 1.0000
29.4600 1543.0000 1.0000
29.4700 1570.0000 1.0000
29.4800 1544.0000 1.0000
29.4900 1577.0000 1.0000
29.5000 1574.0000 1.0000
29.5100 1655.0000 1.0000
29.5200 1599.0000 1.0000
29.5300 1652.0000 1.0000
29.5400 1629.0000 1.0000
29.5500 1638.0000 1.0000
29.5600 1586.0000 1.0000
29.5700 1618.0000 1.0000
29.5800 1555.0000 1.0000
29.5900 1617.0000 1.0000
29.6000 1576.0000 1.0000
29.6100 1576.0000 1.0000
29.6200 1582.0000 1.0000
29.6300 1629.0000 1.0000
29.6400 1584.0000 1.0000
29.6500 1604.0000 1.0000
29.6600 1572.0000 1.0000
29.6700 1580.0000 1.0000
29.6800 1626.0000 1.0000
29.6900 1578.0000 1.0000
29.7000 1588.0000 1.0000
29.7100 1566.0000 1.0000
29.7200 1593.0000 1.0000
29.7300 1606.0000 1.0000
29.7400 1593.0000 1.0000
29.7500 1549.0000 1.0000
29.7600 1588.0000 1.0000
29.7700 1532.0000 1.0000
29.7800 1503.0000 1.0000
29.7900 1552.0000 1.0000
29.8000 1595.0000 1.0000
29.8100 1550.0000 1.0000
29.8200 1536.0000 1.0000
29.8300 1574.0000 1.0000
29.8400 1530.0000 1.0000
29.8500 1565.0000 1.0000
29.8600 1568.0000 1.0000
29.8700 1577.0000 1.0000
29.8800 1544.0000 1.0000
29.8900 1478.0000 1.0000
29.9000 1480.0000 1.0000
29.9100 1556.0000 1.0000
29.9200 1574.0000 1.0000
29.9300 1570.0000 1.0000
29.9400 1593.0000 1.0000
29.9500 1563.0000 1.0000
29.9600 1645.0000 1.0000
29.9700 1577.0000 1.0000
29.9800 1521.0000 1.0000
29.9900 1577.0000 1.0000
30.0000 1612.0000 1.0000
30.0100 1629.0000 1.0000
30.0200 1588.0000 1.0000
30.0300 1589.0000 1.0000
30.0400 1571.0000 1.0000
30.0500 1563.0000 1.0000
30.0600 1492.0000 1.0000
30.0700 1525.0000 1.0000
30.0800 1586.0000 1.0000
30.0900 1608.0000 1.0000
30.1000 1525.0000 1.0000
30.1100 1547.0000 1.0000
30.1200 1616.0000 1.0000
30.1300 1513.0000 1.0000
30.1400 1555.0000 1.0000
30.1500 1593.0000 1.0000
30.1600 1535.0000 1.0000
30.1700 1531.0000 1.0000
30.1800 1526.0000 1.0000
30.1900 1492.0000 1.0000
30.2000 1642.0000 1.0000
30.2100 1530.0000 1.0000
30.2200 1568.0000 1.0000
30.2300 1567.0000 1.0000
30.2400 1555.0000 1.0000
30.2500 1534.0000 1.0000
30.2600 1542.0000 1.0000
30.2700 1600.0000 1.0000
30.2800 1550.0000 1.0000
30.2900 1544.0000 1.0000
30.3000 1510.0000 1.0000
30.3100 1472.0000 1.0000
30.3200 1497.0000 1.0000
30.3300 1528.0000 1.0000
30.3400 1458.0000 1.0000
30.3500 1561.0000 1.0000
30.3600 1487.0000 1.0000
30.3700 1565.0000 1.0000
30.3800 1531.0000 1.0000
30.3900 1571.0000 1.0000
30.4000 1493.0000 1.0000
30.4100 1455.0000 1.0000
30.4200 1532.0000 1.0000
30.4300 1500.0000 1.0000
30.4400 1470.0000 1.0000
30.4500 1522.0000 1.0000
30.4600 1551.0000 1.0000
30.4700 1538.0000 1.0000
30.4800 1540.0000 1.0000
30.4900 1475.0000 1.0000
30.5000 1511.0000 1.0000
30.5100 1525.0000 1.0000
30.5200 1562.0000 1.0000
30.5300 1487.0000 1.0000
30.5400 1490.0000 1.0000
30.5500 1502.0000 1.0000
30.5600 1533.0000 1.0000
30.5700 1518.0000 1.0000
30.5800 1470.0000 1.0000
30.5900 1475.0000 1.0000
30.6000 1541.0000 1.0000
30.6100 1557.0000 1.0000
30.6200 1571.0000 1.0000
30.6300 1494.0000 1.0000
30.6400 1467.0000 1.0000
30.6500 1521.0000 1.0000
30.6600 1510.0000 1.0000
30.6700 1476.0000 1.0000
30.6800 1519.0000 1.0000
30.6900 1518.0000 1.0000
30.7000 1538.0000 1.0000
30.7100 1496.0000 1.0000
30.7200 1500.0000 1.0000
30.7300 1455.0000 1.0000
30.7400 1578.0000 1.0000
30.7500 1483.0000 1.0000
30.7600 1469.0000 1.0000
30.7700 1474.0000 1.0000
30.7800 1495.0000 1.0000
30.7900 1452.0000 1.0000
30.8000 1513.0000 1.0000
30.8100 1496.0000 1.0000
30.8200 1499.0000 1.0000
30.8300 1419.0000 1.0000
30.8400 1518.0000 1.0000
30.8500 1516.0000 1.0000
30.8600 1509.0000 1.0000
30.8700 1442.0000 1.0000
30.8800 1465.0000 1.0000
30.8900 1510.0000 1.0000
30.9000 1473.0000 1.0000
30.9100 1525.0000 1.0000
30.9200 1508.0000 1.0000
30.9300 1531.0000 1.0000
30.9400 1478.0000 1.0000
30.9500 1491.0000 1.0000
30.9600 1450.0000 1.0000
30.9700 1506.0000 1.0000
30.9800 1495.0000 1.0000
30.9900 1469.0000 1.0000
31.0000 1468.0000 1.0000
31.0100 1459.0000 1.0000
31.0200 1463.0000 1.0000
31.0300 1486.0000 1.0000
31.0400 1524.0000 1.0000
31.0500 1447.0000 1.0000
31.0600 1482.0000 1.0000
31.0700 1487.0000 1.0000
31.0800 1495.0000 1.0000
31.0900 1533.0000 1.0000
31.1000 1483.0000 1.0000
31.1100 1519.0000 1.0000
31.1200 1482.0000 1.0000
31.1300 1423.0000 1.0000
31.1400 1483.0000 1.0000
31.1500 1562.0000 1.0000
31.1600 1478.0000 1.0000
31.1700 1487.0000 1.0000
31.1800 1522.0000 1.0000
31.1900 1485.0000 1.0000
31.2000 1501.0000 1.0000
31.2100 1509.0000 1.0000
31.2200 1486.0000 1.0000
31.2300 1515.0000 1.0000
31.2400 1462.0000 1.0000
31.2500 1513.0000 1.0000
31.2600 1449.0000 1.0000
31.2700 1465.0000 1.0000
31.2800 1508.0000 1.0000
31.2900 1505.0000 1.0000
31.3000 1525.0000 1.0000
31.3100 1482.0000 1.0000
31.3200 1469.0000 1.0000
31.3300 1493.0000 1.0000
31.3400 1506.0000 1.0000
31.3500 1475.0000 1.0000
31.3600 1443.0000 1.0000
31.3700 1494.0000 1.0000
31.3800 1438.0000 1.0000
31.3900 1465.0000 1.0000
31.4000 1460.0000 1.0000
31.4100 1524.0000 1.0000
31.4200 1468.0000 1.0000
31.4300 1493.0000 1.0000
31.4400 1554.0000 1.0000
31.4500 1518.0000 1.0000
31.4600 1469.0000 1.0000
31.4700 1399.0000 1.0000
31.4800 1452.0000 1.0000
31.4900 1518.0000 1.0000
31.5000 1444.0000 1.0000
31.5100 1469.0000 1.0000
31.5200 1503.0000 1.0000
31.5300 1496.0000 1.0000
31.5400 1492.0000 1.0000
31.5500 1456.0000 1.0000
31.5600 1529.0000 1.0000
31.5700 1449.0000 1.0000
31.5800 1477.0000 1.0000
31.5900 1456.0000 1.0000
31.6000 1469.0000 1.0000
31.6100 1543.0000 1.0000
31.6200 1439.0000 1.0000
31.6300 1434.0000 1.0000
31.6400 1442.0000 1.0000
31.6500 1476.0000 1.0000
31.6600 1437.0000 1.0000
31.6700 1428.0000 1.0000
31.6800 1437.0000 1.0000
31.6900 1395.0000 1.0000
31.7000 1420.0000 1.0000
31.7100 1450.0000 1.0000
31.7200 1465.0000 1.0000
31.7300 1462.0000 1.0000
31.7400 1474.0000 1.0000
31.7500 1437.0000 1.0000
31.7600 1448.0000 1.0000
31.7700 1437.0000 1.0000
31.7800 1453.0000 1.0000
31.7900 1487.0000 1.0000
31.8000 1473.0000 1.0000
31.8100 1419.0000 1.0000
31.8200 1448.0000 1.0000
31.8300 1426.0000 1.0000
31.8400 1433.0000 1.0000
31.8500 1434.0000 1.0000
31.8600 1452.0000 1.0000
31.8700 1453.0000 1.0000
31.8800 1487.0000 1.0000
31.8900 1468.0000 1.0000
31.9000 1437.0000 1.0000
31.9100 1459.0000 1.0000
31.9200 1534.0000 1.0000
31.9300 1496.0000 1.0000
31.9400 1478.0000 1.0000
31.9500 1502.0000 1.0000
31.9600 1452.0000 1.0000
31.9700 1463.0000 1.0000
31.9800 1466.0000 1.0000
31.9900 1418.0000 1.0000
32.0000 1440.0000 1.0000
32.0100 1445.0000 1.0000
32.0200 1467.0000 1.0000
32.0300 1442.0000 1.0000
32.0400 1479.0000 1.0000
32.0500 1524.0000 1.0000
32.0600 1450.0000 1.0000
32.0700 1441.0000 1.0000
32.0800 1427.0000 1.0000
32.0900 1376.0000 1.0000
32.1000 1401.0000 1.0000
32.1100 1447.0000 1.0000
32.1200 1462.0000 1.0000
32.1300 1475.0000 1.0000
32.1400 1518.0000 1.0000
32.1500 1446.0000 1.0000
32.1600 1412.0000 1.0000
32.1700 1479.0000 1.0000
32.1800 1476.0000 1.0000
32.1900 1407.0000 1.0000
32.2000 1492.0000 1.0000
32.2100 1465.0000 1.0000
32.2200 1433.0000 1.0000
32.2300 1428.0000 1.0000
32.2400 1470.0000 1.0000
32.2500 1463.0000 1.0000
32.2600 1425.0000 1.0000
32.2700 1394.0000 1.0000
32.2800 1432.0000 1.0000
32.2900 1433.0000 1.0000
32.3000 1408.0000 1.0000
32.3100 1441.0000 1.0000
32.3200 1405.0000 1.0000
32.3300 1486.0000 1.0000
32.3400 1469.0000 1.0000
32.3500 1440.0000 1.0000
32.3600 1417.0000 1.0000
32.3700 1398.0000 1.0000
32.3800 1375.0000 1.0000
32.3900 1373.0000 1.0000
32.4000 1390.0000 1.0000
32.4100 1442.0000 1.0000
32.4200 1388.0000 1.0000
32.4300 1446.0000 1.0000
32.4400 1421.0000 1.0000
32.4500 1408.0000 1.0000
32.4600 1450.0000 1.0000
32.4700 1457.0000 1.0000
32.4800 1426.0000 1.0000
32.4900 1397.0000 1.0000
32.5000 1375.0000 1.0000
32.5100 1403.0000 1.0000
32.5200 1406.0000 1.0000
32.5300 1380.0000 1.0000
32.5400 1379.0000 1.0000
32.5500 1377.0000 1.0000
32.5600 1378.0000 1.0000
32.5700 1436.0000 1.0000
32.5800 1426.0000 1.0000
32.5900 1450.0000 1.0000
32.6000 1395.0000 1.0000
32.6100 1426.0000 1.0000
32.6200 1419.0000 1.0000
32.6300 1445.0000 1.0000
32.6400 1389.0000 1.0000
32.6500 1403.0000 1.0000
32.6600 1432.0000 1.0000
32.6700 1410.0000 1.0000
32.6800 1420.0000 1.0000
32.6900 1416.0000 1.0000
32.7000 1422.0000 1.0000
32.7100 1411.0000 1.0000
32.7200 1404.0000 1.0000
32.7300 1381.0000 1.0000
32.7400 1430.0000 1.0000
32.7500 1422.0000 1.0000
32.7600 1388.0000 1.0000
32.7700 1423.0000 1.0000
32.7800 1355.0000 1.0000
32.7900 1402.0000 1.0000
32.8000 1410.0000 1.0000
32.8100 1460.0000 1.0000
32.8200 1420.0000 1.0000
32.8300 1414.0000 1.0000
32.8400 1421.0000 1.0000
32.8500 1371.0000 1.0000
32.8600 1383.0000 1.0000
32.8700 1431.0000 1.0000
32.8800 1383.0000 1.0000
32.8900 1414.0000 1.0000
32.9000 1402.0000 1.0000
32.9100 1336.0000 1.0000
32.9200 1355.0000 1.0000
32.9300 1349.0000 1.0000
32.9400 1358.0000 1.0000
32.9500 1352.0000 1.0000
32.9600 1419.0000 1.0000
32.9700 1354.0000 1.0000
32.9800 1395.0000 1.0000
32.9900 1389.0000 1.0000
33.0000 1354.0000 1.0000
33.0100 1424.0000 1.0000
33.0200 1423.0000 1.0000
33.0300 1384.0000 1.0000
33.0400 1386.0000 1.0000
33.0500 1317.0000 1.0000
33.0600 1353.0000 1.0000
33.0700 1401.0000 1.0000
33.0800 1395.0000 1.0000
33.0900 1377.0000 1.0000
33.1000 1370.0000 1.0000
33.1100 1415.0000 1.0000
33.1200 1359.0000 1.0000
33.1300 1407.0000 1.0000
33.1400 1319.0000 1.0000
33.1500 1397.0000 1.0000
33.1600 1409.0000 1.0000
33.1700 1427.0000 1.0000
33.1800 1369.0000 1.0000
33.1900 1308.0000 1.0000
33.2000 1351.0000 1.0000
33.2100 1375.0000 1.0000
33.2200 1374.0000 1.0000
33.2300 1367.0000 1.0000
33.2400 1370.0000 1.0000
33.2500 1343.0000 1.0000
33.2600 1374.0000 1.0000
33.2700 1380.0000 1.0000
33.2800 1381.0000 1.0000
33.2900 1407.0000 1.0000
33.3000 1361.0000 1.0000
33.3100 1347.0000 1.0000
33.3200 1408.0000 1.0000
33.3300 1325.0000 1.0000
33.3400 1362.0000 1.0000
33.3500 1346.0000 1.0000
33.3600 1328.0000 1.0000
33.3700 1363.0000 1.0000
33.3800 1397.0000 1.0000
33.3900 1358.0000 1.0000
33.4000 1398.0000 1.0000
33.4100 1362.0000 1.0000
33.4200 1380.0000 1.0000
33.4300 1362.0000 1.0000
33.4400 1338.0000 1.0000
33.4500 1375.0000 1.0000
33.4600 1385.0000 1.0000
33.4700 1416.0000 1.0000
33.4800 1391.0000 1.0000
33.4900 1372.0000 1.0000
33.5000 1426.0000 1.0000
33.5100 1356.0000 1.0000
33.5200 1380.0000 1.0000
33.5300 1384.0000 1.0000
33.5400 1369.0000 1.0000
33.5500 1381.0000 1.0000
33.5600 1349.0000 1.0000
33.5700 1411.0000 1.0000
33.5800 1387.0000 1.0000
33.5900 1377.0000 1.0000
33.6000 1426.0000 1.0000
33.6100 1390.0000 1.0000
33.6200 1396.0000 1.0000
33.6300 1371.0000 1.0000
33.6400 1329.0000 1.0000
33.6500 1377.0000 1.0000
33.6600 1419.0000 1.0000
33.6700 1392.0000 1.0000
33.6800 1430.0000 1.0000
33.6900 1424.0000 1.0000
33.7000 1468.0000 1.0000
33.7100 1432.0000 1.0000
33.7200 1344.0000 1.0000
33.7300 1385.0000 1.0000
33.7400 1401.0000 1.0000
33.7500 1451.0000 1.0000
33.7600 1376.0000 1.0000
33.7700 1395.0000 1.0000
33.7800 1457.0000 1.0000
33.7900 1461.0000 1.0000
33.8000 1490.0000 1.0000
33.8100 1509.0000 1.0000
33.8200 1489.0000 1.0000
33.8300 1438.0000 1.0000
33.8400 1474.0000 1.0000
33.8500 1466.0000 1.0000
33.8600 1483.0000 1.0000
33.8700 1525.0000 1.0000
33.8800 1607.0000 1.0000
33.8900 1555.0000 1.0000
33.9000 1572.0000 1.0000
33.9100 1611.0000 1.0000
33.9200 1575.0000 1.0000
33.9300 1581.0000 1.0000
33.9400 1562.0000 1.0000
33.9500 1586.0000 1.0000
33.9600 1554.0000 1.0000
33.9700 1580.0000 1.0000
33.9800 1619.0000 1.0000
33.9900 1649.0000 1.0000
34.0000 1633.0000 1.0000
34.0100 1551.0000 1.0000
34.0200 1602.0000 1.0000
34.0300 1626.0000 1.0000
34.0400 1574.0000 1.0000
34.0500 1542.0000 1.0000
34.0600 1481.0000 1.0000
34.0700 1458.0000 1.0000
34.0800 1556.0000 1.0000
34.0900 1501.0000 1.0000
34.1000 1510.0000 1.0000
34.1100 1555.0000 1.0000
34.1200 1561.0000 1.0000
34.1300 1502.0000 1.0000
34.1400 1539.0000 1.0000
34.1500 1570.0000 1.0000
34.1600 1521.0000 1.0000
34.1700 1531.0000 1.0000
34.1800 1580.0000 1.0000
34.1900 1601.0000 1.0000
34.2000 1646.0000 1.0000
34.2100 1587.0000 1.0000
34.2200 1581.0000 1.0000
34.2300 1552.0000 1.0000
34.2400 1694.0000 1.0000
34.2500 1641.0000 1.0000
34.2600 1663.0000 1.0000
34.2700 1743.0000 1.0000
34.2800 1766.0000 1.0000
34.2900 1800.0000 1.0000
34.3000 1818.0000 1.0000
34.3100 1784.0000 1.0000
34.3200 1975.0000 1.0000
34.3300 1961.0000 1.0000
34.3400 1948.0000 1.0000
34.3500 2059.0000 1.0000
34.3600 2101.0000 1.0000
34.3700 2120.0000 1.0000
34.3800 2257.0000 1.0000
34.3900 2421.0000 1.0000
34.4000 2433.0000 1.0000
34.4100 2493.0000 1.0000
34.4200 2615.0000 1.0000
34.4300 2764.0000 1.0000
34.4400 2792.0000 1.0000
34.4500 2931.0000 1.0000
34.4600 3014.0000 1.0000
34.4700 3091.0000 1.0000
34.4800 3157.0000 1.0000
34.4900 3162.0000 1.0000
34.5000 3288.0000 1.0000
34.5100 3111.0000 1.0000
34.5200 3175.0000 1.0000
34.5300 3146.0000 1.0000
34.5400 3109.0000 1.0000
34.5500 3072.0000 1.0000
34.5600 3006.0000 1.0000
34.5700 2858.0000 1.0000
34.5800 2797.0000 1.0000
34.5900 2746.0000 1.0000
34.6000 2663.0000 1.0000
34.6100 2546.0000 1.0000
34.6200 2509.0000 1.0000
34.6300 2390.0000 1.0000
34.6400 2287.0000 1.0000
34.6500 2217.0000 1.0000
34.6600 2172.0000 1.0000
34.6700 2076.0000 1.0000
34.6800 2104.0000 1.0000
34.6900 1984.0000 1.0000
34.7000 1893.0000 1.0000
34.7100 1877.0000 1.0000
34.7200 1830.0000 1.0000
34.7300 1847.0000 1.0000
34.7400 1787.0000 1.0000
34.7500 1709.0000 1.0000
34.7600 1643.0000 1.0000
34.7700 1669.0000 1.0000
34.7800 1686.0000 1.0000
34.7900 1669.0000 1.0000
34.8000 1637.0000 1.0000
34.8100 1580.0000 1.0000
34.8200 1568.0000 1.0000
34.8300 1553.0000 1.0000
34.8400 1510.0000 1.0000
34.8500 1530.0000 1.0000
34.8600 1544.0000 1.0000
34.8700 1479.0000 1.0000
34.8800 1455.0000 1.0000
34.8900 1415.0000 1.0000
34.9000 1378.0000 1.0000
34.9100 1350.0000 1.0000
34.9200 1400.0000 1.0000
34.9300 1408.0000 1.0000
34.9400 1392.0000 1.0000
34.9500 1392.0000 1.0000
34.9600 1365.0000 1.0000
34.9700 1405.0000 1.0000
34.9800 1388.0000 1.0000
34.9900 1320.0000 1.0000
35.0000 1357.0000 1.0000
35.0100 1350.0000 1.0000
35.0200 1305.0000 1.0000
35.0300 1345.0000 1.0000
35.0400 1360.0000 1.0000
35.0500 1307.0000 1.0000
35.0600 1358.0000 1.0000
35.0700 1349.0000 1.0000
35.0800 1268.0000 1.0000
35.0900 1306.0000 1.0000
35.1000 1316.0000 1.0000
35.1100 1276.0000 1.0000
35.1200 1266.0000 1.0000
35.1300 1349.0000 1.0000
35.1400 1300.0000 1.0000
35.1500 1266.0000 1.0000
35.1600 1266.0000 1.0000
35.1700 1342.0000 1.0000
35.1800 1307.0000 1.0000
35.1900 1225.0000 1.0000
35.2000 1277.0000 1.0000
35.2100 1266.0000 1.0000
35.2200 1267.0000 1.0000
35.2300 1256.0000 1.0000
35.2400 1224.0000 1.0000
35.2500 1276.0000 1.0000
35.2600 1186.0000 1.0000
35.2700 1280.0000 1.0000
35.2800 1295.0000 1.0000
35.2900 1252.0000 1.0000
35.3000 1249.0000 1.0000
35.3100 1264.0000 1.0000
35.3200 1278.0000 1.0000
35.3300 1222.0000 1.0000
35.3400 1247.0000 1.0000
35.3500 1213.0000 1.0000
35.3600 1258.0000 1.0000
35.3700 1261.0000 1.0000
35.3800 1314.0000 1.0000
35.3900 1208.0000 1.0000
35.4000 1218.0000 1.0000
35.4100 1199.0000 1.0000
35.4200 1205.0000 1.0000
35.4300 1228.0000 1.0000
35.4400 1213.0000 1.0000
35.4500 1206.0000 1.0000
35.4600 1189.0000 1.0000
35.4700 1258.0000 1.0000
35.4800 1183.0000 1.0000
35.4900 1206.0000 1.0000
35.5000 1250.0000 1.0000
35.5100 1236.0000 1.0000
35.5200 1207.0000 1.0000
35.5300 1125.0000 1.0000
35.5400 1189.0000 1.0000
35.5500 1197.0000 1.0000
35.5600 1249.0000 1.0000
35.5700 1209.0000 1.0000
35.5800 1182.0000 1.0000
35.5900 1208.0000 1.0000
35.6000 1228.0000 1.0000
35.6100 1229.0000 1.0000
35.6200 1228.0000 1.0000
35.6300 1138.0000 1.0000
35.6400 1176.0000 1.0000
35.6500 1200.0000 1.0000
35.6600 1158.0000 1.0000
35.6700 1170.0000 1.0000
35.6800 1193.0000 1.0000
35.6900 1220.0000 1.0000
35.7000 1197.0000 1.0000
35.7100 1237.0000 1.0000
35.7200 1187.0000 1.0000
35.7300 1194.0000 1.0000
35.7400 1181.0000 1.0000
35.7500 1182.0000 1.0000
35.7600 1190.0000 1.0000
35.7700 1187.0000 1.0000
35.7800 1206.0000 1.0000
35.7900 1127.0000 1.0000
35.8000 1143.0000 1.0000
35.8100 1190.0000 1.0000
35.8200 1099.0000 1.0000
35.8300 1156.0000 1.0000
35.8400 1181.0000 1.0000
35.8500 1219.0000 1.0000
35.8600 1193.0000 1.0000
35.8700 1164.0000 1.0000
35.8800 1178.0000 1.0000
35.8900 1196.0000 1.0000
35.9000 1184.0000 1.0000
35.9100 1125.0000 1.0000
35.9200 1171.0000 1.0000
35.9300 1260.0000 1.0000
35.9400 1214.0000 1.0000
35.9500 1249.0000 1.0000
35.9600 1196.0000 1.0000
35.9700 1203.0000 1.0000
35.9800 1184.0000 1.0000
35.9900 1168.0000 1.0000
36.0000 1182.0000 1.0000
36.0100 1175.0000 1.0000
36.0200 1156.0000 1.0000
36.0300 1134.0000 1.0000
36.0400 1188.0000 1.0000
36.0500 1177.0000 1.0000
36.0600 1185.0000 1.0000
36.0700 1160.0000 1.0000
36.0800 1202.0000 1.0000
36.0900 1212.0000 1.0000
36.1000 1218.0000 1.0000
36.1100 1224.0000 1.0000
36.1200 1269.0000 1.0000
36.1300 1219.0000 1.0000
36.1400 1290.0000 1.0000
36.1500 1215.0000 1.0000
36.1600 1201.0000 1.0000
36.1700 1210.0000 1.0000
36.1800 1261.0000 1.0000
36.1900 1268.0000 1.0000
36.2000 1196.0000 1.0000
36.2100 1292.0000 1.0000
36.2200 1277.0000 1.0000
36.2300 1294.0000 1.0000
36.2400 1340.0000 1.0000
36.2500 1372.0000 1.0000
36.2600 1401.0000 1.0000
36.2700 1417.0000 1.0000
36.2800 1409.0000 1.0000
36.2900 1535.0000 1.0000
36.3000 1554.0000 1.0000
36.3100 1592.0000 1.0000
36.3200 1603.0000 1.0000
36.3300 1716.0000 1.0000
36.3400 1849.0000 1.0000
36.3500 1814.0000 1.0000
36.3600 1898.0000 1.0000
36.3700 1951.0000 1.0000
36.3800 1999.0000 1.0000
36.3900 2189.0000 1.0000
36.4000 2166.0000 1.0000
36.4100 2157.0000 1.0000
36.4200 2217.0000 1.0000
36.4300 2181.0000 1.0000
36.4400 2127.0000 1.0000
36.4500 2015.0000 1.0000
36.4600 2006.0000 1.0000
36.4700 1951.0000 1.0000
36.4800 1857.0000 1.0000
36.4900 1805.0000 1.0000
36.5000 1835.0000 1.0000
36.5100 1770.0000 1.0000
36.5200 1706.0000 1.0000
36.5300 1693.0000 1.0000
36.5400 1598.0000 1.0000
36.5500 1546.0000 1.0000
36.5600 1479.0000 1.0000
36.5700 1391.0000 1.0000
36.5800 1412.0000 1.0000
36.5900 1384.0000 1.0000
36.6000 1293.0000 1.0000
36.6100 1282.0000 1.0000
36.6200 1219.0000 1.0000
36.6300 1184.0000 1.0000
36.6400 1200.0000 1.0000
36.6500 1251.0000 1.0000
36.6600 1232.0000 1.0000
36.6700 1182.0000 1.0000
36.6800 1170.0000 1.0000
36.6900 1122.0000 1.0000
36.7000 1120.0000 1.0000
36.7100 1126.0000 1.0000
36.7200 1116.0000 1.0000
36.7300 1175.0000 1.0000
36.7400 1094.0000 1.0000
36.7500 1063.0000 1.0000
36.7600 1111.0000 1.0000
36.7700 1074.0000 1.0000
36.7800 1053.0000 1.0000
36.7900 1065.0000 1.0000
36.8000 1098.0000 1.0000
36.8100 1136.0000 1.0000
36.8200 1123.0000 1.0000
36.8300 1105.0000 1.0000
36.8400 1079.0000 1.0000
36.8500 1070.0000 1.0000
36.8600 1087.0000 1.0000
36.8700 1108.0000 1.0000
36.8800 1066.0000 1.0000
36.8900 1095.0000 1.0000
36.9000 1105.0000 1.0000
36.9100 1096.0000 1.0000
36.9200 1095.0000 1.0000
36.9300 1056.0000 1.0000
36.9400 1100.0000 1.0000
36.9500 1074.0000 1.0000
36.9600 1086.0000 1.0000
36.9700 1081.0000 1.0000
36.9800 1117.0000 1.0000
36.9900 1131.0000 1.0000
37.0000 1106.0000 1.0000
37.0100 1083.0000 1.0000
37.0200 1113.0000 1.0000
37.0300 1097.0000 1.0000
37.0400 1067.0000 1.0000
37.0500 1062.0000 1.0000
37.0600 1108.0000 1.0000
37.0700 1065.0000 1.0000
37.0800 1038.0000 1.0000
37.0900 1078.0000 1.0000
37.1000 1051.0000 1.0000
37.1100 1055.0000 1.0000
37.1200 1084.0000 1.0000
37.1300 1144.0000 1.0000
37.1400 1135.0000 1.0000
37.1500 1081.0000 1.0000
37.1600 1083.0000 1.0000
37.1700 1087.0000 1.0000
37.1800 1070.0000 1.0000
37.1900 1068.0000 1.0000
37.2000 1080.0000 1.0000
37.2100 1095.0000 1.0000
37.2200 1037.0000 1.0000
37.2300 1052.0000 1.0000
37.2400 1056.0000 1.0000
37.2500 1020.0000 1.0000
37.2600 1093.0000 1.0000
37.2700 1131.0000 1.0000
37.2800 1139.0000 1.0000
37.2900 1093.0000 1.0000
37.3000 1158.0000 1.0000
37.3100 1119.0000 1.0000
37.3200 1153.0000 1.0000
37.3300 1080.0000 1.0000
37.3400 1114.0000 1.0000
37.3500 1107.0000 1.0000
37.3600 1131.0000 1.0000
37.3700 1091.0000 1.0000
37.3800 1094.0000 1.0000
37.3900 1043.0000 1.0000
37.4000 1070.0000 1.0000
37.4100 1090.0000 1.0000
37.4200 1100.0000 1.0000
37.4300 1066.0000 1.0000
37.4400 1094.0000 1.0000
37.4500 1043.0000 1.0000
37.4600 1096.0000 1.0000
37.4700 1105.0000 1.0000
37.4800 1118.0000 1.0000
37.4900 1070.0000 1.0000
37.5000 1110.0000 1.0000
37.5100 1102.0000 1.0000
37.5200 1034.0000 1.0000
37.5300 1080.0000 1.0000
37.5400 1080.0000 1.0000
37.5500 1051.0000 1.0000
37.5600 1041.0000 1.0000
37.5700 1067.0000 1.0000
37.5800 1062.0000 1.0000
37.5900 1080.0000 1.0000
37.6000 1056.0000 1.0000
37.6100 1047.0000 1.0000
37.6200 1048.0000 1.0000
37.6300 1117.0000 1.0000
37.6400 1069.0000 1.0000
37.6500 1090.0000 1.0000
37.6600 1096.0000 1.0000
37.6700 1145.0000 1.0000
37.6800 1114.0000 1.0000
37.6900 1111.0000 1.0000
37.7000 1079.0000 1.0000
37.7100 1056.0000 1.0000
37.7200 1086.0000 1.0000
37.7300 1066.0000 1.0000
37.7400 1051.0000 1.0000
37.7500 1121.0000 1.0000
37.7600 1093.0000 1.0000
37.7700 1054.0000 1.0000
37.7800 1117.0000 1.0000
37.7900 1125.0000 1.0000
37.8000 1126.0000 1.0000
37.8100 1147.0000 1.0000
37.8200 1119.0000 1.0000
37.8300 1145.0000 1.0000
37.8400 1148.0000 1.0000
37.8500 1116.0000 1.0000
37.8600 1124.0000 1.0000
37.8700 1083.0000 1.0000
37.8800 1098.0000 1.0000
37.8900 1136.0000 1.0000
37.9000 1090.0000 1.0000
37.9100 1089.0000 1.0000
37.9200 1140.0000 1.0000
37.9300 1120.0000 1.0000
37.9400 1137.0000 1.0000
37.9500 1094.0000 1.0000
37.9600 1106.0000 1.0000
37.9700 1098.0000 1.0000
37.9800 1153.0000 1.0000
37.9900 1184.0000 1.0000
38.0000 1228.0000 1.0000
38.0100 1156.0000 1.0000
38.0200 1182.0000 1.0000
38.0300 1171.0000 1.0000
38.0400 1192.0000 1.0000
38.0500 1183.0000 1.0000
38.0600 1176.0000 1.0000
38.0700 1202.0000 1.0000
38.0800 1227.0000 1.0000
38.0900 1206.0000 1.0000
38.1000 1236.0000 1.0000
38.1100 1239.0000 1.0000
38.1200 1229.0000 1.0000
38.1300 1364.0000 1.0000
38.1400 1289.0000 1.0000
38.1500 1281.0000 1.0000
38.1600 1340.0000 1.0000
38.1700 1388.0000 1.0000
38.1800 1381.0000 1.0000
38.1900 1430.0000 1.0000
38.2000 1457.0000 1.0000
38.2100 1486.0000 1.0000
38.2200 1550.0000 1.0000
38.2300 1588.0000 1.0000
38.2400 1625.0000 1.0000
38.2500 1715.0000 1.0000
38.2600 1737.0000 1.0000
38.2700 1786.0000 1.0000
38.2800 1819.0000 1.0000
38.2900 1911.0000 1.0000
38.3000 1955.0000 1.0000
38.3100 2075.0000 1.0000
38.3200 2165.0000 1.0000
38.3300 2243.0000 1.0000
38.3400 2338.0000 1.0000
38.3500 2431.0000 1.0000
38.3600 2628.0000 1.0000
38.3700 2811.0000 1.0000
38.3800 2927.0000 1.0000
38.3900 3220.0000 1.0000
38.4000 3231.0000 1.0000
38.4100 3466.0000 1.0000
38.4200 3762.0000 1.0000
38.4300 4053.0000 1.0000
38.4400 4402.0000 1.0000
38.4500 4596.0000 1.0000
38.4600 4920.0000 1.0000
38.4700 5268.0000 1.0000
38.4800 5654.0000 1.0000
38.4900 5914.0000 1.0000
38.5000 6185.0000 1.0000
38.5100 6459.0000 1.0000
38.5200 6509.0000 1.0000
38.5300 6951.0000 1.0000
38.5400 7040.0000 1.0000
38.5500 7163.0000 1.0000
38.5600 7186.0000 1.0000
38.5700 7012.0000 1.0000
38.5800 7063.0000 1.0000
38.5900 6870.0000 1.0000
38.6000 6721.0000 1.0000
38.6100 6515.0000 1.0000
38.6200 6378.0000 1.0000
38.6300 5945.0000 1.0000
38.6400 5791.0000 1.0000
38.6500 5533.0000 1.0000
38.6600 5334.0000 1.0000
38.6700 5017.0000 1.0000
38.6800 4664.0000 1.0000
38.6900 4431.0000 1.0000
38.7000 4156.0000 1.0000
38.7100 3844.0000 1.0000
38.7200 3564.0000 1.0000
38.7300 3336.0000 1.0000
38.7400 3067.0000 1.0000
38.7500 2844.0000 1.0000
38.7600 2730.0000 1.0000
38.7700 2611.0000 1.0000
38.7800 2414.0000 1.0000
38.7900 2327.0000 1.0000
38.8000 2169.0000 1.0000
38.8100 2109.0000 1.0000
38.8200 1897.0000 1.0000
38.8300 1883.0000 1.0000
38.8400 1820.0000 1.0000
38.8500 1800.0000 1.0000
38.8600 1655.0000 1.0000
38.8700 1604.0000 1.0000
38.8800 1512.0000 1.0000
38.8900 1460.0000 1.0000
38.9000 1460.0000 1.0000
38.9100 1462.0000 1.0000
38.9200 1378.0000 1.0000
38.9300 1332.0000 1.0000
38.9400 1234.0000 1.0000
38.9500 1268.0000 1.0000
38.9600 1272.0000 1.0000
38.9700 1216.0000 1.0000
38.9800 1234.0000 1.0000
38.9900 1155.0000 1.0000
39.0000 1232.0000 1.0000
39.0100 1197.0000 1.0000
39.0200 1142.0000 1.0000
39.0300 1197.0000 1.0000
39.0400 1160.0000 1.0000
39.0500 1122.0000 1.0000
39.0600 1118.0000 1.0000
39.0700 1095.0000 1.0000
39.0800 1094.0000 1.0000
39.0900 1100.0000 1.0000
39.1000 1052.0000 1.0000
39.1100 1087.0000 1.0000
39.1200 1142.0000 1.0000
39.1300 1072.0000 1.0000
39.1400 1059.0000 1.0000
39.1500 1050.0000 1.0000
39.1600 1074.0000 1.0000
39.1700 1055.0000 1.0000
39.1800 1034.0000 1.0000
39.1900 1055.0000 1.0000
39.2000 1040.0000 1.0000
39.2100 1015.0000 1.0000
39.2200 1083.0000 1.0000
39.2300 1037.0000 1.0000
39.2400 1021.0000 1.0000
39.2500 1041.0000 1.0000
39.2600 1040.0000 1.0000
39.2700 1005.0000 1.0000
39.2800 1038.0000 1.0000
39.2900 1021.0000 1.0000
39.3000 1067.0000 1.0000
39.3100 972.0000 1.0000
39.3200 995.0000 1.0000
39.3300 994.0000 1.0000
39.3400 1016.0000 1.0000
39.3500 999.0000 1.0000
39.3600 1017.0000 1.0000
39.3700 1060.0000 1.0000
39.3800 1040.0000 1.0000
39.3900 1073.0000 1.0000
39.4000 1031.0000 1.0000
39.4100 998.0000 1.0000
39.4200 1033.0000 1.0000
39.4300 1047.0000 1.0000
39.4400 1057.0000 1.0000
39.4500 985.0000 1.0000
39.4600 1027.0000 1.0000
39.4700 1059.0000 1.0000
39.4800 1023.0000 1.0000
39.4900 1015.0000 1.0000
39.5000 1013.0000 1.0000
39.5100 1018.0000 1.0000
39.5200 1015.0000 1.0000
39.5300 1011.0000 1.0000
39.5400 1035.0000 1.0000
39.5500 1047.0000 1.0000
39.5600 1024.0000 1.0000
39.5700 1053.0000 1.0000
39.5800 1018.0000 1.0000
39.5900 1045.0000 1.0000
39.6000 1080.0000 1.0000
39.6100 1014.0000 1.0000
39.6200 979.0000 1.0000
39.6300 980.0000 1.0000
39.6400 1025.0000 1.0000
39.6500 1053.0000 1.0000
39.6600 982.0000 1.0000
39.6700 977.0000 1.0000
39.6800 987.0000 1.0000
39.6900 965.0000 1.0000
39.7000 986.0000 1.0000
39.7100 993.0000 1.0000
39.7200 1058.0000 1.0000
39.7300 968.0000 1.0000
39.7400 950.0000 1.0000
39.7500 1005.0000 1.0000
39.7600 948.0000 1.0000
39.7700 975.0000 1.0000
39.7800 1004.0000 1.0000
39.7900 972.0000 1.0000
39.8000 975.0000 1.0000
39.8100 936.0000 1.0000
39.8200 964.0000 1.0000
39.8300 934.0000 1.0000
39.8400 993.0000 1.0000
39.8500 956.0000 1.0000
39.8600 973.0000 1.0000
39.8700 911.0000 1.0000
39.8800 968.0000 1.0000
39.8900 972.0000 1.0000
39.9000 936.0000 1.0000
39.9100 920.0000 1.0000
39.9200 895.0000 1.0000
39.9300 924.0000 1.0000
39.9400 961.0000 1.0000
39.9500 907.0000 1.0000
39.9600 933.0000 1.0000
39.9700 979.0000 1.0000
39.9800 935.0000 1.0000
39.9900 924.0000 1.0000
40.0000 908.0000 1.0000
40.0100 924.0000 1.0000
40.0200 967.0000 1.0000
40.0300 921.0000 1.0000
40.0400 933.0000 1.0000
40.0500 962.0000 1.0000
40.0600 936.0000 1.0000
40.0700 961.0000 1.0000
40.0800 921.0000 1.0000
40.0900 968.0000 1.0000
40.1000 945.0000 1.0000
40.1100 916.0000 1.0000
40.1200 919.0000 1.0000
40.1300 959.0000 1.0000
40.1400 924.0000 1.0000
40.1500 921.0000 1.0000
40.1600 942.0000 1.0000
40.1700 913.0000 1.0000
40.1800 950.0000 1.0000
40.1900 895.0000 1.0000
40.2000 934.0000 1.0000
40.2100 897.0000 1.0000
40.2200 892.0000 1.0000
40.2300 875.0000 1.0000
40.2400 926.0000 1.0000
40.2500 941.0000 1.0000
40.2600 921.0000 1.0000
40.2700 925.0000 1.0000
40.2800 919.0000 1.0000
40.2900 970.0000 1.0000
40.3000 921.0000 1.0000
40.3100 939.0000 1.0000
40.3200 937.0000 1.0000
40.3300 924.0000 1.0000
40.3400 943.0000 1.0000
40.3500 896.0000 1.0000
40.3600 883.0000 1.0000
40.3700 929.0000 1.0000
40.3800 903.0000 1.0000
40.3900 892.0000 1.0000
40.4000 887.0000 1.0000
40.4100 919.0000 1.0000
40.4200 896.0000 1.0000
40.4300 885.0000 1.0000
40.4400 934.0000 1.0000
40.4500 915.0000 1.0000
40.4600 900.0000 1.0000
40.4700 900.0000 1.0000
40.4800 864.0000 1.0000
40.4900 904.0000 1.0000
40.5000 914.0000 1.0000
40.5100 851.0000 1.0000
40.5200 864.0000 1.0000
40.5300 912.0000 1.0000
40.5400 874.0000 1.0000
40.5500 901.0000 1.0000
40.5600 926.0000 1.0000
40.5700 894.0000 1.0000
40.5800 887.0000 1.0000
40.5900 899.0000 1.0000
40.6000 866.0000 1.0000
40.6100 840.0000 1.0000
40.6200 861.0000 1.0000
40.6300 910.0000 1.0000
40.6400 899.0000 1.0000
40.6500 880.0000 1.0000
40.6600 961.0000 1.0000
40.6700 896.0000 1.0000
40.6800 873.0000 1.0000
40.6900 919.0000 1.0000
40.7000 919.0000 1.0000
40.7100 899.0000 1.0000
40.7200 891.0000 1.0000
40.7300 892.0000 1.0000
40.7400 912.0000 1.0000
40.7500 865.0000 1.0000
40.7600 909.0000 1.0000
40.7700 944.0000 1.0000
40.7800 945.0000 1.0000
40.7900 934.0000 1.0000
40.8000 914.0000 1.0000
40.8100 879.0000 1.0000
40.8200 881.0000 1.0000
40.8300 864.0000 1.0000
40.8400 906.0000 1.0000
40.8500 840.0000 1.0000
40.8600 877.0000 1.0000
40.8700 861.0000 1.0000
40.8800 839.0000 1.0000
40.8900 866.0000 1.0000
40.9000 893.0000 1.0000
40.9100 871.0000 1.0000
40.9200 856.0000 1.0000
40.9300 908.0000 1.0000
40.9400 895.0000 1.0000
40.9500 876.0000 1.0000
40.9600 881.0000 1.0000
40.9700 912.0000 1.0000
40.9800 897.0000 1.0000
40.9900 919.0000 1.0000
41.0000 950.0000 1.0000
41.0100 929.0000 1.0000
41.0200 874.0000 1.0000
41.0300 854.0000 1.0000
41.0400 909.0000 1.0000
41.0500 881.0000 1.0000
41.0600 888.0000 1.0000
41.0700 864.0000 1.0000
41.0800 890.0000 1.0000
41.0900 884.0000 1.0000
41.1000 879.0000 1.0000
41.1100 925.0000 1.0000
41.1200 868.0000 1.0000
41.1300 863.0000 1.0000
41.1400 885.0000 1.0000
41.1500 888.0000 1.0000
41.1600 864.0000 1.0000
41.1700 895.0000 1.0000
41.1800 857.0000 1.0000
41.1900 922.0000 1.0000
41.2000 887.0000 1.0000
41.2100 899.0000 1.0000
41.2200 865.0000 1.0000
41.2300 891.0000 1.0000
41.2400 878.0000 1.0000
41.2500 945.0000 1.0000
41.2600 852.0000 1.0000
41.2700 867.0000 1.0000
41.2800 858.0000 1.0000
41.2900 876.0000 1.0000
41.3000 884.0000 1.0000
41.3100 883.0000 1.0000
41.3200 859.0000 1.0000
41.3300 910.0000 1.0000
41.3400 906.0000 1.0000
41.3500 879.0000 1.0000
41.3600 893.0000 1.0000
41.3700 888.0000 1.0000
41.3800 888.0000 1.0000
41.3900 851.0000 1.0000
41.4000 825.0000 1.0000
41.4100 867.0000 1.0000
41.4200 928.0000 1.0000
41.4300 875.0000 1.0000
41.4400 840.0000 1.0000
41.4500 870.0000 1.0000
41.4600 889.0000 1.0000
41.4700 881.0000 1.0000
41.4800 843.0000 1.0000
41.4900 925.0000 1.0000
41.5000 929.0000 1.0000
41.5100 917.0000 1.0000
41.5200 881.0000 1.0000
41.5300 858.0000 1.0000
41.5400 880.0000 1.0000
41.5500 930.0000 1.0000
41.5600 921.0000 1.0000
41.5700 913.0000 1.0000
41.5800 900.0000 1.0000
41.5900 873.0000 1.0000
41.6000 905.0000 1.0000
41.6100 938.0000 1.0000
41.6200 976.0000 1.0000
41.6300 867.0000 1.0000
41.6400 977.0000 1.0000
41.6500 941.0000 1.0000
41.6600 888.0000 1.0000
41.6700 904.0000 1.0000
41.6800 891.0000 1.0000
41.6900 912.0000 1.0000
41.7000 919.0000 1.0000
41.7100 865.0000 1.0000
41.7200 885.0000 1.0000
41.7300 919.0000 1.0000
41.7400 905.0000 1.0000
41.7500 903.0000 1.0000
41.7600 890.0000 1.0000
41.7700 924.0000 1.0000
41.7800 956.0000 1.0000
41.7900 911.0000 1.0000
41.8000 932.0000 1.0000
41.8100 877.0000 1.0000
41.8200 891.0000 1.0000
41.8300 880.0000 1.0000
41.8400 937.0000 1.0000
41.8500 936.0000 1.0000
41.8600 904.0000 1.0000
41.8700 925.0000 1.0000
41.8800 913.0000 1.0000
41.8900 880.0000 1.0000
41.9000 822.0000 1.0000
41.9100 833.0000 1.0000
41.9200 922.0000 1.0000
41.9300 902.0000 1.0000
41.9400 894.0000 1.0000
41.9500 905.0000 1.0000
41.9600 871.0000 1.0000
41.9700 910.0000 1.0000
41.9800 871.0000 1.0000
41.9900 926.0000 1.0000
42.0000 847.0000 1.0000
42.0100 893.0000 1.0000
42.0200 869.0000 1.0000
42.0300 898.0000 1.0000
42.0400 829.0000 1.0000
42.0500 898.0000 1.0000
42.0600 904.0000 1.0000
42.0700 884.0000 1.0000
42.0800 875.0000 1.0000
42.0900 857.0000 1.0000
42.1000 824.0000 1.0000
42.1100 832.0000 1.0000
42.1200 829.0000 1.0000
42.1300 855.0000 1.0000
42.1400 862.0000 1.0000
42.1500 871.0000 1.0000
42.1600 845.0000 1.0000
42.1700 811.0000 1.0000
42.1800 883.0000 1.0000
42.1900 909.0000 1.0000
42.2000 895.0000 1.0000
42.2100 826.0000 1.0000
42.2200 859.0000 1.0000
42.2300 886.0000 1.0000
42.2400 863.0000 1.0000
42.2500 857.0000 1.0000
42.2600 875.0000 1.0000
42.2700 879.0000 1.0000
42.2800 953.0000 1.0000
42.2900 845.0000 1.0000
42.3000 890.0000 1.0000
42.3100 854.0000 1.0000
42.3200 852.0000 1.0000
42.3300 881.0000 1.0000
42.3400 894.0000 1.0000
42.3500 880.0000 1.0000
42.3600 862.0000 1.0000
42.3700 864.0000 1.0000
42.3800 868.0000 1.0000
42.3900 835.0000 1.0000
42.4000 890.0000 1.0000
42.4100 859.0000 1.0000
42.4200 857.0000 1.0000
42.4300 845.0000 1.0000
42.4400 876.0000 1.0000
42.4500 893.0000 1.0000
42.4600 883.0000 1.0000
42.4700 850.0000 1.0000
42.4800 827.0000 1.0000
42.4900 887.0000 1.0000
42.5000 883.0000 1.0000
42.5100 861.0000 1.0000
42.5200 859.0000 1.0000
42.5300 857.0000 1.0000
42.5400 862.0000 1.0000
42.5500 841.0000 1.0000
42.5600 870.0000 1.0000
42.5700 866.0000 1.0000
42.5800 879.0000 1.0000
42.5900 884.0000 1.0000
42.6000 892.0000 1.0000
42.6100 893.0000 1.0000
42.6200 854.0000 1.0000
42.6300 877.0000 1.0000
42.6400 803.0000 1.0000
42.6500 876.0000 1.0000
42.6600 855.0000 1.0000
42.6700 839.0000 1.0000
42.6800 832.0000 1.0000
42.6900 830.0000 1.0000
42.7000 853.0000 1.0000
42.7100 830.0000 1.0000
42.7200 889.0000 1.0000
42.7300 857.0000 1.0000
42.7400 852.0000 1.0000
42.7500 858.0000 1.0000
42.7600 875.0000 1.0000
42.7700 860.0000 1.0000
42.7800 898.0000 1.0000
42.7900 885.0000 1.0000
42.8000 868.0000 1.0000
42.8100 870.0000 1.0000
42.8200 880.0000 1.0000
42.8300 888.0000 1.0000
42.8400 838.0000 1.0000
42.8500 842.0000 1.0000
42.8600 852.0000 1.0000
42.8700 866.0000 1.0000
42.8800 858.0000 1.0000
42.8900 853.0000 1.0000
42.9000 888.0000 1.0000
42.9100 856.0000 1.0000
42.9200 881.0000 1.0000
42.9300 895.0000 1.0000
42.9400 870.0000 1.0000
42.9500 892.0000 1.0000
42.9600 889.0000 1.0000
42.9700 855.0000 1.0000
42.9800 880.0000 1.0000
42.9900 899.0000 1.0000
43.0000 867.0000 1.0000
43.0100 911.0000 1.0000
43.0200 848.0000 1.0000
43.0300 880.0000 1.0000
43.0400 866.0000 1.0000
43.0500 882.0000 1.0000
43.0600 857.0000 1.0000
43.0700 880.0000 1.0000
43.0800 897.0000 1.0000
43.0900 924.0000 1.0000
43.1000 930.0000 1.0000
43.1100 905.0000 1.0000
43.1200 823.0000 1.0000
43.1300 929.0000 1.0000
43.1400 898.0000 1.0000
43.1500 956.0000 1.0000
43.1600 940.0000 1.0000
43.1700 948.0000 1.0000
43.1800 985.0000 1.0000
43.1900 938.0000 1.0000
43.2000 919.0000 1.0000
43.2100 996.0000 1.0000
43.2200 922.0000 1.0000
43.2300 953.0000 1.0000
43.2400 942.0000 1.0000
43.2500 982.0000 1.0000
43.2600 963.0000 1.0000
43.2700 943.0000 1.0000
43.2800 965.0000 1.0000
43.2900 910.0000 1.0000
43.3000 971.0000 1.0000
43.3100 960.0000 1.0000
43.3200 933.0000 1.0000
43.3300 942.0000 1.0000
43.3400 921.0000 1.0000
43.3500 865.0000 1.0000
43.3600 965.0000 1.0000
43.3700 937.0000 1.0000
43.3800 926.0000 1.0000
43.3900 899.0000 1.0000
43.4000 946.0000 1.0000
43.4100 924.0000 1.0000
43.4200 900.0000 1.0000
43.4300 926.0000 1.0000
43.4400 873.0000 1.0000
43.4500 888.0000 1.0000
43.4600 944.0000 1.0000
43.4700 894.0000 1.0000
43.4800 870.0000 1.0000
43.4900 858.0000 1.0000
43.5000 878.0000 1.0000
43.5100 894.0000 1.0000
43.5200 887.0000 1.0000
43.5300 880.0000 1.0000
43.5400 858.0000 1.0000
43.5500 835.0000 1.0000
43.5600 871.0000 1.0000
43.5700 851.0000 1.0000
43.5800 864.0000 1.0000
43.5900 831.0000 1.0000
43.6000 878.0000 1.0000
43.6100 861.0000 1.0000
43.6200 878.0000 1.0000
43.6300 890.0000 1.0000
43.6400 859.0000 1.0000
43.6500 872.0000 1.0000
43.6600 813.0000 1.0000
43.6700 863.0000 1.0000
43.6800 882.0000 1.0000
43.6900 895.0000 1.0000
43.7000 849.0000 1.0000
43.7100 871.0000 1.0000
43.7200 814.0000 1.0000
43.7300 893.0000 1.0000
43.7400 853.0000 1.0000
43.7500 850.0000 1.0000
43.7600 878.0000 1.0000
43.7700 839.0000 1.0000
43.7800 908.0000 1.0000
43.7900 834.0000 1.0000
43.8000 802.0000 1.0000
43.8100 836.0000 1.0000
43.8200 841.0000 1.0000
43.8300 834.0000 1.0000
43.8400 853.0000 1.0000
43.8500 866.0000 1.0000
43.8600 844.0000 1.0000
43.8700 845.0000 1.0000
43.8800 847.0000 1.0000
43.8900 829.0000 1.0000
43.9000 847.0000 1.0000
43.9100 877.0000 1.0000
43.9200 868.0000 1.0000
43.9300 860.0000 1.0000
43.9400 810.0000 1.0000
43.9500 842.0000 1.0000
43.9600 842.0000 1.0000
43.9700 862.0000 1.0000
43.9800 873.0000 1.0000
43.9900 857.0000 1.0000
44.0000 817.0000 1.0000
44.0100 837.0000 1.0000
44.0200 876.0000 1.0000
44.0300 847.0000 1.0000
44.0400 828.0000 1.0000
44.0500 862.0000 1.0000
44.0600 895.0000 1.0000
44.0700 824.0000 1.0000
44.0800 821.0000 1.0000
44.0900 790.0000 1.0000
44.1000 865.0000 1.0000
44.1100 912.0000 1.0000
44.1200 861.0000 1.0000
44.1300 840.0000 1.0000
44.1400 841.0000 1.0000
44.1500 825.0000 1.0000
44.1600 811.0000 1.0000
44.1700 830.0000 1.0000
44.1800 835.0000 1.0000
44.1900 826.0000 1.0000
44.2000 854.0000 1.0000
44.2100 870.0000 1.0000
44.2200 883.0000 1.0000
44.2300 839.0000 1.0000
44.2400 876.0000 1.0000
44.2500 845.0000 1.0000
44.2600 863.0000 1.0000
44.2700 838.0000 1.0000
44.2800 857.0000 1.0000
44.2900 884.0000 1.0000
44.3000 890.0000 1.0000
44.3100 851.0000 1.0000
44.3200 839.0000 1.0000
44.3300 872.0000 1.0000
44.3400 828.0000 1.0000
44.3500 825.0000 1.0000
44.3600 863.0000 1.0000
44.3700 857.0000 1.0000
44.3800 825.0000 1.0000
44.3900 826.0000 1.0000
44.4000 819.0000 1.0000
44.4100 829.0000 1.0000
44.4200 818.0000 1.0000
44.4300 839.0000 1.0000
44.4400 866.0000 1.0000
44.4500 843.0000 1.0000
44.4600 850.0000 1.0000
44.4700 887.0000 1.0000
44.4800 850.0000 1.0000
44.4900 843.0000 1.0000
44.5000 848.0000 1.0000
44.5100 820.0000 1.0000
44.5200 783.0000 1.0000
44.5300 830.0000 1.0000
44.5400 831.0000 1.0000
44.5500 794.0000 1.0000
44.5600 821.0000 1.0000
44.5700 841.0000 1.0000
44.5800 846.0000 1.0000
44.5900 800.0000 1.0000
44.6000 811.0000 1.0000
44.6100 846.0000 1.0000
44.6200 802.0000 1.0000
44.6300 829.0000 1.0000
44.6400 826.0000 1.0000
44.6500 874.0000 1.0000
44.6600 870.0000 1.0000
44.6700 819.0000 1.0000
44.6800 812.0000 1.0000
44.6900 812.0000 1.0000
44.7000 808.0000 1.0000
44.7100 839.0000 1.0000
44.7200 825.0000 1.0000
44.7300 826.0000 1.0000
44.7400 804.0000 1.0000
44.7500 830.0000 1.0000
44.7600 805.0000 1.0000
44.7700 800.0000 1.0000
44.7800 858.0000 1.0000
44.7900 832.0000 1.0000
44.8000 805.0000 1.0000
44.8100 860.0000 1.0000
44.8200 842.0000 1.0000
44.8300 790.0000 1.0000
44.8400 864.0000 1.0000
44.8500 812.0000 1.0000
44.8600 868.0000 1.0000
44.8700 848.0000 1.0000
44.8800 873.0000 1.0000
44.8900 797.0000 1.0000
44.9000 832.0000 1.0000
44.9100 808.0000 1.0000
44.9200 849.0000 1.0000
44.9300 849.0000 1.0000
44.9400 827.0000 1.0000
44.9500 806.0000 1.0000
44.9600 802.0000 1.0000
44.9700 794.0000 1.0000
44.9800 825.0000 1.0000
44.9900 845.0000 1.0000
45.0000 832.0000 1.0000
45.0100 796.0000 1.0000
45.0200 822.0000 1.0000
45.0300 819.0000 1.0000
45.0400 859.0000 1.0000
45.0500 794.0000 1.0000
45.0600 853.0000 1.0000
45.0700 820.0000 1.0000
45.0800 791.0000 1.0000
45.0900 825.0000 1.0000
45.1000 829.0000 1.0000
45.1100 823.0000 1.0000
45.1200 816.0000 1.0000
45.1300 775.0000 1.0000
45.1400 836.0000 1.0000
45.1500 800.0000 1.0000
45.1600 843.0000 1.0000
45.1700 825.0000 1.0000
45.1800 812.0000 1.0000
45.1900 820.0000 1.0000
45.2000 808.0000 1.0000
45.2100 791.0000 1.0000
45.2200 848.0000 1.0000
45.2300 823.0000 1.0000
45.2400 843.0000 1.0000
45.2500 808.0000 1.0000
45.2600 762.0000 1.0000
45.2700 818.0000 1.0000
45.2800 811.0000 1.0000
45.2900 775.0000 1.0000
45.3000 821.0000 1.0000
45.3100 803.0000 1.0000
45.3200 800.0000 1.0000
45.3300 875.0000 1.0000
45.3400 864.0000 1.0000
45.3500 854.0000 1.0000
45.3600 776.0000 1.0000
45.3700 757.0000 1.0000
45.3800 771.0000 1.0000
45.3900 835.0000 1.0000
45.4000 813.0000 1.0000
45.4100 835.0000 1.0000
45.4200 814.0000 1.0000
45.4300 817.0000 1.0000
45.4400 766.0000 1.0000
45.4500 809.0000 1.0000
45.4600 808.0000 1.0000
45.4700 833.0000 1.0000
45.4800 820.0000 1.0000
45.4900 833.0000 1.0000
45.5000 828.0000 1.0000
45.5100 792.0000 1.0000
45.5200 779.0000 1.0000
45.5300 775.0000 1.0000
45.5400 809.0000 1.0000
45.5500 750.0000 1.0000
45.5600 787.0000 1.0000
45.5700 834.0000 1.0000
45.5800 797.0000 1.0000
45.5900 827.0000 1.0000
45.6000 829.0000 1.0000
45.6100 817.0000 1.0000
45.6200 813.0000 1.0000
45.6300 796.0000 1.0000
45.6400 785.0000 1.0000
45.6500 803.0000 1.0000
45.6600 782.0000 1.0000
45.6700 821.0000 1.0000
45.6800 822.0000 1.0000
45.6900 819.0000 1.0000
45.7000 839.0000 1.0000
45.7100 779.0000 1.0000
45.7200 780.0000 1.0000
45.7300 771.0000 1.0000
45.7400 763.0000 1.0000
45.7500 820.0000 1.0000
45.7600 816.0000 1.0000
45.7700 819.0000 1.0000
45.7800 785.0000 1.0000
45.7900 788.0000 1.0000
45.8000 817.0000 1.0000
45.8100 786.0000 1.0000
45.8200 803.0000 1.0000
45.8300 826.0000 1.0000
45.8400 841.0000 1.0000
45.8500 784.0000 1.0000
45.8600 807.0000 1.0000
45.8700 788.0000 1.0000
45.8800 775.0000 1.0000
45.8900 783.0000 1.0000
45.9000 811.0000 1.0000
45.9100 828.0000 1.0000
45.9200 840.0000 1.0000
45.9300 808.0000 1.0000
45.9400 822.0000 1.0000
45.9500 805.0000 1.0000
45.9600 872.0000 1.0000
45.9700 804.0000 1.0000
45.9800 771.0000 1.0000
45.9900 811.0000 1.0000
46.0000 815.0000 1.0000
46.0100 817.0000 1.0000
46.0200 822.0000 1.0000
46.0300 791.0000 1.0000
46.0400 799.0000 1.0000
46.0500 803.0000 1.0000
46.0600 813.0000 1.0000
46.0700 821.0000 1.0000
46.0800 756.0000 1.0000
46.0900 828.0000 1.0000
46.1000 825.0000 1.0000
46.1100 816.0000 1.0000
46.1200 806.0000 1.0000
46.1300 753.0000 1.0000
46.1400 831.0000 1.0000
46.1500 778.0000 1.0000
46.1600 754.0000 1.0000
46.1700 781.0000 1.0000
46.1800 751.0000 1.0000
46.1900 769.0000 1.0000
46.2000 833.0000 1.0000
46.2100 771.0000 1.0000
46.2200 799.0000 1.0000
46.2300 804.0000 1.0000
46.2400 774.0000 1.0000
46.2500 772.0000 1.0000
46.2600 765.0000 1.0000
46.2700 795.0000 1.0000
46.2800 815.0000 1.0000
46.2900 799.0000 1.0000
46.3000 806.0000 1.0000
46.3100 826.0000 1.0000
46.3200 804.0000 1.0000
46.3300 820.0000 1.0000
46.3400 797.0000 1.0000
46.3500 829.0000 1.0000
46.3600 783.0000 1.0000
46.3700 805.0000 1.0000
46.3800 770.0000 1.0000
46.3900 778.0000 1.0000
46.4000 792.0000 1.0000
46.4100 794.0000 1.0000
46.4200 827.0000 1.0000
46.4300 846.0000 1.0000
46.4400 795.0000 1.0000
46.4500 805.0000 1.0000
46.4600 800.0000 1.0000
46.4700 826.0000 1.0000
46.4800 785.0000 1.0000
46.4900 795.0000 1.0000
46.5000 820.0000 1.0000
46.5100 801.0000 1.0000
46.5200 824.0000 1.0000
46.5300 777.0000 1.0000
46.5400 788.0000 1.0000
46.5500 809.0000 1.0000
46.5600 796.0000 1.0000
46.5700 842.0000 1.0000
46.5800 824.0000 1.0000
46.5900 874.0000 1.0000
46.6000 768.0000 1.0000
46.6100 818.0000 1.0000
46.6200 771.0000 1.0000
46.6300 789.0000 1.0000
46.6400 779.0000 1.0000
46.6500 765.0000 1.0000
46.6600 756.0000 1.0000
46.6700 832.0000 1.0000
46.6800 736.0000 1.0000
46.6900 762.0000 1.0000
46.7000 821.0000 1.0000
46.7100 781.0000 1.0000
46.7200 774.0000 1.0000
46.7300 792.0000 1.0000
46.7400 796.0000 1.0000
46.7500 797.0000 1.0000
46.7600 812.0000 1.0000
46.7700 768.0000 1.0000
46.7800 795.0000 1.0000
46.7900 772.0000 1.0000
46.8000 832.0000 1.0000
46.8100 777.0000 1.0000
46.8200 790.0000 1.0000
46.8300 795.0000 1.0000
46.8400 802.0000 1.0000
46.8500 771.0000 1.0000
46.8600 830.0000 1.0000
46.8700 791.0000 1.0000
46.8800 802.0000 1.0000
46.8900 753.0000 1.0000
46.9000 817.0000 1.0000
46.9100 820.0000 1.0000
46.9200 795.0000 1.0000
46.9300 852.0000 1.0000
46.9400 789.0000 1.0000
46.9500 780.0000 1.0000
46.9600 805.0000 1.0000
46.9700 776.0000 1.0000
46.9800 759.0000 1.0000
46.9900 809.0000 1.0000
47.0000 824.0000 1.0000
47.0100 842.0000 1.0000
47.0200 830.0000 1.0000
47.0300 810.0000 1.0000
47.0400 809.0000 1.0000
47.0500 791.0000 1.0000
47.0600 777.0000 1.0000
47.0700 807.0000 1.0000
47.0800 790.0000 1.0000
47.0900 788.0000 1.0000
47.1000 786.0000 1.0000
47.1100 825.0000 1.0000
47.1200 783.0000 1.0000
47.1300 795.0000 1.0000
47.1400 805.0000 1.0000
47.1500 758.0000 1.0000
47.1600 777.0000 1.0000
47.1700 757.0000 1.0000
47.1800 827.0000 1.0000
47.1900 789.0000 1.0000
47.2000 751.0000 1.0000
47.2100 751.0000 1.0000
47.2200 796.0000 1.0000
47.2300 809.0000 1.0000
47.2400 774.0000 1.0000
47.2500 808.0000 1.0000
47.2600 710.0000 1.0000
47.2700 775.0000 1.0000
47.2800 792.0000 1.0000
47.2900 777.0000 1.0000
47.3000 765.0000 1.0000
47.3100 805.0000 1.0000
47.3200 781.0000 1.0000
47.3300 788.0000 1.0000
47.3400 761.0000 1.0000
47.3500 774.0000 1.0000
47.3600 779.0000 1.0000
47.3700 798.0000 1.0000
47.3800 799.0000 1.0000
47.3900 737.0000 1.0000
47.4000 736.0000 1.0000
47.4100 770.0000 1.0000
47.4200 780.0000 1.0000
47.4300 766.0000 1.0000
47.4400 789.0000 1.0000
47.4500 781.0000 1.0000
47.4600 747.0000 1.0000
47.4700 759.0000 1.0000
47.4800 825.0000 1.0000
47.4900 813.0000 1.0000
47.5000 801.0000 1.0000
47.5100 799.0000 1.0000
47.5200 787.0000 1.0000
47.5300 750.0000 1.0000
47.5400 779.0000 1.0000
47.5500 740.0000 1.0000
47.5600 750.0000 1.0000
47.5700 785.0000 1.0000
47.5800 775.0000 1.0000
47.5900 706.0000 1.0000
47.6000 796.0000 1.0000
47.6100 787.0000 1.0000
47.6200 783.0000 1.0000
47.6300 779.0000 1.0000
47.6400 731.0000 1.0000
47.6500 750.0000 1.0000
47.6600 725.0000 1.0000
47.6700 776.0000 1.0000
47.6800 754.0000 1.0000
47.6900 788.0000 1.0000
47.7000 799.0000 1.0000
47.7100 772.0000 1.0000
47.7200 759.0000 1.0000
47.7300 718.0000 1.0000
47.7400 765.0000 1.0000
47.7500 744.0000 1.0000
47.7600 769.0000 1.0000
47.7700 742.0000 1.0000
47.7800 795.0000 1.0000
47.7900 777.0000 1.0000
47.8000 803.0000 1.0000
47.8100 756.0000 1.0000
47.8200 743.0000 1.0000
47.8300 719.0000 1.0000
47.8400 808.0000 1.0000
47.8500 789.0000 1.0000
47.8600 755.0000 1.0000
47.8700 745.0000 1.0000
47.8800 755.0000 1.0000
47.8900 763.0000 1.0000
47.9000 813.0000 1.0000
47.9100 743.0000 1.0000
47.9200 790.0000 1.0000
47.9300 797.0000 1.0000
47.9400 771.0000 1.0000
47.9500 758.0000 1.0000
47.9600 819.0000 1.0000
47.9700 770.0000 1.0000
47.9800 739.0000 1.0000
47.9900 743.0000 1.0000
48.0000 734.0000 1.0000
48.0100 755.0000 1.0000
48.0200 763.0000 1.0000
48.0300 780.0000 1.0000
48.0400 755.0000 1.0000
48.0500 760.0000 1.0000
48.0600 767.0000 1.0000
48.0700 778.0000 1.0000
48.0800 781.0000 1.0000
48.0900 780.0000 1.0000
48.1000 753.0000 1.0000
48.1100 818.0000 1.0000
48.1200 807.0000 1.0000
48.1300 762.0000 1.0000
48.1400 757.0000 1.0000
48.1500 742.0000 1.0000
48.1600 734.0000 1.0000
48.1700 780.0000 1.0000
48.1800 782.0000 1.0000
48.1900 761.0000 1.0000
48.2000 777.0000 1.0000
48.2100 759.0000 1.0000
48.2200 735.0000 1.0000
48.2300 723.0000 1.0000
48.2400 752.0000 1.0000
48.2500 747.0000 1.0000
48.2600 735.0000 1.0000
48.2700 793.0000 1.0000
48.2800 766.0000 1.0000
48.2900 714.0000 1.0000
48.3000 713.0000 1.0000
48.3100 739.0000 1.0000
48.3200 790.0000 1.0000
48.3300 735.0000 1.0000
48.3400 738.0000 1.0000
48.3500 738.0000 1.0000
48.3600 749.0000 1.0000
48.3700 757.0000 1.0000
48.3800 792.0000 1.0000
48.3900 739.0000 1.0000
48.4000 764.0000 1.0000
48.4100 723.0000 1.0000
48.4200 764.0000 1.0000
48.4300 719.0000 1.0000
48.4400 762.0000 1.0000
48.4500 768.0000 1.0000
48.4600 762.0000 1.0000
48.4700 749.0000 1.0000
48.4800 726.0000 1.0000
48.4900 754.0000 1.0000
48.5000 770.0000 1.0000
48.5100 739.0000 1.0000
48.5200 704.0000 1.0000
48.5300 719.0000 1.0000
48.5400 752.0000 1.0000
48.5500 703.0000 1.0000
48.5600 766.0000 1.0000
48.5700 751.0000 1.0000
48.5800 716.0000 1.0000
48.5900 772.0000 1.0000
48.6000 723.0000 1.0000
48.6100 754.0000 1.0000
48.6200 781.0000 1.0000
48.6300 746.0000 1.0000
48.6400 729.0000 1.0000
48.6500 718.0000 1.0000
48.6600 709.0000 1.0000
48.6700 774.0000 1.0000
48.6800 738.0000 1.0000
48.6900 748.0000 1.0000
48.7000 765.0000 1.0000
48.7100 744.0000 1.0000
48.7200 743.0000 1.0000
48.7300 721.0000 1.0000
48.7400 728.0000 1.0000
48.7500 732.0000 1.0000
48.7600 729.0000 1.0000
48.7700 751.0000 1.0000
48.7800 774.0000 1.0000
48.7900 791.0000 1.0000
48.8000 724.0000 1.0000
48.8100 773.0000 1.0000
48.8200 705.0000 1.0000
48.8300 768.0000 1.0000
48.8400 696.0000 1.0000
48.8500 775.0000 1.0000
48.8600 760.0000 1.0000
48.8700 767.0000 1.0000
48.8800 741.0000 1.0000
48.8900 729.0000 1.0000
48.9000 737.0000 1.0000
48.9100 740.0000 1.0000
48.9200 746.0000 1.0000
48.9300 745.0000 1.0000
48.9400 673.0000 1.0000
48.9500 743.0000 1.0000
48.9600 725.0000 1.0000
48.9700 773.0000 1.0000
48.9800 752.0000 1.0000
48.9900 708.0000 1.0000
49.0000 732.0000 1.0000
49.0100 756.0000 1.0000
49.0200 750.0000 1.0000
49.0300 750.0000 1.0000
49.0400 704.0000 1.0000
49.0500 683.0000 1.0000
49.0600 760.0000 1.0000
49.0700 726.0000 1.0000
49.0800 784.0000 1.0000
49.0900 780.0000 1.0000
49.1000 768.0000 1.0000
49.1100 707.0000 1.0000
49.1200 721.0000 1.0000
49.1300 726.0000 1.0000
49.1400 719.0000 1.0000
49.1500 704.0000 1.0000
49.1600 748.0000 1.0000
49.1700 733.0000 1.0000
49.1800 745.0000 1.0000
49.1900 768.0000 1.0000
49.2000 750.0000 1.0000
49.2100 736.0000 1.0000
49.2200 790.0000 1.0000
49.2300 759.0000 1.0000
49.2400 715.0000 1.0000
49.2500 708.0000 1.0000
49.2600 688.0000 1.0000
49.2700 762.0000 1.0000
49.2800 755.0000 1.0000
49.2900 739.0000 1.0000
49.3000 796.0000 1.0000
49.3100 739.0000 1.0000
49.3200 733.0000 1.0000
49.3300 751.0000 1.0000
49.3400 763.0000 1.0000
49.3500 705.0000 1.0000
49.3600 723.0000 1.0000
49.3700 792.0000 1.0000
49.3800 796.0000 1.0000
49.3900 778.0000 1.0000
49.4000 740.0000 1.0000
49.4100 722.0000 1.0000
49.4200 728.0000 1.0000
49.4300 709.0000 1.0000
49.4400 731.0000 1.0000
49.4500 723.0000 1.0000
49.4600 788.0000 1.0000
49.4700 746.0000 1.0000
49.4800 705.0000 1.0000
49.4900 769.0000 1.0000
49.5000 717.0000 1.0000
49.5100 716.0000 1.0000
49.5200 706.0000 1.0000
49.5300 732.0000 1.0000
49.5400 733.0000 1.0000
49.5500 688.0000 1.0000
49.5600 723.0000 1.0000
49.5700 747.0000 1.0000
49.5800 704.0000 1.0000
49.5900 763.0000 1.0000
49.6000 746.0000 1.0000
49.6100 763.0000 1.0000
49.6200 746.0000 1.0000
49.6300 767.0000 1.0000
49.6400 770.0000 1.0000
49.6500 763.0000 1.0000
49.6600 737.0000 1.0000
49.6700 706.0000 1.0000
49.6800 803.0000 1.0000
49.6900 767.0000 1.0000
49.7000 782.0000 1.0000
49.7100 767.0000 1.0000
49.7200 790.0000 1.0000
49.7300 735.0000 1.0000
49.7400 739.0000 1.0000
49.7500 743.0000 1.0000
49.7600 774.0000 1.0000
49.7700 768.0000 1.0000
49.7800 779.0000 1.0000
49.7900 717.0000 1.0000
49.8000 711.0000 1.0000
49.8100 782.0000 1.0000
49.8200 742.0000 1.0000
49.8300 759.0000 1.0000
49.8400 783.0000 1.0000
49.8500 714.0000 1.0000
49.8600 732.0000 1.0000
49.8700 748.0000 1.0000
49.8800 742.0000 1.0000
49.8900 703.0000 1.0000
49.9000 732.0000 1.0000
49.9100 746.0000 1.0000
49.9200 743.0000 1.0000
49.9300 771.0000 1.0000
49.9400 733.0000 1.0000
49.9500 721.0000 1.0000
49.9600 716.0000 1.0000
49.9700 729.0000 1.0000
49.9800 769.0000 1.0000
49.9900 719.0000 1.0000
50.0000 737.0000 1.0000
50.0100 811.0000 1.0000
50.0200 752.0000 1.0000
50.0300 768.0000 1.0000
50.0400 752.0000 1.0000
50.0500 755.0000 1.0000
50.0600 722.0000 1.0000
50.0700 756.0000 1.0000
50.0800 750.0000 1.0000
50.0900 791.0000 1.0000
50.1000 761.0000 1.0000
50.1100 731.0000 1.0000
50.1200 762.0000 1.0000
50.1300 782.0000 1.0000
50.1400 820.0000 1.0000
50.1500 757.0000 1.0000
50.1600 755.0000 1.0000
50.1700 760.0000 1.0000
50.1800 732.0000 1.0000
50.1900 749.0000 1.0000
50.2000 806.0000 1.0000
50.2100 760.0000 1.0000
50.2200 742.0000 1.0000
50.2300 775.0000 1.0000
50.2400 762.0000 1.0000
50.2500 793.0000 1.0000
50.2600 789.0000 1.0000
50.2700 788.0000 1.0000
50.2800 762.0000 1.0000
50.2900 757.0000 1.0000
50.3000 833.0000 1.0000
50.3100 778.0000 1.0000
50.3200 773.0000 1.0000
50.3300 723.0000 1.0000
50.3400 763.0000 1.0000
50.3500 776.0000 1.0000
50.3600 753.0000 1.0000
50.3700 760.0000 1.0000
50.3800 771.0000 1.0000
50.3900 826.0000 1.0000
50.4000 750.0000 1.0000
50.4100 726.0000 1.0000
50.4200 758.0000 1.0000
50.4300 747.0000 1.0000
50.4400 744.0000 1.0000
50.4500 724.0000 1.0000
50.4600 716.0000 1.0000
50.4700 781.0000 1.0000
50.4800 780.0000 1.0000
50.4900 730.0000 1.0000
50.5000 748.0000 1.0000
50.5100 752.0000 1.0000
50.5200 786.0000 1.0000
50.5300 707.0000 1.0000
50.5400 774.0000 1.0000
50.5500 762.0000 1.0000
50.5600 718.0000 1.0000
50.5700 758.0000 1.0000
50.5800 766.0000 1.0000
50.5900 752.0000 1.0000
50.6000 715.0000 1.0000
50.6100 730.0000 1.0000
50.6200 748.0000 1.0000
50.6300 748.0000 1.0000
50.6400 771.0000 1.0000
50.6500 746.0000 1.0000
50.6600 743.0000 1.0000
50.6700 747.0000 1.0000
50.6800 779.0000 1.0000
50.6900 761.0000 1.0000
50.7000 731.0000 1.0000
50.7100 750.0000 1.0000
50.7200 762.0000 1.0000
50.7300 760.0000 1.0000
50.7400 779.0000 1.0000
50.7500 783.0000 1.0000
50.7600 731.0000 1.0000
50.7700 743.0000 1.0000
50.7800 743.0000 1.0000
50.7900 733.0000 1.0000
50.8000 698.0000 1.0000
50.8100 711.0000 1.0000
50.8200 741.0000 1.0000
50.8300 757.0000 1.0000
50.8400 735.0000 1.0000
50.8500 746.0000 1.0000
50.8600 766.0000 1.0000
50.8700 749.0000 1.0000
50.8800 742.0000 1.0000
50.8900 735.0000 1.0000
50.9000 738.0000 1.0000
50.9100 768.0000 1.0000
50.9200 761.0000 1.0000
50.9300 756.0000 1.0000
50.9400 731.0000 1.0000
50.9500 770.0000 1.0000
50.9600 749.0000 1.0000
50.9700 756.0000 1.0000
50.9800 740.0000 1.0000
50.9900 743.0000 1.0000
51.0000 739.0000 1.0000
51.0100 758.0000 1.0000
51.0200 751.0000 1.0000
51.0300 751.0000 1.0000
51.0400 704.0000 1.0000
51.0500 776.0000 1.0000
51.0600 748.0000 1.0000
51.0700 739.0000 1.0000
51.0800 751.0000 1.0000
51.0900 713.0000 1.0000
51.1000 723.0000 1.0000
51.1100 728.0000 1.0000
51.1200 712.0000 1.0000
51.1300 693.0000 1.0000
51.1400 723.0000 1.0000
51.1500 741.0000 1.0000
51.1600 788.0000 1.0000
51.1700 770.0000 1.0000
51.1800 767.0000 1.0000
51.1900 726.0000 1.0000
51.2000 762.0000 1.0000
51.2100 745.0000 1.0000
51.2200 740.0000 1.0000
51.2300 768.0000 1.0000
51.2400 764.0000 1.0000
51.2500 806.0000 1.0000
51.2600 773.0000 1.0000
51.2700 763.0000 1.0000
51.2800 797.0000 1.0000
51.2900 733.0000 1.0000
51.3000 749.0000 1.0000
51.3100 756.0000 1.0000
51.3200 745.0000 1.0000
51.3300 746.0000 1.0000
51.3400 773.0000 1.0000
51.3500 749.0000 1.0000
51.3600 794.0000 1.0000
51.3700 726.0000 1.0000
51.3800 753.0000 1.0000
51.3900 755.0000 1.0000
51.4000 712.0000 1.0000
51.4100 757.0000 1.0000
51.4200 779.0000 1.0000
51.4300 751.0000 1.0000
51.4400 729.0000 1.0000
51.4500 770.0000 1.0000
51.4600 764.0000 1.0000
51.4700 752.0000 1.0000
51.4800 764.0000 1.0000
51.4900 776.0000 1.0000
51.5000 769.0000 1.0000
51.5100 745.0000 1.0000
51.5200 802.0000 1.0000
51.5300 752.0000 1.0000
51.5400 781.0000 1.0000
51.5500 779.0000 1.0000
51.5600 752.0000 1.0000
51.5700 790.0000 1.0000
51.5800 815.0000 1.0000
51.5900 781.0000 1.0000
51.6000 784.0000 1.0000
51.6100 777.0000 1.0000
51.6200 740.0000 1.0000
51.6300 771.0000 1.0000
51.6400 829.0000 1.0000
51.6500 837.0000 1.0000
51.6600 771.0000 1.0000
51.6700 833.0000 1.0000
51.6800 765.0000 1.0000
51.6900 742.0000 1.0000
51.7000 804.0000 1.0000
51.7100 801.0000 1.0000
51.7200 764.0000 1.0000
51.7300 766.0000 1.0000
51.7400 832.0000 1.0000
51.7500 787.0000 1.0000
51.7600 784.0000 1.0000
51.7700 815.0000 1.0000
51.7800 831.0000 1.0000
51.7900 777.0000 1.0000
51.8000 860.0000 1.0000
51.8100 861.0000 1.0000
51.8200 844.0000 1.0000
51.8300 868.0000 1.0000
51.8400 861.0000 1.0000
51.8500 899.0000 1.0000
51.8600 864.0000 1.0000
51.8700 864.0000 1.0000
51.8800 864.0000 1.0000
51.8900 880.0000 1.0000
51.9000 960.0000 1.0000
51.9100 912.0000 1.0000
51.9200 885.0000 1.0000
51.9300 980.0000 1.0000
51.9400 987.0000 1.0000
51.9500 960.0000 1.0000
51.9600 1037.0000 1.0000
51.9700 1090.0000 1.0000
51.9800 1120.0000 1.0000
51.9900 1142.0000 1.0000
52.0000 1117.0000 1.0000
52.0100 1200.0000 1.0000
52.0200 1218.0000 1.0000
52.0300 1284.0000 1.0000
52.0400 1336.0000 1.0000
52.0500 1339.0000 1.0000
52.0600 1397.0000 1.0000
52.0700 1470.0000 1.0000
52.0800 1531.0000 1.0000
52.0900 1581.0000 1.0000
52.1000 1627.0000 1.0000
52.1100 1708.0000 1.0000
52.1200 1884.0000 1.0000
52.1300 2032.0000 1.0000
52.1400 2186.0000 1.0000
52.1500 2350.0000 1.0000
52.1600 2406.0000 1.0000
52.1700 2603.0000 1.0000
52.1800 2789.0000 1.0000
52.1900 3105.0000 1.0000
52.2000 3355.0000 1.0000
52.2100 3711.0000 1.0000
52.2200 3973.0000 1.0000
52.2300 4215.0000 1.0000
52.2400 4480.0000 1.0000
52.2500 4750.0000 1.0000
52.2600 4849.0000 1.0000
52.2700 5094.0000 1.0000
52.2800 5197.0000 1.0000
52.2900 5020.0000 1.0000
52.3000 5239.0000 1.0000
52.3100 5125.0000 1.0000
52.3200 5019.0000 1.0000
52.3300 4940.0000 1.0000
52.3400 4718.0000 1.0000
52.3500 4553.0000 1.0000
52.3600 4341.0000 1.0000
52.3700 4215.0000 1.0000
52.3800 4140.0000 1.0000
52.3900 4091.0000 1.0000
52.4000 4038.0000 1.0000
52.4100 4023.0000 1.0000
52.4200 3764.0000 1.0000
52.4300 3607.0000 1.0000
52.4400 3415.0000 1.0000
52.4500 3393.0000 1.0000
52.4600 3089.0000 1.0000
52.4700 2870.0000 1.0000
52.4800 2662.0000 1.0000
52.4900 2457.0000 1.0000
52.5000 2298.0000 1.0000
52.5100 2171.0000 1.0000
52.5200 2087.0000 1.0000
52.5300 1955.0000 1.0000
52.5400 1812.0000 1.0000
52.5500 1631.0000 1.0000
52.5600 1559.0000 1.0000
52.5700 1510.0000 1.0000
52.5800 1509.0000 1.0000
52.5900 1386.0000 1.0000
52.6000 1384.0000 1.0000
52.6100 1309.0000 1.0000
52.6200 1211.0000 1.0000
52.6300 1221.0000 1.0000
52.6400 1177.0000 1.0000
52.6500 1152.0000 1.0000
52.6600 1094.0000 1.0000
52.6700 1092.0000 1.0000
52.6800 1021.0000 1.0000
52.6900 1055.0000 1.0000
52.7000 1026.0000 1.0000
52.7100 1014.0000 1.0000
52.7200 1006.0000 1.0000
52.7300 984.0000 1.0000
52.7400 963.0000 1.0000
52.7500 976.0000 1.0000
52.7600 956.0000 1.0000
52.7700 930.0000 1.0000
52.7800 963.0000 1.0000
52.7900 886.0000 1.0000
52.8000 915.0000 1.0000
52.8100 920.0000 1.0000
52.8200 881.0000 1.0000
52.8300 886.0000 1.0000
52.8400 909.0000 1.0000
52.8500 866.0000 1.0000
52.8600 900.0000 1.0000
52.8700 817.0000 1.0000
52.8800 847.0000 1.0000
52.8900 835.0000 1.0000
52.9000 823.0000 1.0000
52.9100 881.0000 1.0000
52.9200 786.0000 1.0000
52.9300 799.0000 1.0000
52.9400 844.0000 1.0000
52.9500 786.0000 1.0000
52.9600 800.0000 1.0000
52.9700 791.0000 1.0000
52.9800 814.0000 1.0000
52.9900 821.0000 1.0000
53.0000 773.0000 1.0000
53.0100 792.0000 1.0000
53.0200 804.0000 1.0000
53.0300 838.0000 1.0000
53.0400 783.0000 1.0000
53.0500 788.0000 1.0000
53.0600 767.0000 1.0000
53.0700 834.0000 1.0000
53.0800 769.0000 1.0000
53.0900 779.0000 1.0000
53.1000 798.0000 1.0000
53.1100 732.0000 1.0000
53.1200 766.0000 1.0000
53.1300 757.0000 1.0000
53.1400 762.0000 1.0000
53.1500 753.0000 1.0000
53.1600 783.0000 1.0000
53.1700 777.0000 1.0000
53.1800 772.0000 1.0000
53.1900 775.0000 1.0000
53.2000 758.0000 1.0000
53.2100 720.0000 1.0000
53.2200 803.0000 1.0000
53.2300 792.0000 1.0000
53.2400 794.0000 1.0000
53.2500 743.0000 1.0000
53.2600 724.0000 1.0000
53.2700 783.0000 1.0000
53.2800 775.0000 1.0000
53.2900 722.0000 1.0000
53.3000 714.0000 1.0000
53.3100 745.0000 1.0000
53.3200 743.0000 1.0000
53.3300 720.0000 1.0000
53.3400 751.0000 1.0000
53.3500 766.0000 1.0000
53.3600 777.0000 1.0000
53.3700 769.0000 1.0000
53.3800 746.0000 1.0000
53.3900 717.0000 1.0000
53.4000 778.0000 1.0000
53.4100 800.0000 1.0000
53.4200 804.0000 1.0000
53.4300 731.0000 1.0000
53.4400 731.0000 1.0000
53.4500 764.0000 1.0000
53.4600 763.0000 1.0000
53.4700 771.0000 1.0000
53.4800 717.0000 1.0000
53.4900 735.0000 1.0000
53.5000 752.0000 1.0000
53.5100 719.0000 1.0000
53.5200 711.0000 1.0000
53.5300 756.0000 1.0000
53.5400 753.0000 1.0000
53.5500 755.0000 1.0000
53.5600 751.0000 1.0000
53.5700 749.0000 1.0000
53.5800 754.0000 1.0000
53.5900 708.0000 1.0000
53.6000 725.0000 1.0000
53.6100 736.0000 1.0000
53.6200 749.0000 1.0000
53.6300 726.0000 1.0000
53.6400 763.0000 1.0000
53.6500 690.0000 1.0000
53.6600 748.0000 1.0000
53.6700 753.0000 1.0000
53.6800 719.0000 1.0000
53.6900 740.0000 1.0000
53.7000 752.0000 1.0000
53.7100 755.0000 1.0000
53.7200 704.0000 1.0000
53.7300 716.0000 1.0000
53.7400 752.0000 1.0000
53.7500 776.0000 1.0000
53.7600 732.0000 1.0000
53.7700 715.0000 1.0000
53.7800 735.0000 1.0000
53.7900 722.0000 1.0000
53.8000 725.0000 1.0000
53.8100 677.0000 1.0000
53.8200 723.0000 1.0000
53.8300 749.0000 1.0000
53.8400 730.0000 1.0000
53.8500 731.0000 1.0000
53.8600 714.0000 1.0000
53.8700 709.0000 1.0000
53.8800 752.0000 1.0000
53.8900 727.0000 1.0000
53.9000 761.0000 1.0000
53.9100 780.0000 1.0000
53.9200 726.0000 1.0000
53.9300 711.0000 1.0000
53.9400 714.0000 1.0000
53.9500 709.0000 1.0000
53.9600 752.0000 1.0000
53.9700 744.0000 1.0000
53.9800 703.0000 1.0000
53.9900 690.0000 1.0000
54.0000 708.0000 1.0000
54.0100 699.0000 1.0000
54.0200 700.0000 1.0000
54.0300 714.0000 1.0000
54.0400 752.0000 1.0000
54.0500 733.0000 1.0000
54.0600 667.0000 1.0000
54.0700 734.0000 1.0000
54.0800 721.0000 1.0000
54.0900 716.0000 1.0000
54.1000 740.0000 1.0000
54.1100 742.0000 1.0000
54.1200 715.0000 1.0000
54.1300 742.0000 1.0000
54.1400 736.0000 1.0000
54.1500 762.0000 1.0000
54.1600 686.0000 1.0000
54.1700 734.0000 1.0000
54.1800 772.0000 1.0000
54.1900 726.0000 1.0000
54.2000 746.0000 1.0000
54.2100 706.0000 1.0000
54.2200 705.0000 1.0000
54.2300 692.0000 1.0000
54.2400 701.0000 1.0000
54.2500 786.0000 1.0000
54.2600 775.0000 1.0000
54.2700 728.0000 1.0000
54.2800 725.0000 1.0000
54.2900 702.0000 1.0000
54.3000 731.0000 1.0000
54.3100 736.0000 1.0000
54.3200 776.0000 1.0000
54.3300 753.0000 1.0000
54.3400 745.0000 1.0000
54.3500 694.0000 1.0000
54.3600 743.0000 1.0000
54.3700 726.0000 1.0000
54.3800 779.0000 1.0000
54.3900 769.0000 1.0000
54.4000 710.0000 1.0000
54.4100 742.0000 1.0000
54.4200 770.0000 1.0000
54.4300 695.0000 1.0000
54.4400 710.0000 1.0000
54.4500 741.0000 1.0000
54.4600 726.0000 1.0000
54.4700 717.0000 1.0000
54.4800 750.0000 1.0000
54.4900 754.0000 1.0000
54.5000 730.0000 1.0000
54.5100 767.0000 1.0000
54.5200 816.0000 1.0000
54.5300 706.0000 1.0000
54.5400 737.0000 1.0000
54.5500 698.0000 1.0000
54.5600 781.0000 1.0000
54.5700 764.0000 1.0000
54.5800 763.0000 1.0000
54.5900 719.0000 1.0000
54.6000 739.0000 1.0000
54.6100 739.0000 1.0000
54.6200 733.0000 1.0000
54.6300 751.0000 1.0000
54.6400 756.0000 1.0000
54.6500 752.0000 1.0000
54.6600 741.0000 1.0000
54.6700 743.0000 1.0000
54.6800 737.0000 1.0000
54.6900 768.0000 1.0000
54.7000 782.0000 1.0000
54.7100 755.0000 1.0000
54.7200 789.0000 1.0000
54.7300 769.0000 1.0000
54.7400 759.0000 1.0000
54.7500 777.0000 1.0000
54.7600 769.0000 1.0000
54.7700 794.0000 1.0000
54.7800 818.0000 1.0000
54.7900 791.0000 1.0000
54.8000 784.0000 1.0000
54.8100 815.0000 1.0000
54.8200 789.0000 1.0000
54.8300 796.0000 1.0000
54.8400 823.0000 1.0000
54.8500 799.0000 1.0000
54.8600 796.0000 1.0000
54.8700 790.0000 1.0000
54.8800 797.0000 1.0000
54.8900 794.0000 1.0000
54.9000 815.0000 1.0000
54.9100 831.0000 1.0000
54.9200 790.0000 1.0000
54.9300 782.0000 1.0000
54.9400 835.0000 1.0000
54.9500 834.0000 1.0000
54.9600 800.0000 1.0000
54.9700 796.0000 1.0000
54.9800 737.0000 1.0000
54.9900 770.0000 1.0000
55.0000 808.0000 1.0000
55.0100 782.0000 1.0000
55.0200 811.0000 1.0000
55.0300 791.0000 1.0000
55.0400 806.0000 1.0000
55.0500 827.0000 1.0000
55.0600 847.0000 1.0000
55.0700 793.0000 1.0000
55.0800 800.0000 1.0000
55.0900 830.0000 1.0000
55.1000 843.0000 1.0000
55.1100 881.0000 1.0000
55.1200 885.0000 1.0000
55.1300 943.0000 1.0000
55.1400 891.0000 1.0000
55.1500 907.0000 1.0000
55.1600 911.0000 1.0000
55.1700 923.0000 1.0000
55.1800 965.0000 1.0000
55.1900 936.0000 1.0000
55.2000 969.0000 1.0000
55.2100 988.0000 1.0000
55.2200 1069.0000 1.0000
55.2300 1096.0000 1.0000
55.2400 1050.0000 1.0000
55.2500 1081.0000 1.0000
55.2600 1091.0000 1.0000
55.2700 1085.0000 1.0000
55.2800 1078.0000 1.0000
55.2900 1114.0000 1.0000
55.3000 1124.0000 1.0000
55.3100 1131.0000 1.0000
55.3200 1102.0000 1.0000
55.3300 1095.0000 1.0000
55.3400 1078.0000 1.0000
55.3500 1073.0000 1.0000
55.3600 1064.0000 1.0000
55.3700 1082.0000 1.0000
55.3800 1081.0000 1.0000
55.3900 1044.0000 1.0000
55.4000 1054.0000 1.0000
55.4100 1086.0000 1.0000
55.4200 1007.0000 1.0000
55.4300 1079.0000 1.0000
55.4400 1025.0000 1.0000
55.4500 980.0000 1.0000
55.4600 1020.0000 1.0000
55.4700 948.0000 1.0000
55.4800 945.0000 1.0000
55.4900 981.0000 1.0000
55.5000 934.0000 1.0000
55.5100 939.0000 1.0000
55.5200 882.0000 1.0000
55.5300 914.0000 1.0000
55.5400 877.0000 1.0000
55.5500 839.0000 1.0000
55.5600 851.0000 1.0000
55.5700 869.0000 1.0000
55.5800 818.0000 1.0000
55.5900 806.0000 1.0000
55.6000 825.0000 1.0000
55.6100 823.0000 1.0000
55.6200 801.0000 1.0000
55.6300 803.0000 1.0000
55.6400 800.0000 1.0000
55.6500 787.0000 1.0000
55.6600 763.0000 1.0000
55.6700 780.0000 1.0000
55.6800 738.0000 1.0000
55.6900 805.0000 1.0000
55.7000 761.0000 1.0000
55.7100 752.0000 1.0000
55.7200 717.0000 1.0000
55.7300 790.0000 1.0000
55.7400 742.0000 1.0000
55.7500 746.0000 1.0000
55.7600 758.0000 1.0000
55.7700 788.0000 1.0000
55.7800 699.0000 1.0000
55.7900 698.0000 1.0000
55.8000 727.0000 1.0000
55.8100 752.0000 1.0000
55.8200 756.0000 1.0000
55.8300 703.0000 1.0000
55.8400 778.0000 1.0000
55.8500 728.0000 1.0000
55.8600 706.0000 1.0000
55.8700 734.0000 1.0000
55.8800 725.0000 1.0000
55.8900 780.0000 1.0000
55.9000 687.0000 1.0000
55.9100 717.0000 1.0000
55.9200 766.0000 1.0000
55.9300 744.0000 1.0000
55.9400 739.0000 1.0000
55.9500 749.0000 1.0000
55.9600 750.0000 1.0000
55.9700 717.0000 1.0000
55.9800 722.0000 1.0000
55.9900 723.0000 1.0000
56.0000 758.0000 1.0000
56.0100 748.0000 1.0000
56.0200 741.0000 1.0000
56.0300 754.0000 1.0000
56.0400 728.0000 1.0000
56.0500 715.0000 1.0000
56.0600 739.0000 1.0000
56.0700 711.0000 1.0000
56.0800 696.0000 1.0000
56.0900 688.0000 1.0000
56.1000 743.0000 1.0000
56.1100 697.0000 1.0000
56.1200 725.0000 1.0000
56.1300 697.0000 1.0000
56.1400 724.0000 1.0000
56.1500 733.0000 1.0000
56.1600 727.0000 1.0000
56.1700 731.0000 1.0000
56.1800 751.0000 1.0000
56.1900 727.0000 1.0000
56.2000 695.0000 1.0000
56.2100 715.0000 1.0000
56.2200 656.0000 1.0000
56.2300 684.0000 1.0000
56.2400 695.0000 1.0000
56.2500 704.0000 1.0000
56.2600 698.0000 1.0000
56.2700 716.0000 1.0000
56.2800 691.0000 1.0000
56.2900 667.0000 1.0000
56.3000 706.0000 1.0000
56.3100 736.0000 1.0000
56.3200 697.0000 1.0000
56.3300 689.0000 1.0000
56.3400 722.0000 1.0000
56.3500 738.0000 1.0000
56.3600 670.0000 1.0000
56.3700 679.0000 1.0000
56.3800 710.0000 1.0000
56.3900 700.0000 1.0000
56.4000 704.0000 1.0000
56.4100 721.0000 1.0000
56.4200 697.0000 1.0000
56.4300 684.0000 1.0000
56.4400 742.0000 1.0000
56.4500 703.0000 1.0000
56.4600 728.0000 1.0000
56.4700 730.0000 1.0000
56.4800 692.0000 1.0000
56.4900 667.0000 1.0000
56.5000 706.0000 1.0000
56.5100 710.0000 1.0000
56.5200 722.0000 1.0000
56.5300 700.0000 1.0000
56.5400 713.0000 1.0000
56.5500 686.0000 1.0000
56.5600 723.0000 1.0000
56.5700 710.0000 1.0000
56.5800 733.0000 1.0000
56.5900 694.0000 1.0000
56.6000 661.0000 1.0000
56.6100 728.0000 1.0000
56.6200 704.0000 1.0000
56.6300 665.0000 1.0000
56.6400 655.0000 1.0000
56.6500 654.0000 1.0000
56.6600 659.0000 1.0000
56.6700 669.0000 1.0000
56.6800 659.0000 1.0000
56.6900 722.0000 1.0000
56.7000 718.0000 1.0000
56.7100 695.0000 1.0000
56.7200 690.0000 1.0000
56.7300 677.0000 1.0000
56.7400 694.0000 1.0000
56.7500 679.0000 1.0000
56.7600 728.0000 1.0000
56.7700 736.0000 1.0000
56.7800 710.0000 1.0000
56.7900 728.0000 1.0000
56.8000 723.0000 1.0000
56.8100 698.0000 1.0000
56.8200 703.0000 1.0000
56.8300 696.0000 1.0000
56.8400 702.0000 1.0000
56.8500 722.0000 1.0000
56.8600 672.0000 1.0000
56.8700 696.0000 1.0000
56.8800 705.0000 1.0000
56.8900 680.0000 1.0000
56.9000 702.0000 1.0000
56.9100 715.0000 1.0000
56.9200 740.0000 1.0000
56.9300 718.0000 1.0000
56.9400 702.0000 1.0000
56.9500 685.0000 1.0000
56.9600 703.0000 1.0000
56.9700 695.0000 1.0000
56.9800 757.0000 1.0000
56.9900 710.0000 1.0000
57.0000 659.0000 1.0000
57.0100 682.0000 1.0000
57.0200 704.0000 1.0000
57.0300 710.0000 1.0000
57.0400 711.0000 1.0000
57.0500 711.0000 1.0000
57.0600 723.0000 1.0000
57.0700 725.0000 1.0000
57.0800 724.0000 1.0000
57.0900 677.0000 1.0000
57.1000 695.0000 1.0000
57.1100 675.0000 1.0000
57.1200 686.0000 1.0000
57.1300 714.0000 1.0000
57.1400 733.0000 1.0000
57.1500 718.0000 1.0000
57.1600 691.0000 1.0000
57.1700 692.0000 1.0000
57.1800 677.0000 1.0000
57.1900 671.0000 1.0000
57.2000 666.0000 1.0000
57.2100 710.0000 1.0000
57.2200 704.0000 1.0000
57.2300 691.0000 1.0000
57.2400 694.0000 1.0000
57.2500 730.0000 1.0000
57.2600 739.0000 1.0000
57.2700 711.0000 1.0000
57.2800 662.0000 1.0000
57.2900 695.0000 1.0000
57.3000 685.0000 1.0000
57.3100 738.0000 1.0000
57.3200 703.0000 1.0000
57.3300 731.0000 1.0000
57.3400 653.0000 1.0000
57.3500 674.0000 1.0000
57.3600 669.0000 1.0000
57.3700 681.0000 1.0000
57.3800 719.0000 1.0000
57.3900 679.0000 1.0000
57.4000 708.0000 1.0000
57.4100 698.0000 1.0000
57.4200 690.0000 1.0000
57.4300 676.0000 1.0000
57.4400 664.0000 1.0000
57.4500 683.0000 1.0000
57.4600 695.0000 1.0000
57.4700 697.0000 1.0000
57.4800 668.0000 1.0000
57.4900 668.0000 1.0000
57.5000 690.0000 1.0000
57.5100 682.0000 1.0000
57.5200 701.0000 1.0000
57.5300 695.0000 1.0000
57.5400 764.0000 1.0000
57.5500 749.0000 1.0000
57.5600 693.0000 1.0000
57.5700 695.0000 1.0000
57.5800 652.0000 1.0000
57.5900 709.0000 1.0000
57.6000 748.0000 1.0000
57.6100 687.0000 1.0000
57.6200 676.0000 1.0000
57.6300 676.0000 1.0000
57.6400 690.0000 1.0000
57.6500 709.0000 1.0000
57.6600 695.0000 1.0000
57.6700 657.0000 1.0000
57.6800 700.0000 1.0000
57.6900 690.0000 1.0000
57.7000 727.0000 1.0000
57.7100 681.0000 1.0000
57.7200 676.0000 1.0000
57.7300 666.0000 1.0000
57.7400 718.0000 1.0000
57.7500 717.0000 1.0000
57.7600 711.0000 1.0000
57.7700 707.0000 1.0000
57.7800 710.0000 1.0000
57.7900 715.0000 1.0000
57.8000 691.0000 1.0000
57.8100 663.0000 1.0000
57.8200 718.0000 1.0000
57.8300 646.0000 1.0000
57.8400 685.0000 1.0000
57.8500 681.0000 1.0000
57.8600 704.0000 1.0000
57.8700 698.0000 1.0000
57.8800 735.0000 1.0000
57.8900 715.0000 1.0000
57.9000 679.0000 1.0000
57.9100 688.0000 1.0000
57.9200 690.0000 1.0000
57.9300 715.0000 1.0000
57.9400 712.0000 1.0000
57.9500 741.0000 1.0000
57.9600 710.0000 1.0000
57.9700 697.0000 1.0000
57.9800 695.0000 1.0000
57.9900 701.0000 1.0000
58.0000 719.0000 1.0000
58.0100 688.0000 1.0000
58.0200 707.0000 1.0000
58.0300 708.0000 1.0000
58.0400 704.0000 1.0000
58.0500 675.0000 1.0000
58.0600 663.0000 1.0000
58.0700 733.0000 1.0000
58.0800 718.0000 1.0000
58.0900 710.0000 1.0000
58.1000 734.0000 1.0000
58.1100 741.0000 1.0000
58.1200 743.0000 1.0000
58.1300 738.0000 1.0000
58.1400 698.0000 1.0000
58.1500 695.0000 1.0000
58.1600 725.0000 1.0000
58.1700 735.0000 1.0000
58.1800 737.0000 1.0000
58.1900 685.0000 1.0000
58.2000 727.0000 1.0000
58.2100 722.0000 1.0000
58.2200 718.0000 1.0000
58.2300 692.0000 1.0000
58.2400 720.0000 1.0000
58.2500 712.0000 1.0000
58.2600 709.0000 1.0000
58.2700 742.0000 1.0000
58.2800 724.0000 1.0000
58.2900 666.0000 1.0000
58.3000 711.0000 1.0000
58.3100 713.0000 1.0000
58.3200 734.0000 1.0000
58.3300 717.0000 1.0000
58.3400 700.0000 1.0000
58.3500 708.0000 1.0000
58.3600 739.0000 1.0000
58.3700 709.0000 1.0000
58.3800 722.0000 1.0000
58.3900 685.0000 1.0000
58.4000 711.0000 1.0000
58.4100 693.0000 1.0000
58.4200 692.0000 1.0000
58.4300 718.0000 1.0000
58.4400 656.0000 1.0000
58.4500 765.0000 1.0000
58.4600 726.0000 1.0000
58.4700 705.0000 1.0000
58.4800 712.0000 1.0000
58.4900 728.0000 1.0000
58.5000 707.0000 1.0000
58.5100 722.0000 1.0000
58.5200 708.0000 1.0000
58.5300 702.0000 1.0000
58.5400 670.0000 1.0000
58.5500 693.0000 1.0000
58.5600 676.0000 1.0000
58.5700 675.0000 1.0000
58.5800 668.0000 1.0000
58.5900 721.0000 1.0000
58.6000 689.0000 1.0000
58.6100 723.0000 1.0000
58.6200 742.0000 1.0000
58.6300 719.0000 1.0000
58.6400 705.0000 1.0000
58.6500 665.0000 1.0000
58.6600 679.0000 1.0000
58.6700 673.0000 1.0000
58.6800 732.0000 1.0000
58.6900 682.0000 1.0000
58.7000 692.0000 1.0000
58.7100 683.0000 1.0000
58.7200 664.0000 1.0000
58.7300 749.0000 1.0000
58.7400 679.0000 1.0000
58.7500 716.0000 1.0000
58.7600 702.0000 1.0000
58.7700 692.0000 1.0000
58.7800 716.0000 1.0000
58.7900 746.0000 1.0000
58.8000 692.0000 1.0000
58.8100 670.0000 1.0000
58.8200 716.0000 1.0000
58.8300 696.0000 1.0000
58.8400 666.0000 1.0000
58.8500 682.0000 1.0000
58.8600 705.0000 1.0000
58.8700 708.0000 1.0000
58.8800 703.0000 1.0000
58.8900 702.0000 1.0000
58.9000 727.0000 1.0000
58.9100 711.0000 1.0000
58.9200 689.0000 1.0000
58.9300 657.0000 1.0000
58.9400 709.0000 1.0000
58.9500 700.0000 1.0000
58.9600 712.0000 1.0000
58.9700 724.0000 1.0000
58.9800 723.0000 1.0000
58.9900 704.0000 1.0000
59.0000 672.0000 1.0000
59.0100 691.0000 1.0000
59.0200 732.0000 1.0000
59.0300 670.0000 1.0000
59.0400 709.0000 1.0000
59.0500 707.0000 1.0000
59.0600 680.0000 1.0000
59.0700 683.0000 1.0000
59.0800 719.0000 1.0000
59.0900 660.0000 1.0000
59.1000 684.0000 1.0000
59.1100 687.0000 1.0000
59.1200 679.0000 1.0000
59.1300 704.0000 1.0000
59.1400 699.0000 1.0000
59.1500 697.0000 1.0000
59.1600 737.0000 1.0000
59.1700 735.0000 1.0000
59.1800 688.0000 1.0000
59.1900 707.0000 1.0000
59.2000 678.0000 1.0000
59.2100 708.0000 1.0000
59.2200 691.0000 1.0000
59.2300 687.0000 1.0000
59.2400 681.0000 1.0000
59.2500 726.0000 1.0000
59.2600 725.0000 1.0000
59.2700 713.0000 1.0000
59.2800 676.0000 1.0000
59.2900 721.0000 1.0000
59.3000 715.0000 1.0000
59.3100 704.0000 1.0000
59.3200 722.0000 1.0000
59.3300 717.0000 1.0000
59.3400 713.0000 1.0000
59.3500 684.0000 1.0000
59.3600 700.0000 1.0000
59.3700 704.0000 1.0000
59.3800 690.0000 1.0000
59.3900 696.0000 1.0000
59.4000 689.0000 1.0000
59.4100 650.0000 1.0000
59.4200 670.0000 1.0000
59.4300 685.0000 1.0000
59.4400 687.0000 1.0000
59.4500 680.0000 1.0000
59.4600 714.0000 1.0000
59.4700 678.0000 1.0000
59.4800 706.0000 1.0000
59.4900 717.0000 1.0000
59.5000 686.0000 1.0000
59.5100 656.0000 1.0000
59.5200 715.0000 1.0000
59.5300 690.0000 1.0000
59.5400 690.0000 1.0000
59.5500 661.0000 1.0000
59.5600 658.0000 1.0000
59.5700 706.0000 1.0000
59.5800 674.0000 1.0000
59.5900 699.0000 1.0000
59.6000 725.0000 1.0000
59.6100 697.0000 1.0000
59.6200 725.0000 1.0000
59.6300 663.0000 1.0000
59.6400 664.0000 1.0000
59.6500 687.0000 1.0000
59.6600 743.0000 1.0000
59.6700 688.0000 1.0000
59.6800 721.0000 1.0000
59.6900 711.0000 1.0000
59.7000 693.0000 1.0000
59.7100 692.0000 1.0000
59.7200 669.0000 1.0000
59.7300 621.0000 1.0000
59.7400 723.0000 1.0000
59.7500 707.0000 1.0000
59.7600 654.0000 1.0000
59.7700 683.0000 1.0000
59.7800 725.0000 1.0000
59.7900 665.0000 1.0000
59.8000 670.0000 1.0000
59.8100 672.0000 1.0000
59.8200 680.0000 1.0000
59.8300 671.0000 1.0000
59.8400 676.0000 1.0000
59.8500 691.0000 1.0000
59.8600 714.0000 1.0000
59.8700 723.0000 1.0000
59.8800 737.0000 1.0000
59.8900 715.0000 1.0000
59.9000 635.0000 1.0000
59.9100 724.0000 1.0000
59.9200 712.0000 1.0000
59.9300 712.0000 1.0000
59.9400 709.0000 1.0000
59.9500 716.0000 1.0000
59.9600 729.0000 1.0000
59.9700 635.0000 1.0000
59.9800 699.0000 1.0000
59.9900 697.0000 1.0000
60.0000 694.0000 1.0000
60.0100 704.0000 1.0000
60.0200 691.0000 1.0000
60.0300 668.0000 1.0000
60.0400 676.0000 1.0000
60.0500 675.0000 1.0000
60.0600 644.0000 1.0000
60.0700 692.0000 1.0000
60.0800 704.0000 1.0000
60.0900 683.0000 1.0000
60.1000 635.0000 1.0000
60.1100 716.0000 1.0000
60.1200 737.0000 1.0000
60.1300 677.0000 1.0000
60.1400 673.0000 1.0000
60.1500 721.0000 1.0000
60.1600 713.0000 1.0000
60.1700 685.0000 1.0000
60.1800 678.0000 1.0000
60.1900 697.0000 1.0000
60.2000 691.0000 1.0000
60.2100 731.0000 1.0000
60.2200 697.0000 1.0000
60.2300 658.0000 1.0000
60.2400 697.0000 1.0000
60.2500 671.0000 1.0000
60.2600 662.0000 1.0000
60.2700 702.0000 1.0000
60.2800 723.0000 1.0000
60.2900 691.0000 1.0000
60.3000 659.0000 1.0000
60.3100 669.0000 1.0000
60.3200 688.0000 1.0000
60.3300 682.0000 1.0000
60.3400 743.0000 1.0000
60.3500 693.0000 1.0000
60.3600 691.0000 1.0000
60.3700 734.0000 1.0000
60.3800 692.0000 1.0000
60.3900 682.0000 1.0000
60.4000 659.0000 1.0000
60.4100 724.0000 1.0000
60.4200 694.0000 1.0000
60.4300 709.0000 1.0000
60.4400 732.0000 1.0000
60.4500 695.0000 1.0000
60.4600 661.0000 1.0000
60.4700 674.0000 1.0000
60.4800 696.0000 1.0000
60.4900 700.0000 1.0000
60.5000 675.0000 1.0000
60.5100 705.0000 1.0000
60.5200 709.0000 1.0000
60.5300 642.0000 1.0000
60.5400 690.0000 1.0000
60.5500 731.0000 1.0000
60.5600 682.0000 1.0000
60.5700 620.0000 1.0000
60.5800 696.0000 1.0000
60.5900 684.0000 1.0000
60.6000 680.0000 1.0000
60.6100 700.0000 1.0000
60.6200 702.0000 1.0000
60.6300 703.0000 1.0000
60.6400 641.0000 1.0000
60.6500 695.0000 1.0000
60.6600 710.0000 1.0000
60.6700 653.0000 1.0000
60.6800 684.0000 1.0000
60.6900 677.0000 1.0000
60.7000 665.0000 1.0000
60.7100 720.0000 1.0000
60.7200 695.0000 1.0000
60.7300 682.0000 1.0000
60.7400 711.0000 1.0000
60.7500 748.0000 1.0000
60.7600 664.0000 1.0000
60.7700 714.0000 1.0000
60.7800 685.0000 1.0000
60.7900 699.0000 1.0000
60.8000 710.0000 1.0000
60.8100 704.0000 1.0000
60.8200 711.0000 1.0000
60.8300 693.0000 1.0000
60.8400 642.0000 1.0000
60.8500 698.0000 1.0000
60.8600 653.0000 1.0000
60.8700 656.0000 1.0000
60.8800 691.0000 1.0000
60.8900 680.0000 1.0000
60.9000 641.0000 1.0000
60.9100 680.0000 1.0000
60.9200 742.0000 1.0000
60.9300 678.0000 1.0000
60.9400 695.0000 1.0000
60.9500 693.0000 1.0000
60.9600 732.0000 1.0000
60.9700 714.0000 1.0000
60.9800 658.0000 1.0000
60.9900 668.0000 1.0000
61.0000 690.0000 1.0000
61.0100 723.0000 1.0000
61.0200 679.0000 1.0000
61.0300 666.0000 1.0000
61.0400 675.0000 1.0000
61.0500 678.0000 1.0000
61.0600 687.0000 1.0000
61.0700 688.0000 1.0000
61.0800 707.0000 1.0000
61.0900 685.0000 1.0000
61.1000 683.0000 1.0000
61.1100 732.0000 1.0000
61.1200 710.0000 1.0000
61.1300 681.0000 1.0000
61.1400 640.0000 1.0000
61.1500 710.0000 1.0000
61.1600 718.0000 1.0000
61.1700 680.0000 1.0000
61.1800 693.0000 1.0000
61.1900 710.0000 1.0000
61.2000 703.0000 1.0000
61.2100 676.0000 1.0000
61.2200 681.0000 1.0000
61.2300 708.0000 1.0000
61.2400 680.0000 1.0000
61.2500 655.0000 1.0000
61.2600 723.0000 1.0000
61.2700 712.0000 1.0000
61.2800 703.0000 1.0000
61.2900 722.0000 1.0000
61.3000 727.0000 1.0000
61.3100 689.0000 1.0000
61.3200 687.0000 1.0000
61.3300 676.0000 1.0000
61.3400 687.0000 1.0000
61.3500 702.0000 1.0000
61.3600 729.0000 1.0000
61.3700 718.0000 1.0000
61.3800 685.0000 1.0000
61.3900 702.0000 1.0000
61.4000 691.0000 1.0000
61.4100 706.0000 1.0000
61.4200 715.0000 1.0000
61.4300 682.0000 1.0000
61.4400 704.0000 1.0000
61.4500 732.0000 1.0000
61.4600 738.0000 1.0000
61.4700 696.0000 1.0000
61.4800 726.0000 1.0000
61.4900 711.0000 1.0000
61.5000 715.0000 1.0000
61.5100 706.0000 1.0000
61.5200 710.0000 1.0000
61.5300 719.0000 1.0000
61.5400 732.0000 1.0000
61.5500 692.0000 1.0000
61.5600 689.0000 1.0000
61.5700 674.0000 1.0000
61.5800 739.0000 1.0000
61.5900 700.0000 1.0000
61.6000 689.0000 1.0000
61.6100 739.0000 1.0000
61.6200 737.0000 1.0000
61.6300 691.0000 1.0000
61.6400 700.0000 1.0000
61.6500 735.0000 1.0000
61.6600 728.0000 1.0000
61.6700 779.0000 1.0000
61.6800 710.0000 1.0000
61.6900 681.0000 1.0000
61.7000 692.0000 1.0000
61.7100 758.0000 1.0000
61.7200 797.0000 1.0000
61.7300 764.0000 1.0000
61.7400 733.0000 1.0000
61.7500 695.0000 1.0000
61.7600 719.0000 1.0000
61.7700 737.0000 1.0000
61.7800 705.0000 1.0000
61.7900 702.0000 1.0000
61.8000 750.0000 1.0000
61.8100 766.0000 1.0000
61.8200 791.0000 1.0000
61.8300 741.0000 1.0000
61.8400 746.0000 1.0000
61.8500 697.0000 1.0000
61.8600 764.0000 1.0000
61.8700 745.0000 1.0000
61.8800 801.0000 1.0000
61.8900 770.0000 1.0000
61.9000 799.0000 1.0000
61.9100 827.0000 1.0000
61.9200 841.0000 1.0000
61.9300 827.0000 1.0000
61.9400 816.0000 1.0000
61.9500 845.0000 1.0000
61.9600 803.0000 1.0000
61.9700 811.0000 1.0000
61.9800 863.0000 1.0000
61.9900 888.0000 1.0000
62.0000 856.0000 1.0000
62.0100 878.0000 1.0000
62.0200 870.0000 1.0000
62.0300 913.0000 1.0000
62.0400 918.0000 1.0000
62.0500 970.0000 1.0000
62.0600 973.0000 1.0000
62.0700 910.0000 1.0000
62.0800 959.0000 1.0000
62.0900 976.0000 1.0000
62.1000 1079.0000 1.0000
62.1100 1128.0000 1.0000
62.1200 1134.0000 1.0000
62.1300 1141.0000 1.0000
62.1400 1160.0000 1.0000
62.1500 1207.0000 1.0000
62.1600 1291.0000 1.0000
62.1700 1278.0000 1.0000
62.1800 1264.0000 1.0000
62.1900 1312.0000 1.0000
62.2000 1329.0000 1.0000
62.2100 1435.0000 1.0000
62.2200 1474.0000 1.0000
62.2300 1450.0000 1.0000
62.2400 1520.0000 1.0000
62.2500 1562.0000 1.0000
62.2600 1536.0000 1.0000
62.2700 1609.0000 1.0000
62.2800 1608.0000 1.0000
62.2900 1670.0000 1.0000
62.3000 1603.0000 1.0000
62.3100 1576.0000 1.0000
62.3200 1667.0000 1.0000
62.3300 1659.0000 1.0000
62.3400 1595.0000 1.0000
62.3500 1565.0000 1.0000
62.3600 1636.0000 1.0000
62.3700 1645.0000 1.0000
62.3800 1608.0000 1.0000
62.3900 1623.0000 1.0000
62.4000 1581.0000 1.0000
62.4100 1600.0000 1.0000
62.4200 1546.0000 1.0000
62.4300 1501.0000 1.0000
62.4400 1495.0000 1.0000
62.4500 1484.0000 1.0000
62.4600 1455.0000 1.0000
62.4700 1426.0000 1.0000
62.4800 1415.0000 1.0000
62.4900 1379.0000 1.0000
62.5000 1394.0000 1.0000
62.5100 1356.0000 1.0000
62.5200 1304.0000 1.0000
62.5300 1285.0000 1.0000
62.5400 1235.0000 1.0000
62.5500 1190.0000 1.0000
62.5600 1190.0000 1.0000
62.5700 1192.0000 1.0000
62.5800 1171.0000 1.0000
62.5900 1080.0000 1.0000
62.6000 1065.0000 1.0000
62.6100 1097.0000 1.0000
62.6200 1077.0000 1.0000
62.6300 1031.0000 1.0000
62.6400 1063.0000 1.0000
62.6500 1012.0000 1.0000
62.6600 983.0000 1.0000
62.6700 968.0000 1.0000
62.6800 939.0000 1.0000
62.6900 958.0000 1.0000
62.7000 931.0000 1.0000
62.7100 903.0000 1.0000
62.7200 916.0000 1.0000
62.7300 935.0000 1.0000
62.7400 890.0000 1.0000
62.7500 907.0000 1.0000
62.7600 886.0000 1.0000
62.7700 805.0000 1.0000
62.7800 804.0000 1.0000
62.7900 816.0000 1.0000
62.8000 825.0000 1.0000
62.8100 829.0000 1.0000
62.8200 830.0000 1.0000
62.8300 893.0000 1.0000
62.8400 827.0000 1.0000
62.8500 826.0000 1.0000
62.8600 825.0000 1.0000
62.8700 802.0000 1.0000
62.8800 786.0000 1.0000
62.8900 750.0000 1.0000
62.9000 776.0000 1.0000
62.9100 790.0000 1.0000
62.9200 789.0000 1.0000
62.9300 769.0000 1.0000
62.9400 808.0000 1.0000
62.9500 780.0000 1.0000
62.9600 746.0000 1.0000
62.9700 762.0000 1.0000
62.9800 716.0000 1.0000
62.9900 780.0000 1.0000
63.0000 729.0000 1.0000
63.0100 749.0000 1.0000
63.0200 733.0000 1.0000
63.0300 745.0000 1.0000
63.0400 781.0000 1.0000
63.0500 798.0000 1.0000
63.0600 801.0000 1.0000
63.0700 786.0000 1.0000
63.0800 798.0000 1.0000
63.0900 807.0000 1.0000
63.1000 774.0000 1.0000
63.1100 766.0000 1.0000
63.1200 754.0000 1.0000
63.1300 772.0000 1.0000
63.1400 751.0000 1.0000
63.1500 768.0000 1.0000
63.1600 758.0000 1.0000
63.1700 784.0000 1.0000
63.1800 759.0000 1.0000
63.1900 761.0000 1.0000
63.2000 746.0000 1.0000
63.2100 724.0000 1.0000
63.2200 769.0000 1.0000
63.2300 716.0000 1.0000
63.2400 720.0000 1.0000
63.2500 765.0000 1.0000
63.2600 737.0000 1.0000
63.2700 720.0000 1.0000
63.2800 700.0000 1.0000
63.2900 746.0000 1.0000
63.3000 710.0000 1.0000
63.3100 750.0000 1.0000
63.3200 761.0000 1.0000
63.3300 730.0000 1.0000
63.3400 727.0000 1.0000
63.3500 752.0000 1.0000
63.3600 722.0000 1.0000
63.3700 700.0000 1.0000
63.3800 756.0000 1.0000
63.3900 710.0000 1.0000
63.4000 701.0000 1.0000
63.4100 714.0000 1.0000
63.4200 660.0000 1.0000
63.4300 668.0000 1.0000
63.4400 673.0000 1.0000
63.4500 744.0000 1.0000
63.4600 695.0000 1.0000
63.4700 708.0000 1.0000
63.4800 716.0000 1.0000
63.4900 697.0000 1.0000
63.5000 710.0000 1.0000
63.5100 700.0000 1.0000
63.5200 693.0000 1.0000
63.5300 721.0000 1.0000
63.5400 723.0000 1.0000
63.5500 721.0000 1.0000
63.5600 685.0000 1.0000
63.5700 662.0000 1.0000
63.5800 697.0000 1.0000
63.5900 761.0000 1.0000
63.6000 703.0000 1.0000
63.6100 715.0000 1.0000
63.6200 718.0000 1.0000
63.6300 679.0000 1.0000
63.6400 715.0000 1.0000
63.6500 656.0000 1.0000
63.6600 713.0000 1.0000
63.6700 734.0000 1.0000
63.6800 701.0000 1.0000
63.6900 690.0000 1.0000
63.7000 738.0000 1.0000
63.7100 697.0000 1.0000
63.7200 663.0000 1.0000
63.7300 703.0000 1.0000
63.7400 675.0000 1.0000
63.7500 721.0000 1.0000
63.7600 699.0000 1.0000
63.7700 704.0000 1.0000
63.7800 708.0000 1.0000
63.7900 673.0000 1.0000
63.8000 669.0000 1.0000
63.8100 731.0000 1.0000
63.8200 688.0000 1.0000
63.8300 668.0000 1.0000
63.8400 688.0000 1.0000
63.8500 737.0000 1.0000
63.8600 684.0000 1.0000
63.8700 702.0000 1.0000
63.8800 707.0000 1.0000
63.8900 746.0000 1.0000
63.9000 705.0000 1.0000
63.9100 715.0000 1.0000
63.9200 740.0000 1.0000
63.9300 692.0000 1.0000
63.9400 691.0000 1.0000
63.9500 658.0000 1.0000
63.9600 720.0000 1.0000
63.9700 710.0000 1.0000
63.9800 719.0000 1.0000
63.9900 693.0000 1.0000
64.0000 702.0000 1.0000
64.0100 679.0000 1.0000
64.0200 664.0000 1.0000
64.0300 709.0000 1.0000
64.0400 742.0000 1.0000
64.0500 682.0000 1.0000
64.0600 695.0000 1.0000
64.0700 725.0000 1.0000
64.0800 729.0000 1.0000
64.0900 694.0000 1.0000
64.1000 679.0000 1.0000
64.1100 692.0000 1.0000
64.1200 687.0000 1.0000
64.1300 697.0000 1.0000
64.1400 687.0000 1.0000
64.1500 689.0000 1.0000
64.1600 690.0000 1.0000
64.1700 727.0000 1.0000
64.1800 704.0000 1.0000
64.1900 751.0000 1.0000
64.2000 719.0000 1.0000
64.2100 724.0000 1.0000
64.2200 677.0000 1.0000
64.2300 693.0000 1.0000
64.2400 693.0000 1.0000
64.2500 717.0000 1.0000
64.2600 667.0000 1.0000
64.2700 675.0000 1.0000
64.2800 670.0000 1.0000
64.2900 683.0000 1.0000
64.3000 737.0000 1.0000
64.3100 730.0000 1.0000
64.3200 729.0000 1.0000
64.3300 655.0000 1.0000
64.3400 689.0000 1.0000
64.3500 774.0000 1.0000
64.3600 722.0000 1.0000
64.3700 726.0000 1.0000
64.3800 695.0000 1.0000
64.3900 672.0000 1.0000
64.4000 696.0000 1.0000
64.4100 684.0000 1.0000
64.4200 728.0000 1.0000
64.4300 714.0000 1.0000
64.4400 746.0000 1.0000
64.4500 730.0000 1.0000
64.4600 757.0000 1.0000
64.4700 690.0000 1.0000
64.4800 675.0000 1.0000
64.4900 719.0000 1.0000
64.5000 756.0000 1.0000
64.5100 719.0000 1.0000
64.5200 746.0000 1.0000
64.5300 715.0000 1.0000
64.5400 731.0000 1.0000
64.5500 775.0000 1.0000
64.5600 787.0000 1.0000
64.5700 785.0000 1.0000
64.5800 763.0000 1.0000
64.5900 792.0000 1.0000
64.6000 772.0000 1.0000
64.6100 807.0000 1.0000
64.6200 856.0000 1.0000
64.6300 843.0000 1.0000
64.6400 846.0000 1.0000
64.6500 918.0000 1.0000
64.6600 932.0000 1.0000
64.6700 906.0000 1.0000
64.6800 926.0000 1.0000
64.6900 948.0000 1.0000
64.7000 947.0000 1.0000
64.7100 964.0000 1.0000
64.7200 956.0000 1.0000
64.7300 889.0000 1.0000
64.7400 879.0000 1.0000
64.7500 908.0000 1.0000
64.7600 892.0000 1.0000
64.7700 869.0000 1.0000
64.7800 840.0000 1.0000
64.7900 869.0000 1.0000
64.8000 837.0000 1.0000
64.8100 797.0000 1.0000
64.8200 869.0000 1.0000
64.8300 843.0000 1.0000
64.8400 867.0000 1.0000
64.8500 879.0000 1.0000
64.8600 857.0000 1.0000
64.8700 829.0000 1.0000
64.8800 801.0000 1.0000
64.8900 850.0000 1.0000
64.9000 855.0000 1.0000
64.9100 823.0000 1.0000
64.9200 802.0000 1.0000
64.9300 839.0000 1.0000
64.9400 754.0000 1.0000
64.9500 795.0000 1.0000
64.9600 809.0000 1.0000
64.9700 761.0000 1.0000
64.9800 792.0000 1.0000
64.9900 783.0000 1.0000
65.0000 789.0000 1.0000
65.0100 784.0000 1.0000
65.0200 770.0000 1.0000
65.0300 758.0000 1.0000
65.0400 718.0000 1.0000
65.0500 749.0000 1.0000
65.0600 755.0000 1.0000
65.0700 748.0000 1.0000
65.0800 708.0000 1.0000
65.0900 706.0000 1.0000
65.1000 768.0000 1.0000
65.1100 727.0000 1.0000
65.1200 731.0000 1.0000
65.1300 759.0000 1.0000
65.1400 770.0000 1.0000
65.1500 758.0000 1.0000
65.1600 720.0000 1.0000
65.1700 721.0000 1.0000
65.1800 710.0000 1.0000
65.1900 696.0000 1.0000
65.2000 740.0000 1.0000
65.2100 704.0000 1.0000
65.2200 693.0000 1.0000
65.2300 733.0000 1.0000
65.2400 750.0000 1.0000
65.2500 729.0000 1.0000
65.2600 742.0000 1.0000
65.2700 731.0000 1.0000
65.2800 691.0000 1.0000
65.2900 703.0000 1.0000
65.3000 702.0000 1.0000
65.3100 731.0000 1.0000
65.3200 762.0000 1.0000
65.3300 718.0000 1.0000
65.3400 746.0000 1.0000
65.3500 754.0000 1.0000
65.3600 680.0000 1.0000
65.3700 690.0000 1.0000
65.3800 734.0000 1.0000
65.3900 714.0000 1.0000
65.4000 710.0000 1.0000
65.4100 736.0000 1.0000
65.4200 729.0000 1.0000
65.4300 752.0000 1.0000
65.4400 719.0000 1.0000
65.4500 772.0000 1.0000
65.4600 688.0000 1.0000
65.4700 722.0000 1.0000
65.4800 759.0000 1.0000
65.4900 733.0000 1.0000
65.5000 687.0000 1.0000
65.5100 717.0000 1.0000
65.5200 736.0000 1.0000
65.5300 709.0000 1.0000
65.5400 688.0000 1.0000
65.5500 716.0000 1.0000
65.5600 702.0000 1.0000
65.5700 714.0000 1.0000
65.5800 751.0000 1.0000
65.5900 739.0000 1.0000
65.6000 760.0000 1.0000
65.6100 751.0000 1.0000
65.6200 754.0000 1.0000
65.6300 770.0000 1.0000
65.6400 762.0000 1.0000
65.6500 707.0000 1.0000
65.6600 696.0000 1.0000
65.6700 779.0000 1.0000
65.6800 786.0000 1.0000
65.6900 755.0000 1.0000
65.7000 771.0000 1.0000
65.7100 750.0000 1.0000
65.7200 737.0000 1.0000
65.7300 750.0000 1.0000
65.7400 738.0000 1.0000
65.7500 771.0000 1.0000
65.7600 748.0000 1.0000
65.7700 773.0000 1.0000
65.7800 821.0000 1.0000
65.7900 825.0000 1.0000
65.8000 791.0000 1.0000
65.8100 781.0000 1.0000
65.8200 791.0000 1.0000
65.8300 819.0000 1.0000
65.8400 777.0000 1.0000
65.8500 795.0000 1.0000
65.8600 827.0000 1.0000
65.8700 832.0000 1.0000
65.8800 877.0000 1.0000
65.8900 872.0000 1.0000
65.9000 885.0000 1.0000
65.9100 922.0000 1.0000
65.9200 879.0000 1.0000
65.9300 974.0000 1.0000
65.9400 928.0000 1.0000
65.9500 890.0000 1.0000
65.9600 938.0000 1.0000
65.9700 930.0000 1.0000
65.9800 989.0000 1.0000
65.9900 982.0000 1.0000
66.0000 1039.0000 1.0000
66.0100 1064.0000 1.0000
66.0200 1091.0000 1.0000
66.0300 1115.0000 1.0000
66.0400 1097.0000 1.0000
66.0500 1167.0000 1.0000
66.0600 1177.0000 1.0000
66.0700 1203.0000 1.0000
66.0800 1245.0000 1.0000
66.0900 1336.0000 1.0000
66.1000 1358.0000 1.0000
66.1100 1384.0000 1.0000
66.1200 1508.0000 1.0000
66.1300 1606.0000 1.0000
66.1400 1666.0000 1.0000
66.1500 1775.0000 1.0000
66.1600 1831.0000 1.0000
66.1700 1890.0000 1.0000
66.1800 1956.0000 1.0000
66.1900 2091.0000 1.0000
66.2000 2270.0000 1.0000
66.2100 2338.0000 1.0000
66.2200 2580.0000 1.0000
66.2300 2547.0000 1.0000
66.2400 2552.0000 1.0000
66.2500 2727.0000 1.0000
66.2600 2810.0000 1.0000
66.2700 2743.0000 1.0000
66.2800 2825.0000 1.0000
66.2900 2825.0000 1.0000
66.3000 2851.0000 1.0000
66.3100 2812.0000 1.0000
66.3200 2775.0000 1.0000
66.3300 2647.0000 1.0000
66.3400 2571.0000 1.0000
66.3500 2568.0000 1.0000
66.3600 2440.0000 1.0000
66.3700 2416.0000 1.0000
66.3800 2382.0000 1.0000
66.3900 2399.0000 1.0000
66.4000 2392.0000 1.0000
66.4100 2361.0000 1.0000
66.4200 2329.0000 1.0000
66.4300 2313.0000 1.0000
66.4400 2252.0000 1.0000
66.4500 2223.0000 1.0000
66.4600 2196.0000 1.0000
66.4700 2129.0000 1.0000
66.4800 2062.0000 1.0000
66.4900 2021.0000 1.0000
66.5000 1962.0000 1.0000
66.5100 1929.0000 1.0000
66.5200 1822.0000 1.0000
66.5300 1766.0000 1.0000
66.5400 1744.0000 1.0000
66.5500 1613.0000 1.0000
66.5600 1465.0000 1.0000
66.5700 1524.0000 1.0000
66.5800 1431.0000 1.0000
66.5900 1412.0000 1.0000
66.6000 1285.0000 1.0000
66.6100 1278.0000 1.0000
66.6200 1195.0000 1.0000
66.6300 1171.0000 1.0000
66.6400 1157.0000 1.0000
66.6500 1144.0000 1.0000
66.6600 1112.0000 1.0000
66.6700 1033.0000 1.0000
66.6800 1018.0000 1.0000
66.6900 1002.0000 1.0000
66.7000 1067.0000 1.0000
66.7100 934.0000 1.0000
66.7200 950.0000 1.0000
66.7300 909.0000 1.0000
66.7400 939.0000 1.0000
66.7500 864.0000 1.0000
66.7600 839.0000 1.0000
66.7700 930.0000 1.0000
66.7800 882.0000 1.0000
66.7900 847.0000 1.0000
66.8000 801.0000 1.0000
66.8100 845.0000 1.0000
66.8200 826.0000 1.0000
66.8300 856.0000 1.0000
66.8400 819.0000 1.0000
66.8500 792.0000 1.0000
66.8600 786.0000 1.0000
66.8700 786.0000 1.0000
66.8800 769.0000 1.0000
66.8900 759.0000 1.0000
66.9000 781.0000 1.0000
66.9100 785.0000 1.0000
66.9200 778.0000 1.0000
66.9300 831.0000 1.0000
66.9400 797.0000 1.0000
66.9500 756.0000 1.0000
66.9600 746.0000 1.0000
66.9700 726.0000 1.0000
66.9800 721.0000 1.0000
66.9900 710.0000 1.0000
67.0000 737.0000 1.0000
67.0100 697.0000 1.0000
67.0200 701.0000 1.0000
67.0300 704.0000 1.0000
67.0400 704.0000 1.0000
67.0500 748.0000 1.0000
67.0600 736.0000 1.0000
67.0700 687.0000 1.0000
67.0800 697.0000 1.0000
67.0900 741.0000 1.0000
67.1000 712.0000 1.0000
67.1100 724.0000 1.0000
67.1200 719.0000 1.0000
67.1300 714.0000 1.0000
67.1400 688.0000 1.0000
67.1500 695.0000 1.0000
67.1600 710.0000 1.0000
67.1700 720.0000 1.0000
67.1800 686.0000 1.0000
67.1900 683.0000 1.0000
67.2000 661.0000 1.0000
67.2100 708.0000 1.0000
67.2200 690.0000 1.0000
67.2300 690.0000 1.0000
67.2400 660.0000 1.0000
67.2500 703.0000 1.0000
67.2600 652.0000 1.0000
67.2700 693.0000 1.0000
67.2800 688.0000 1.0000
67.2900 666.0000 1.0000
67.3000 683.0000 1.0000
67.3100 699.0000 1.0000
67.3200 680.0000 1.0000
67.3300 674.0000 1.0000
67.3400 721.0000 1.0000
67.3500 652.0000 1.0000
67.3600 660.0000 1.0000
67.3700 667.0000 1.0000
67.3800 626.0000 1.0000
67.3900 683.0000 1.0000
67.4000 632.0000 1.0000
67.4100 680.0000 1.0000
67.4200 639.0000 1.0000
67.4300 675.0000 1.0000
67.4400 646.0000 1.0000
67.4500 682.0000 1.0000
67.4600 693.0000 1.0000
67.4700 709.0000 1.0000
67.4800 670.0000 1.0000
67.4900 617.0000 1.0000
67.5000 632.0000 1.0000
67.5100 660.0000 1.0000
67.5200 659.0000 1.0000
67.5300 641.0000 1.0000
67.5400 658.0000 1.0000
67.5500 676.0000 1.0000
67.5600 716.0000 1.0000
67.5700 685.0000 1.0000
67.5800 644.0000 1.0000
67.5900 670.0000 1.0000
67.6000 657.0000 1.0000
67.6100 672.0000 1.0000
67.6200 673.0000 1.0000
67.6300 645.0000 1.0000
67.6400 664.0000 1.0000
67.6500 682.0000 1.0000
67.6600 642.0000 1.0000
67.6700 646.0000 1.0000
67.6800 663.0000 1.0000
67.6900 642.0000 1.0000
67.7000 663.0000 1.0000
67.7100 660.0000 1.0000
67.7200 647.0000 1.0000
67.7300 656.0000 1.0000
67.7400 636.0000 1.0000
67.7500 666.0000 1.0000
67.7600 660.0000 1.0000
67.7700 653.0000 1.0000
67.7800 663.0000 1.0000
67.7900 665.0000 1.0000
67.8000 680.0000 1.0000
67.8100 663.0000 1.0000
67.8200 640.0000 1.0000
67.8300 635.0000 1.0000
67.8400 628.0000 1.0000
67.8500 631.0000 1.0000
67.8600 663.0000 1.0000
67.8700 617.0000 1.0000
67.8800 650.0000 1.0000
67.8900 688.0000 1.0000
67.9000 632.0000 1.0000
67.9100 602.0000 1.0000
67.9200 657.0000 1.0000
67.9300 624.0000 1.0000
67.9400 650.0000 1.0000
67.9500 668.0000 1.0000
67.9600 693.0000 1.0000
67.9700 654.0000 1.0000
67.9800 689.0000 1.0000
67.9900 678.0000 1.0000
68.0000 660.0000 1.0000
68.0100 677.0000 1.0000
68.0200 643.0000 1.0000
68.0300 634.0000 1.0000
68.0400 648.0000 1.0000
68.0500 649.0000 1.0000
68.0600 674.0000 1.0000
68.0700 669.0000 1.0000
68.0800 643.0000 1.0000
68.0900 640.0000 1.0000
68.1000 648.0000 1.0000
68.1100 663.0000 1.0000
68.1200 660.0000 1.0000
68.1300 631.0000 1.0000
68.1400 627.0000 1.0000
68.1500 627.0000 1.0000
68.1600 648.0000 1.0000
68.1700 649.0000 1.0000
68.1800 605.0000 1.0000
68.1900 642.0000 1.0000
68.2000 623.0000 1.0000
68.2100 651.0000 1.0000
68.2200 643.0000 1.0000
68.2300 678.0000 1.0000
68.2400 629.0000 1.0000
68.2500 604.0000 1.0000
68.2600 652.0000 1.0000
68.2700 656.0000 1.0000
68.2800 621.0000 1.0000
68.2900 636.0000 1.0000
68.3000 608.0000 1.0000
68.3100 622.0000 1.0000
68.3200 658.0000 1.0000
68.3300 650.0000 1.0000
68.3400 644.0000 1.0000
68.3500 641.0000 1.0000
68.3600 671.0000 1.0000
68.3700 645.0000 1.0000
68.3800 607.0000 1.0000
68.3900 634.0000 1.0000
68.4000 625.0000 1.0000
68.4100 643.0000 1.0000
68.4200 632.0000 1.0000
68.4300 622.0000 1.0000
68.4400 631.0000 1.0000
68.4500 689.0000 1.0000
68.4600 680.0000 1.0000
68.4700 690.0000 1.0000
68.4800 640.0000 1.0000
68.4900 639.0000 1.0000
68.5000 653.0000 1.0000
68.5100 609.0000 1.0000
68.5200 649.0000 1.0000
68.5300 604.0000 1.0000
68.5400 601.0000 1.0000
68.5500 633.0000 1.0000
68.5600 682.0000 1.0000
68.5700 629.0000 1.0000
68.5800 625.0000 1.0000
68.5900 666.0000 1.0000
68.6000 636.0000 1.0000
68.6100 614.0000 1.0000
68.6200 645.0000 1.0000
68.6300 611.0000 1.0000
68.6400 628.0000 1.0000
68.6500 638.0000 1.0000
68.6600 634.0000 1.0000
68.6700 664.0000 1.0000
68.6800 635.0000 1.0000
68.6900 641.0000 1.0000
68.7000 605.0000 1.0000
68.7100 652.0000 1.0000
68.7200 621.0000 1.0000
68.7300 661.0000 1.0000
68.7400 652.0000 1.0000
68.7500 625.0000 1.0000
68.7600 620.0000 1.0000
68.7700 601.0000 1.0000
68.7800 603.0000 1.0000
68.7900 620.0000 1.0000
68.8000 605.0000 1.0000
68.8100 618.0000 1.0000
68.8200 615.0000 1.0000
68.8300 593.0000 1.0000
68.8400 627.0000 1.0000
68.8500 650.0000 1.0000
68.8600 594.0000 1.0000
68.8700 642.0000 1.0000
68.8800 657.0000 1.0000
68.8900 647.0000 1.0000
68.9000 629.0000 1.0000
68.9100 642.0000 1.0000
68.9200 630.0000 1.0000
68.9300 659.0000 1.0000
68.9400 625.0000 1.0000
68.9500 638.0000 1.0000
68.9600 585.0000 1.0000
68.9700 631.0000 1.0000
68.9800 618.0000 1.0000
68.9900 635.0000 1.0000
69.0000 619.0000 1.0000
69.0100 615.0000 1.0000
69.0200 606.0000 1.0000
69.0300 622.0000 1.0000
69.0400 579.0000 1.0000
69.0500 619.0000 1.0000
69.0600 618.0000 1.0000
69.0700 610.0000 1.0000
69.0800 620.0000 1.0000
69.0900 591.0000 1.0000
69.1000 635.0000 1.0000
69.1100 672.0000 1.0000
69.1200 599.0000 1.0000
69.1300 612.0000 1.0000
69.1400 595.0000 1.0000
69.1500 608.0000 1.0000
69.1600 643.0000 1.0000
69.1700 620.0000 1.0000
69.1800 647.0000 1.0000
69.1900 588.0000 1.0000
69.2000 627.0000 1.0000
69.2100 609.0000 1.0000
69.2200 597.0000 1.0000
69.2300 618.0000 1.0000
69.2400 570.0000 1.0000
69.2500 607.0000 1.0000
69.2600 637.0000 1.0000
69.2700 621.0000 1.0000
69.2800 614.0000 1.0000
69.2900 626.0000 1.0000
69.3000 622.0000 1.0000
69.3100 628.0000 1.0000
69.3200 613.0000 1.0000
69.3300 622.0000 1.0000
69.3400 629.0000 1.0000
69.3500 620.0000 1.0000
69.3600 646.0000 1.0000
69.3700 655.0000 1.0000
69.3800 634.0000 1.0000
69.3900 608.0000 1.0000
69.4000 617.0000 1.0000
69.4100 651.0000 1.0000
69.4200 631.0000 1.0000
69.4300 644.0000 1.0000
69.4400 631.0000 1.0000
69.4500 593.0000 1.0000
69.4600 609.0000 1.0000
69.4700 615.0000 1.0000
69.4800 625.0000 1.0000
69.4900 639.0000 1.0000
69.5000 655.0000 1.0000
69.5100 616.0000 1.0000
69.5200 644.0000 1.0000
69.5300 642.0000 1.0000
69.5400 607.0000 1.0000
69.5500 652.0000 1.0000
69.5600 627.0000 1.0000
69.5700 626.0000 1.0000
69.5800 631.0000 1.0000
69.5900 630.0000 1.0000
69.6000 658.0000 1.0000
69.6100 618.0000 1.0000
69.6200 640.0000 1.0000
69.6300 632.0000 1.0000
69.6400 640.0000 1.0000
69.6500 633.0000 1.0000
69.6600 624.0000 1.0000
69.6700 649.0000 1.0000
69.6800 644.0000 1.0000
69.6900 637.0000 1.0000
69.7000 585.0000 1.0000
69.7100 631.0000 1.0000
69.7200 625.0000 1.0000
69.7300 585.0000 1.0000
69.7400 591.0000 1.0000
69.7500 612.0000 1.0000
69.7600 601.0000 1.0000
69.7700 628.0000 1.0000
69.7800 610.0000 1.0000
69.7900 589.0000 1.0000
69.8000 618.0000 1.0000
69.8100 628.0000 1.0000
69.8200 617.0000 1.0000
69.8300 625.0000 1.0000
69.8400 609.0000 1.0000
69.8500 593.0000 1.0000
69.8600 638.0000 1.0000
69.8700 635.0000 1.0000
69.8800 592.0000 1.0000
69.8900 600.0000 1.0000
69.9000 597.0000 1.0000
69.9100 582.0000 1.0000
69.9200 619.0000 1.0000
69.9300 668.0000 1.0000
69.9400 607.0000 1.0000
69.9500 570.0000 1.0000
69.9600 595.0000 1.0000
69.9700 615.0000 1.0000
69.9800 613.0000 1.0000
69.9900 609.0000 1.0000
70.0000 617.0000 1.0000
*RAS_INT_END
*RAS_TEMPERATURE_START
*RAS_TEMPERATURE_END
*RAS_DATA_END
