*RAS_DATA_START
*RAS_HEADER_START
*DISP_FMT_X "%.2f"
*DISP_FMT_Y "%.0f"
*DISP_FULLSCALE "15390.0000000000"
*DISP_LINE_COLOR "255.0000000000"
*DISP_LINE_STYLE "0.0000000000"
*DISP_LINE_WIDTH "0.2500000000"
*DISP_NOTE "測定データ-9"
*DISP_OFFSET_Y "0.0000000000"
*DISP_PEAKSEARCH_UNIT_Y "cps"
*DISP_RANGE_BOTTOM "0.0000000000"
*DISP_RANGE_LEFT "20.0000000000"
*DISP_RANGE_LOGCUTOFF "0.0100000000"
*DISP_RANGE_RIGHT "70.0000000000"
*DISP_RANGE_TOP "15390.0000000000"
*DISP_SCALE_MODE_Y "0.0000000000"
*DISP_TAB_NAME "2θ/θ"
*DISP_TITLE_Y "強度"
*DISP_UNIT_Y "cps"
*DISP_WINDOW_NAME "MSG_MACROENGINE"
*FILE_COMMENT " "
*FILE_MD5 ""
*FILE_MEMO " "
*FILE_OPERATOR "Administrator"
*FILE_SAMPLE " "
*FILE_TYPE "RAS_RAW"
*FILE_USERGROUP "システムマネージャ"
*FILE_VERSION "1.0000000000"
*HW_ATTACHMENT_ID "ATT0025"
*HW_ATTACHMENT_NAME "標準|Standard"
*HW_COUNTER_ID-0 "CUT0025"
*HW_COUNTER_ID-1 "CUT0020"
*HW_COUNTER_ID-2 "CUT0020"
*HW_COUNTER_ID-3 "CSL0021"
*HW_COUNTER_ID-4 "CMC0021"
*HW_COUNTER_NAME-0 "D/teX Ultra|D/teX Ultra"
*HW_COUNTER_NAME-1 "None|None"
*HW_COUNTER_NAME-2 "None|None"
*HW_COUNTER_NAME-3 "BBM|BBM"
*HW_COUNTER_NAME-4 "検出器モノクロメータ|Detector monochromator"
*HW_COUNTER_SELECT_NAME "D/teX Ultra|D/teX Ultra"
*HW_GONIOMETER_ID "GON0023"
*HW_GONIOMETER_NAME "SmartLab|SmartLab"
*HW_GONIOMETER_RADIUS-0 "90.0"
*HW_GONIOMETER_RADIUS-1 "114.0"
*HW_GONIOMETER_RADIUS-2 "190.0"
*HW_GONIOMETER_RADIUS-3 "300.0"
*HW_GONIOMETER_RADIUS-4 "187.0"
*HW_GONIOMETER_RADIUS-5 "300.0"
*HW_GONIOMETER_RADIUS-6 "113.0"
*HW_GONIOMETER_RADIUS-7 "331.0"
*HW_I_OPT_ID-0 "CBO0021"
*HW_I_OPT_ID-1 "ICR0023"
*HW_I_OPT_ID-2 "ISL0021"
*HW_I_OPT_ID-3 "ISO0021"
*HW_I_OPT_ID-4 "IAD0021"
*HW_I_OPT_ID-5 "IPR0001"
*HW_I_OPT_NAME-0 "CBOユニット|CBO unit"
*HW_I_OPT_NAME-1 "標準入射光学ユニット|Standard incident optical unit"
*HW_I_OPT_NAME-2 "標準入射スリットボックス|Standard incident slit box"
*HW_I_OPT_NAME-3 "入射平行スリット|Incident parallel slit"
*HW_I_OPT_NAME-4 "長手制限スリット|Length limiting slit"
*HW_I_OPT_NAME-5 "None|None"
*HW_R_ATTENUATER_AUTOMODE "0"
*HW_R_OPT_ID-0 "RSS0021"
*HW_R_OPT_ID-1 "RCR0023"
*HW_R_OPT_ID-2 "RSO0021"
*HW_R_OPT_ID-3 "RRS0021"
*HW_R_OPT_ID-4 "ATN0021"
*HW_R_OPT_ID-5 "RFL0021"
*HW_R_OPT_ID-6 "RAD0021"
*HW_R_OPT_NAME-0 "標準受光スリットボックス1|Standard receiving slit box # 1"
*HW_R_OPT_NAME-1 "標準受光光学ユニット1|Standard receiving unit # 1"
*HW_R_OPT_NAME-2 "標準受光光学ユニット2|Standard receiving optical unit # 2"
*HW_R_OPT_NAME-3 "標準受光スリットボックス2|Standard receiving slit box # 2"
*HW_R_OPT_NAME-4 "標準アッテネータ|Standard Attenuator"
*HW_R_OPT_NAME-5 "Cu Kβ|Cu K-beta"
*HW_R_OPT_NAME-6 "調整用受光スリット|Alignment receiving slit"
*HW_SAMPLE_HOLDER_ID "SMP0023"
*HW_SAMPLE_HOLDER_NAME "標準Zステージ|Standard Z stage"
*HW_XG_CURRENT_MAX "50"
*HW_XG_CURRENT_MIN "2"
*HW_XG_CURRENT_RESOLUTION "1"
*HW_XG_CURRENT_UNIT "mA"
*HW_XG_FOCUS "1mm x 10mm"
*HW_XG_FOCUS_TYPE "Normal"
*HW_XG_ID ""
*HW_XG_NAME "3kW 封入管(ID:1200)|3kW Sealed tube(ID:1200)"
*HW_XG_TARGET_ATOMIC_NUMBER "29.0000000000"
*HW_XG_TARGET_NAME "Cu"
*HW_XG_TYPE "Hermetic"
*HW_XG_VOLTAGE_MAX "60"
*HW_XG_VOLTAGE_MIN "20"
*HW_XG_VOLTAGE_RESOLUTION "1"
*HW_XG_VOLTAGE_UNIT "kV"
*HW_XG_WATT_MAX "1.500"
*HW_XG_WATT_UNIT "kW"
*HW_XG_WAVE_LENGTH_ALPHA1 "1.540593"
*HW_XG_WAVE_LENGTH_ALPHA2 "1.544414"
*HW_XG_WAVE_LENGTH_BETA "1.392250"
*MEAS_COND_AXIS_NAME-0 "2θ/θ"
*MEAS_COND_AXIS_NAME-1 "2θ"
*MEAS_COND_AXIS_NAME-2 "ω"
*MEAS_COND_AXIS_NAME-3 "Z"
*MEAS_COND_AXIS_NAME-4 "2θ/ω"
*MEAS_COND_AXIS_NAME-5 "θs"
*MEAS_COND_AXIS_NAME-6 "θd"
*MEAS_COND_AXIS_NAME-7 "Ts"
*MEAS_COND_AXIS_NAME-8 "CBO選択スリット"
*MEAS_COND_AXIS_NAME-9 "M"
*MEAS_COND_AXIS_NAME-10 "入射平行スリット"
*MEAS_COND_AXIS_NAME-11 "入射スリット"
*MEAS_COND_AXIS_NAME-12 ""
*MEAS_COND_AXIS_NAME-13 "Zs"
*MEAS_COND_AXIS_NAME-14 "入射光学素子"
*MEAS_COND_AXIS_NAME-15 "長手制限スリット"
*MEAS_COND_AXIS_NAME-16 "センタースリット"
*MEAS_COND_AXIS_NAME-17 "フィルター"
*MEAS_COND_AXIS_NAME-18 "受光スリット1"
*MEAS_COND_AXIS_NAME-19 "受光スリット2"
*MEAS_COND_AXIS_NAME-20 "受光光学素子"
*MEAS_COND_AXIS_NAME-21 "受光平行スリット"
*MEAS_COND_AXIS_NAME-22 "調整用受光スリット"
*MEAS_COND_AXIS_NAME-23 ""
*MEAS_COND_AXIS_NAME-24 ""
*MEAS_COND_AXIS_NAME-25 "Zd"
*MEAS_COND_AXIS_NAME-26 "アッテネータ"
*MEAS_COND_AXIS_NAME-27 "検出器モノクロメータ"
*MEAS_COND_AXIS_NAME-28 "モノクロメータスリット"
*MEAS_COND_AXIS_NAME-29 "プライマリビーム"
*MEAS_COND_AXIS_NAME-30 "PHA"
*MEAS_COND_AXIS_NAME_INTERNAL-0 "TwoThetaTheta"
*MEAS_COND_AXIS_NAME_INTERNAL-1 "TwoTheta"
*MEAS_COND_AXIS_NAME_INTERNAL-2 "Omega"
*MEAS_COND_AXIS_NAME_INTERNAL-3 "Z"
*MEAS_COND_AXIS_NAME_INTERNAL-4 "TwoThetaOmega"
*MEAS_COND_AXIS_NAME_INTERNAL-5 "ThetaS"
*MEAS_COND_AXIS_NAME_INTERNAL-6 "ThetaD"
*MEAS_COND_AXIS_NAME_INTERNAL-7 "Ts"
*MEAS_COND_AXIS_NAME_INTERNAL-8 "CBO"
*MEAS_COND_AXIS_NAME_INTERNAL-9 "CBO-M"
*MEAS_COND_AXIS_NAME_INTERNAL-10 "IncidentSollerSlit"
*MEAS_COND_AXIS_NAME_INTERNAL-11 "IncidentSlitBox"
*MEAS_COND_AXIS_NAME_INTERNAL-12 "IncidentSlitBox-_Axis"
*MEAS_COND_AXIS_NAME_INTERNAL-13 "Zs"
*MEAS_COND_AXIS_NAME_INTERNAL-14 "IncidentMonochromator"
*MEAS_COND_AXIS_NAME_INTERNAL-15 "IncidentAxdSlit"
*MEAS_COND_AXIS_NAME_INTERNAL-16 "CenterSlit"
*MEAS_COND_AXIS_NAME_INTERNAL-17 "Filter"
*MEAS_COND_AXIS_NAME_INTERNAL-18 "ReceivingSlitBox1"
*MEAS_COND_AXIS_NAME_INTERNAL-19 "ReceivingSlitBox2"
*MEAS_COND_AXIS_NAME_INTERNAL-20 "ReceivingOptics"
*MEAS_COND_AXIS_NAME_INTERNAL-21 "ReceivingSollerSlit"
*MEAS_COND_AXIS_NAME_INTERNAL-22 "ReceivingAxdSlit"
*MEAS_COND_AXIS_NAME_INTERNAL-23 "ReceivingSlitBox1-_Axis"
*MEAS_COND_AXIS_NAME_INTERNAL-24 "ReceivingSlitBox2-_Axis"
*MEAS_COND_AXIS_NAME_INTERNAL-25 "ReceivingSlitBox2-Zd"
*MEAS_COND_AXIS_NAME_INTERNAL-26 "Attenuator"
*MEAS_COND_AXIS_NAME_INTERNAL-27 "CounterMonochromator"
*MEAS_COND_AXIS_NAME_INTERNAL-28 "CounterSlit"
*MEAS_COND_AXIS_NAME_INTERNAL-29 "IncidentPrimary"
*MEAS_COND_AXIS_NAME_INTERNAL-30 "PHA"
*MEAS_COND_AXIS_NAME_MAGICNO-0 "83951616.0000000000"
*MEAS_COND_AXIS_NAME_MAGICNO-1 "268632064.0000000000"
*MEAS_COND_AXIS_NAME_MAGICNO-2 "268500992.0000000000"
*MEAS_COND_AXIS_NAME_MAGICNO-3 "285278208.0000000000"
*MEAS_COND_AXIS_NAME_MAGICNO-4 "83951616.0000000000"
*MEAS_COND_AXIS_NAME_MAGICNO-5 "131072.0000000000"
*MEAS_COND_AXIS_NAME_MAGICNO-6 "131072.0000000000"
*MEAS_COND_AXIS_NAME_MAGICNO-7 "318898176.0000000000"
*MEAS_COND_AXIS_NAME_MAGICNO-8 "20971521.0000000000"
*MEAS_COND_AXIS_NAME_MAGICNO-9 "285343744.0000000000"
*MEAS_COND_AXIS_NAME_MAGICNO-10 "20971521.0000000000"
*MEAS_COND_AXIS_NAME_MAGICNO-11 "22020097.0000000000"
*MEAS_COND_AXIS_NAME_MAGICNO-12 "25165824.0000000000"
*MEAS_COND_AXIS_NAME_MAGICNO-13 "318898176.0000000000"
*MEAS_COND_AXIS_NAME_MAGICNO-14 "1.0000000000"
*MEAS_COND_AXIS_NAME_MAGICNO-15 "20971521.0000000000"
*MEAS_COND_AXIS_NAME_MAGICNO-16 "20971521.0000000000"
*MEAS_COND_AXIS_NAME_MAGICNO-17 "20971521.0000000000"
*MEAS_COND_AXIS_NAME_MAGICNO-18 "23068673.0000000000"
*MEAS_COND_AXIS_NAME_MAGICNO-19 "23068673.0000000000"
*MEAS_COND_AXIS_NAME_MAGICNO-20 "20971521.0000000000"
*MEAS_COND_AXIS_NAME_MAGICNO-21 "20971521.0000000000"
*MEAS_COND_AXIS_NAME_MAGICNO-22 "20971521.0000000000"
*MEAS_COND_AXIS_NAME_MAGICNO-23 "25165824.0000000000"
*MEAS_COND_AXIS_NAME_MAGICNO-24 "25165824.0000000000"
*MEAS_COND_AXIS_NAME_MAGICNO-25 "285343744.0000000000"
*MEAS_COND_AXIS_NAME_MAGICNO-26 "17301505.0000000000"
*MEAS_COND_AXIS_NAME_MAGICNO-27 "20971521.0000000000"
*MEAS_COND_AXIS_NAME_MAGICNO-28 "20971521.0000000000"
*MEAS_COND_AXIS_NAME_MAGICNO-29 "20971521.0000000000"
*MEAS_COND_AXIS_NAME_MAGICNO-30 "0.0000000000"
*MEAS_COND_AXIS_OFFSET-0 "-"
*MEAS_COND_AXIS_OFFSET-1 "-0.0801000000"
*MEAS_COND_AXIS_OFFSET-2 "-0.1703000000"
*MEAS_COND_AXIS_OFFSET-3 "-"
*MEAS_COND_AXIS_OFFSET-4 "-"
*MEAS_COND_AXIS_OFFSET-5 "-0.1703000000"
*MEAS_COND_AXIS_OFFSET-6 "0.0902000000"
*MEAS_COND_AXIS_OFFSET-7 "-"
*MEAS_COND_AXIS_OFFSET-8 "-"
*MEAS_COND_AXIS_OFFSET-9 "-"
*MEAS_COND_AXIS_OFFSET-10 "-"
*MEAS_COND_AXIS_OFFSET-11 "-"
*MEAS_COND_AXIS_OFFSET-12 "-"
*MEAS_COND_AXIS_OFFSET-13 "-"
*MEAS_COND_AXIS_OFFSET-14 "-"
*MEAS_COND_AXIS_OFFSET-15 "-"
*MEAS_COND_AXIS_OFFSET-16 "-"
*MEAS_COND_AXIS_OFFSET-17 "-"
*MEAS_COND_AXIS_OFFSET-18 "-"
*MEAS_COND_AXIS_OFFSET-19 "-"
*MEAS_COND_AXIS_OFFSET-20 "-"
*MEAS_COND_AXIS_OFFSET-21 "-"
*MEAS_COND_AXIS_OFFSET-22 "-"
*MEAS_COND_AXIS_OFFSET-23 "-"
*MEAS_COND_AXIS_OFFSET-24 "-"
*MEAS_COND_AXIS_OFFSET-25 "-"
*MEAS_COND_AXIS_OFFSET-26 "-"
*MEAS_COND_AXIS_OFFSET-27 "-"
*MEAS_COND_AXIS_OFFSET-28 "-"
*MEAS_COND_AXIS_OFFSET-29 "-"
*MEAS_COND_AXIS_OFFSET-30 "-"
*MEAS_COND_AXIS_POSITION-0 "0.0000000000"
*MEAS_COND_AXIS_POSITION-1 "0.0000000000"
*MEAS_COND_AXIS_POSITION-2 "0.0000000000"
*MEAS_COND_AXIS_POSITION-3 "-2.8463000000"
*MEAS_COND_AXIS_POSITION-4 "0.0000000000"
*MEAS_COND_AXIS_POSITION-5 "0.0000000000"
*MEAS_COND_AXIS_POSITION-6 "0.0000000000"
*MEAS_COND_AXIS_POSITION-7 "-0.4278800000"
*MEAS_COND_AXIS_POSITION-8 "BB"
*MEAS_COND_AXIS_POSITION-9 "0.0000000000"
*MEAS_COND_AXIS_POSITION-10 "Soller_slit_5.0deg"
*MEAS_COND_AXIS_POSITION-11 "2/3deg"
*MEAS_COND_AXIS_POSITION-12 "2.2088000000"
*MEAS_COND_AXIS_POSITION-13 "-1.0609400000"
*MEAS_COND_AXIS_POSITION-14 "0.0000000000"
*MEAS_COND_AXIS_POSITION-15 "10.0mm"
*MEAS_COND_AXIS_POSITION-16 "None"
*MEAS_COND_AXIS_POSITION-17 "Cu_K-beta"
*MEAS_COND_AXIS_POSITION-18 "13.000mm"
*MEAS_COND_AXIS_POSITION-19 "13.000mm"
*MEAS_COND_AXIS_POSITION-20 "No_unit"
*MEAS_COND_AXIS_POSITION-21 "Soller_slit_5.0deg"
*MEAS_COND_AXIS_POSITION-22 "None"
*MEAS_COND_AXIS_POSITION-23 "13.0000000000"
*MEAS_COND_AXIS_POSITION-24 "13.0000000000"
*MEAS_COND_AXIS_POSITION-25 "0.0081300000"
*MEAS_COND_AXIS_POSITION-26 "Open"
*MEAS_COND_AXIS_POSITION-27 "None"
*MEAS_COND_AXIS_POSITION-28 "None"
*MEAS_COND_AXIS_POSITION-29 "None"
*MEAS_COND_AXIS_POSITION-30 "38.0000000000"
*MEAS_COND_AXIS_UNIT-0 "deg"
*MEAS_COND_AXIS_UNIT-1 "deg"
*MEAS_COND_AXIS_UNIT-2 "deg"
*MEAS_COND_AXIS_UNIT-3 "mm"
*MEAS_COND_AXIS_UNIT-4 "deg"
*MEAS_COND_AXIS_UNIT-5 "deg"
*MEAS_COND_AXIS_UNIT-6 "deg"
*MEAS_COND_AXIS_UNIT-7 "mm"
*MEAS_COND_AXIS_UNIT-8 ""
*MEAS_COND_AXIS_UNIT-9 "pulse"
*MEAS_COND_AXIS_UNIT-10 ""
*MEAS_COND_AXIS_UNIT-11 ""
*MEAS_COND_AXIS_UNIT-12 "mm"
*MEAS_COND_AXIS_UNIT-13 "mm"
*MEAS_COND_AXIS_UNIT-14 ""
*MEAS_COND_AXIS_UNIT-15 ""
*MEAS_COND_AXIS_UNIT-16 ""
*MEAS_COND_AXIS_UNIT-17 ""
*MEAS_COND_AXIS_UNIT-18 ""
*MEAS_COND_AXIS_UNIT-19 ""
*MEAS_COND_AXIS_UNIT-20 ""
*MEAS_COND_AXIS_UNIT-21 ""
*MEAS_COND_AXIS_UNIT-22 ""
*MEAS_COND_AXIS_UNIT-23 "mm"
*MEAS_COND_AXIS_UNIT-24 "mm"
*MEAS_COND_AXIS_UNIT-25 "mm"
*MEAS_COND_AXIS_UNIT-26 ""
*MEAS_COND_AXIS_UNIT-27 ""
*MEAS_COND_AXIS_UNIT-28 ""
*MEAS_COND_AXIS_UNIT-29 ""
*MEAS_COND_AXIS_UNIT-30 "div"
*MEAS_COND_COUNTER_CNTLOSS_CORR "0.0000000000"
*MEAS_COND_COUNTER_PHABASE "38.0000000000"
*MEAS_COND_COUNTER_PHAWINDOW "16.0000000000"
*MEAS_COND_COUNTER_PHA_UNIT "div"
*MEAS_COND_COUNTER_TAUDIFF "30.0000000000"
*MEAS_COND_COUNTER_TAUINT "0.0000000000"
*MEAS_COND_IRRADIATION_MODE "OFF"
*MEAS_COND_IRRADIATION_WIDTH ""
*MEAS_COND_OPT_ATTR "集中法"
*MEAS_COND_OPT_NAME "@集中法"
*MEAS_COND_UNSYMMETRIC_MODE "OFF"
*MEAS_COND_XG_CURRENT "30.0000000000"
*MEAS_COND_XG_VOLTAGE "40.0000000000"
*MEAS_COND_XG_WAVE_TYPE "Ka"
*MEAS_DATA_COUNT "5001.0000000000"
*MEAS_SCAN_AXIS_X "2θ/θ"
*MEAS_SCAN_AXIS_X_INTERNAL "TwoThetaTheta"
*MEAS_SCAN_END_TIME "07/02/22 17:50:19"
*MEAS_SCAN_MODE "CONTINUOUS"
*MEAS_SCAN_MONITOR "0"
*MEAS_SCAN_RESOLUTION_X "0.0002"
*MEAS_SCAN_SPEED "2.5"
*MEAS_SCAN_SPEED_UNIT "deg/min"
*MEAS_SCAN_START "20.0000000000"
*MEAS_SCAN_START_TIME "07/02/22 17:28:54"
*MEAS_SCAN_STEP "0.0100000000"
*MEAS_SCAN_STOP "70.0000000000"
*MEAS_SCAN_UNIT_X "deg"
*MEAS_SCAN_UNIT_Y "counts"
*RAS_HEADER_END
*RAS_INT_START
20.0000 952.0000 1.0000
20.0100 927.0000 1.0000
20.0200 909.0000 1.0000
20.0300 935.0000 1.0000
20.0400 910.0000 1.0000
20.0500 918.0000 1.0000
20.0600 942.0000 1.0000
20.0700 941.0000 1.0000
20.0800 953.0000 1.0000
20.0900 896.0000 1.0000
20.1000 897.0000 1.0000
20.1100 945.0000 1.0000
20.1200 928.0000 1.0000
20.1300 931.0000 1.0000
20.1400 935.0000 1.0000
20.1500 934.0000 1.0000
20.1600 928.0000 1.0000
20.1700 863.0000 1.0000
20.1800 884.0000 1.0000
20.1900 947.0000 1.0000
20.2000 911.0000 1.0000
20.2100 901.0000 1.0000
20.2200 840.0000 1.0000
20.2300 889.0000 1.0000
20.2400 904.0000 1.0000
20.2500 922.0000 1.0000
20.2600 918.0000 1.0000
20.2700 917.0000 1.0000
20.2800 890.0000 1.0000
20.2900 911.0000 1.0000
20.3000 896.0000 1.0000
20.3100 878.0000 1.0000
20.3200 923.0000 1.0000
20.3300 894.0000 1.0000
20.3400 901.0000 1.0000
20.3500 879.0000 1.0000
20.3600 895.0000 1.0000
20.3700 921.0000 1.0000
20.3800 930.0000 1.0000
20.3900 858.0000 1.0000
20.4000 900.0000 1.0000
20.4100 877.0000 1.0000
20.4200 906.0000 1.0000
20.4300 893.0000 1.0000
20.4400 947.0000 1.0000
20.4500 908.0000 1.0000
20.4600 877.0000 1.0000
20.4700 944.0000 1.0000
20.4800 925.0000 1.0000
20.4900 934.0000 1.0000
20.5000 898.0000 1.0000
20.5100 911.0000 1.0000
20.5200 934.0000 1.0000
20.5300 933.0000 1.0000
20.5400 900.0000 1.0000
20.5500 880.0000 1.0000
20.5600 912.0000 1.0000
20.5700 930.0000 1.0000
20.5800 882.0000 1.0000
20.5900 853.0000 1.0000
20.6000 915.0000 1.0000
20.6100 928.0000 1.0000
20.6200 898.0000 1.0000
20.6300 915.0000 1.0000
20.6400 898.0000 1.0000
20.6500 893.0000 1.0000
20.6600 930.0000 1.0000
20.6700 866.0000 1.0000
20.6800 913.0000 1.0000
20.6900 936.0000 1.0000
20.7000 966.0000 1.0000
20.7100 884.0000 1.0000
20.7200 922.0000 1.0000
20.7300 878.0000 1.0000
20.7400 845.0000 1.0000
20.7500 890.0000 1.0000
20.7600 887.0000 1.0000
20.7700 911.0000 1.0000
20.7800 901.0000 1.0000
20.7900 894.0000 1.0000
20.8000 954.0000 1.0000
20.8100 907.0000 1.0000
20.8200 916.0000 1.0000
20.8300 922.0000 1.0000
20.8400 888.0000 1.0000
20.8500 868.0000 1.0000
20.8600 894.0000 1.0000
20.8700 871.0000 1.0000
20.8800 925.0000 1.0000
20.8900 916.0000 1.0000
20.9000 876.0000 1.0000
20.9100 844.0000 1.0000
20.9200 885.0000 1.0000
20.9300 914.0000 1.0000
20.9400 867.0000 1.0000
20.9500 921.0000 1.0000
20.9600 915.0000 1.0000
20.9700 932.0000 1.0000
20.9800 884.0000 1.0000
20.9900 893.0000 1.0000
21.0000 955.0000 1.0000
21.0100 921.0000 1.0000
21.0200 904.0000 1.0000
21.0300 908.0000 1.0000
21.0400 881.0000 1.0000
21.0500 908.0000 1.0000
21.0600 872.0000 1.0000
21.0700 856.0000 1.0000
21.0800 913.0000 1.0000
21.0900 890.0000 1.0000
21.1000 885.0000 1.0000
21.1100 924.0000 1.0000
21.1200 916.0000 1.0000
21.1300 939.0000 1.0000
21.1400 937.0000 1.0000
21.1500 902.0000 1.0000
21.1600 916.0000 1.0000
21.1700 909.0000 1.0000
21.1800 894.0000 1.0000
21.1900 884.0000 1.0000
21.2000 863.0000 1.0000
21.2100 849.0000 1.0000
21.2200 897.0000 1.0000
21.2300 926.0000 1.0000
21.2400 887.0000 1.0000
21.2500 908.0000 1.0000
21.2600 882.0000 1.0000
21.2700 930.0000 1.0000
21.2800 931.0000 1.0000
21.2900 919.0000 1.0000
21.3000 903.0000 1.0000
21.3100 914.0000 1.0000
21.3200 981.0000 1.0000
21.3300 914.0000 1.0000
21.3400 919.0000 1.0000
21.3500 886.0000 1.0000
21.3600 934.0000 1.0000
21.3700 908.0000 1.0000
21.3800 872.0000 1.0000
21.3900 904.0000 1.0000
21.4000 887.0000 1.0000
21.4100 899.0000 1.0000
21.4200 949.0000 1.0000
21.4300 923.0000 1.0000
21.4400 938.0000 1.0000
21.4500 898.0000 1.0000
21.4600 919.0000 1.0000
21.4700 898.0000 1.0000
21.4800 884.0000 1.0000
21.4900 920.0000 1.0000
21.5000 895.0000 1.0000
21.5100 866.0000 1.0000
21.5200 869.0000 1.0000
21.5300 894.0000 1.0000
21.5400 936.0000 1.0000
21.5500 905.0000 1.0000
21.5600 898.0000 1.0000
21.5700 907.0000 1.0000
21.5800 944.0000 1.0000
21.5900 921.0000 1.0000
21.6000 892.0000 1.0000
21.6100 873.0000 1.0000
21.6200 920.0000 1.0000
21.6300 878.0000 1.0000
21.6400 882.0000 1.0000
21.6500 937.0000 1.0000
21.6600 914.0000 1.0000
21.6700 875.0000 1.0000
21.6800 909.0000 1.0000
21.6900 910.0000 1.0000
21.7000 902.0000 1.0000
21.7100 937.0000 1.0000
21.7200 906.0000 1.0000
21.7300 912.0000 1.0000
21.7400 947.0000 1.0000
21.7500 901.0000 1.0000
21.7600 895.0000 1.0000
21.7700 922.0000 1.0000
21.7800 911.0000 1.0000
21.7900 896.0000 1.0000
21.8000 893.0000 1.0000
21.8100 875.0000 1.0000
21.8200 870.0000 1.0000
21.8300 970.0000 1.0000
21.8400 952.0000 1.0000
21.8500 912.0000 1.0000
21.8600 876.0000 1.0000
21.8700 907.0000 1.0000
21.8800 878.0000 1.0000
21.8900 862.0000 1.0000
21.9000 895.0000 1.0000
21.9100 892.0000 1.0000
21.9200 936.0000 1.0000
21.9300 887.0000 1.0000
21.9400 874.0000 1.0000
21.9500 894.0000 1.0000
21.9600 925.0000 1.0000
21.9700 873.0000 1.0000
21.9800 933.0000 1.0000
21.9900 902.0000 1.0000
22.0000 922.0000 1.0000
22.0100 896.0000 1.0000
22.0200 873.0000 1.0000
22.0300 902.0000 1.0000
22.0400 917.0000 1.0000
22.0500 908.0000 1.0000
22.0600 920.0000 1.0000
22.0700 886.0000 1.0000
22.0800 886.0000 1.0000
22.0900 935.0000 1.0000
22.1000 922.0000 1.0000
22.1100 912.0000 1.0000
22.1200 898.0000 1.0000
22.1300 879.0000 1.0000
22.1400 851.0000 1.0000
22.1500 905.0000 1.0000
22.1600 910.0000 1.0000
22.1700 898.0000 1.0000
22.1800 890.0000 1.0000
22.1900 887.0000 1.0000
22.2000 914.0000 1.0000
22.2100 877.0000 1.0000
22.2200 894.0000 1.0000
22.2300 884.0000 1.0000
22.2400 883.0000 1.0000
22.2500 885.0000 1.0000
22.2600 926.0000 1.0000
22.2700 877.0000 1.0000
22.2800 880.0000 1.0000
22.2900 922.0000 1.0000
22.3000 920.0000 1.0000
22.3100 898.0000 1.0000
22.3200 846.0000 1.0000
22.3300 895.0000 1.0000
22.3400 869.0000 1.0000
22.3500 885.0000 1.0000
22.3600 879.0000 1.0000
22.3700 910.0000 1.0000
22.3800 918.0000 1.0000
22.3900 877.0000 1.0000
22.4000 935.0000 1.0000
22.4100 905.0000 1.0000
22.4200 854.0000 1.0000
22.4300 903.0000 1.0000
22.4400 874.0000 1.0000
22.4500 881.0000 1.0000
22.4600 867.0000 1.0000
22.4700 874.0000 1.0000
22.4800 861.0000 1.0000
22.4900 900.0000 1.0000
22.5000 885.0000 1.0000
22.5100 862.0000 1.0000
22.5200 906.0000 1.0000
22.5300 883.0000 1.0000
22.5400 898.0000 1.0000
22.5500 897.0000 1.0000
22.5600 906.0000 1.0000
22.5700 846.0000 1.0000
22.5800 863.0000 1.0000
22.5900 890.0000 1.0000
22.6000 870.0000 1.0000
22.6100 922.0000 1.0000
22.6200 915.0000 1.0000
22.6300 878.0000 1.0000
22.6400 897.0000 1.0000
22.6500 847.0000 1.0000
22.6600 868.0000 1.0000
22.6700 887.0000 1.0000
22.6800 862.0000 1.0000
22.6900 926.0000 1.0000
22.7000 902.0000 1.0000
22.7100 860.0000 1.0000
22.7200 890.0000 1.0000
22.7300 901.0000 1.0000
22.7400 848.0000 1.0000
22.7500 892.0000 1.0000
22.7600 877.0000 1.0000
22.7700 853.0000 1.0000
22.7800 871.0000 1.0000
22.7900 885.0000 1.0000
22.8000 890.0000 1.0000
22.8100 854.0000 1.0000
22.8200 870.0000 1.0000
22.8300 875.0000 1.0000
22.8400 894.0000 1.0000
22.8500 880.0000 1.0000
22.8600 927.0000 1.0000
22.8700 847.0000 1.0000
22.8800 844.0000 1.0000
22.8900 873.0000 1.0000
22.9000 848.0000 1.0000
22.9100 867.0000 1.0000
22.9200 849.0000 1.0000
22.9300 892.0000 1.0000
22.9400 933.0000 1.0000
22.9500 916.0000 1.0000
22.9600 877.0000 1.0000
22.9700 873.0000 1.0000
22.9800 888.0000 1.0000
22.9900 894.0000 1.0000
23.0000 878.0000 1.0000
23.0100 907.0000 1.0000
23.0200 903.0000 1.0000
23.0300 916.0000 1.0000
23.0400 856.0000 1.0000
23.0500 910.0000 1.0000
23.0600 845.0000 1.0000
23.0700 848.0000 1.0000
23.0800 884.0000 1.0000
23.0900 897.0000 1.0000
23.1000 903.0000 1.0000
23.1100 872.0000 1.0000
23.1200 843.0000 1.0000
23.1300 886.0000 1.0000
23.1400 869.0000 1.0000
23.1500 906.0000 1.0000
23.1600 893.0000 1.0000
23.1700 903.0000 1.0000
23.1800 881.0000 1.0000
23.1900 840.0000 1.0000
23.2000 876.0000 1.0000
23.2100 860.0000 1.0000
23.2200 869.0000 1.0000
23.2300 859.0000 1.0000
23.2400 893.0000 1.0000
23.2500 890.0000 1.0000
23.2600 829.0000 1.0000
23.2700 850.0000 1.0000
23.2800 865.0000 1.0000
23.2900 880.0000 1.0000
23.3000 890.0000 1.0000
23.3100 897.0000 1.0000
23.3200 885.0000 1.0000
23.3300 849.0000 1.0000
23.3400 854.0000 1.0000
23.3500 874.0000 1.0000
23.3600 881.0000 1.0000
23.3700 846.0000 1.0000
23.3800 886.0000 1.0000
23.3900 905.0000 1.0000
23.4000 860.0000 1.0000
23.4100 853.0000 1.0000
23.4200 849.0000 1.0000
23.4300 875.0000 1.0000
23.4400 848.0000 1.0000
23.4500 847.0000 1.0000
23.4600 878.0000 1.0000
23.4700 880.0000 1.0000
23.4800 883.0000 1.0000
23.4900 900.0000 1.0000
23.5000 875.0000 1.0000
23.5100 865.0000 1.0000
23.5200 879.0000 1.0000
23.5300 891.0000 1.0000
23.5400 831.0000 1.0000
23.5500 902.0000 1.0000
23.5600 866.0000 1.0000
23.5700 876.0000 1.0000
23.5800 887.0000 1.0000
23.5900 882.0000 1.0000
23.6000 856.0000 1.0000
23.6100 906.0000 1.0000
23.6200 911.0000 1.0000
23.6300 880.0000 1.0000
23.6400 894.0000 1.0000
23.6500 938.0000 1.0000
23.6600 902.0000 1.0000
23.6700 890.0000 1.0000
23.6800 888.0000 1.0000
23.6900 873.0000 1.0000
23.7000 915.0000 1.0000
23.7100 930.0000 1.0000
23.7200 823.0000 1.0000
23.7300 873.0000 1.0000
23.7400 873.0000 1.0000
23.7500 919.0000 1.0000
23.7600 873.0000 1.0000
23.7700 860.0000 1.0000
23.7800 896.0000 1.0000
23.7900 891.0000 1.0000
23.8000 870.0000 1.0000
23.8100 886.0000 1.0000
23.8200 898.0000 1.0000
23.8300 891.0000 1.0000
23.8400 904.0000 1.0000
23.8500 887.0000 1.0000
23.8600 955.0000 1.0000
23.8700 937.0000 1.0000
23.8800 915.0000 1.0000
23.8900 905.0000 1.0000
23.9000 874.0000 1.0000
23.9100 850.0000 1.0000
23.9200 920.0000 1.0000
23.9300 904.0000 1.0000
23.9400 898.0000 1.0000
23.9500 901.0000 1.0000
23.9600 919.0000 1.0000
23.9700 934.0000 1.0000
23.9800 930.0000 1.0000
23.9900 878.0000 1.0000
24.0000 914.0000 1.0000
24.0100 898.0000 1.0000
24.0200 925.0000 1.0000
24.0300 942.0000 1.0000
24.0400 911.0000 1.0000
24.0500 931.0000 1.0000
24.0600 895.0000 1.0000
24.0700 951.0000 1.0000
24.0800 953.0000 1.0000
24.0900 943.0000 1.0000
24.1000 960.0000 1.0000
24.1100 931.0000 1.0000
24.1200 936.0000 1.0000
24.1300 869.0000 1.0000
24.1400 953.0000 1.0000
24.1500 954.0000 1.0000
24.1600 954.0000 1.0000
24.1700 888.0000 1.0000
24.1800 936.0000 1.0000
24.1900 884.0000 1.0000
24.2000 921.0000 1.0000
24.2100 878.0000 1.0000
24.2200 910.0000 1.0000
24.2300 873.0000 1.0000
24.2400 900.0000 1.0000
24.2500 893.0000 1.0000
24.2600 910.0000 1.0000
24.2700 926.0000 1.0000
24.2800 901.0000 1.0000
24.2900 908.0000 1.0000
24.3000 867.0000 1.0000
24.3100 868.0000 1.0000
24.3200 917.0000 1.0000
24.3300 898.0000 1.0000
24.3400 879.0000 1.0000
24.3500 899.0000 1.0000
24.3600 881.0000 1.0000
24.3700 856.0000 1.0000
24.3800 858.0000 1.0000
24.3900 891.0000 1.0000
24.4000 857.0000 1.0000
24.4100 872.0000 1.0000
24.4200 841.0000 1.0000
24.4300 848.0000 1.0000
24.4400 880.0000 1.0000
24.4500 901.0000 1.0000
24.4600 863.0000 1.0000
24.4700 863.0000 1.0000
24.4800 874.0000 1.0000
24.4900 890.0000 1.0000
24.5000 880.0000 1.0000
24.5100 852.0000 1.0000
24.5200 892.0000 1.0000
24.5300 888.0000 1.0000
24.5400 874.0000 1.0000
24.5500 872.0000 1.0000
24.5600 873.0000 1.0000
24.5700 879.0000 1.0000
24.5800 898.0000 1.0000
24.5900 878.0000 1.0000
24.6000 885.0000 1.0000
24.6100 839.0000 1.0000
24.6200 811.0000 1.0000
24.6300 869.0000 1.0000
24.6400 910.0000 1.0000
24.6500 888.0000 1.0000
24.6600 911.0000 1.0000
24.6700 862.0000 1.0000
24.6800 830.0000 1.0000
24.6900 866.0000 1.0000
24.7000 855.0000 1.0000
24.7100 860.0000 1.0000
24.7200 820.0000 1.0000
24.7300 832.0000 1.0000
24.7400 857.0000 1.0000
24.7500 841.0000 1.0000
24.7600 865.0000 1.0000
24.7700 835.0000 1.0000
24.7800 818.0000 1.0000
24.7900 841.0000 1.0000
24.8000 828.0000 1.0000
24.8100 846.0000 1.0000
24.8200 875.0000 1.0000
24.8300 863.0000 1.0000
24.8400 890.0000 1.0000
24.8500 850.0000 1.0000
24.8600 875.0000 1.0000
24.8700 848.0000 1.0000
24.8800 890.0000 1.0000
24.8900 848.0000 1.0000
24.9000 864.0000 1.0000
24.9100 810.0000 1.0000
24.9200 878.0000 1.0000
24.9300 914.0000 1.0000
24.9400 831.0000 1.0000
24.9500 840.0000 1.0000
24.9600 892.0000 1.0000
24.9700 871.0000 1.0000
24.9800 876.0000 1.0000
24.9900 828.0000 1.0000
25.0000 864.0000 1.0000
25.0100 898.0000 1.0000
25.0200 845.0000 1.0000
25.0300 899.0000 1.0000
25.0400 860.0000 1.0000
25.0500 861.0000 1.0000
25.0600 860.0000 1.0000
25.0700 903.0000 1.0000
25.0800 846.0000 1.0000
25.0900 779.0000 1.0000
25.1000 816.0000 1.0000
25.1100 826.0000 1.0000
25.1200 822.0000 1.0000
25.1300 861.0000 1.0000
25.1400 868.0000 1.0000
25.1500 900.0000 1.0000
25.1600 853.0000 1.0000
25.1700 889.0000 1.0000
25.1800 875.0000 1.0000
25.1900 805.0000 1.0000
25.2000 889.0000 1.0000
25.2100 825.0000 1.0000
25.2200 848.0000 1.0000
25.2300 822.0000 1.0000
25.2400 865.0000 1.0000
25.2500 884.0000 1.0000
25.2600 852.0000 1.0000
25.2700 850.0000 1.0000
25.2800 844.0000 1.0000
25.2900 875.0000 1.0000
25.3000 865.0000 1.0000
25.3100 857.0000 1.0000
25.3200 854.0000 1.0000
25.3300 876.0000 1.0000
25.3400 931.0000 1.0000
25.3500 879.0000 1.0000
25.3600 891.0000 1.0000
25.3700 871.0000 1.0000
25.3800 887.0000 1.0000
25.3900 798.0000 1.0000
25.4000 853.0000 1.0000
25.4100 868.0000 1.0000
25.4200 838.0000 1.0000
25.4300 867.0000 1.0000
25.4400 871.0000 1.0000
25.4500 895.0000 1.0000
25.4600 917.0000 1.0000
25.4700 887.0000 1.0000
25.4800 851.0000 1.0000
25.4900 855.0000 1.0000
25.5000 857.0000 1.0000
25.5100 838.0000 1.0000
25.5200 867.0000 1.0000
25.5300 869.0000 1.0000
25.5400 857.0000 1.0000
25.5500 879.0000 1.0000
25.5600 882.0000 1.0000
25.5700 862.0000 1.0000
25.5800 864.0000 1.0000
25.5900 850.0000 1.0000
25.6000 876.0000 1.0000
25.6100 900.0000 1.0000
25.6200 842.0000 1.0000
25.6300 858.0000 1.0000
25.6400 875.0000 1.0000
25.6500 906.0000 1.0000
25.6600 905.0000 1.0000
25.6700 875.0000 1.0000
25.6800 836.0000 1.0000
25.6900 837.0000 1.0000
25.7000 826.0000 1.0000
25.7100 889.0000 1.0000
25.7200 853.0000 1.0000
25.7300 892.0000 1.0000
25.7400 858.0000 1.0000
25.7500 886.0000 1.0000
25.7600 878.0000 1.0000
25.7700 852.0000 1.0000
25.7800 815.0000 1.0000
25.7900 910.0000 1.0000
25.8000 890.0000 1.0000
25.8100 866.0000 1.0000
25.8200 869.0000 1.0000
25.8300 869.0000 1.0000
25.8400 857.0000 1.0000
25.8500 882.0000 1.0000
25.8600 853.0000 1.0000
25.8700 883.0000 1.0000
25.8800 883.0000 1.0000
25.8900 905.0000 1.0000
25.9000 867.0000 1.0000
25.9100 923.0000 1.0000
25.9200 923.0000 1.0000
25.9300 888.0000 1.0000
25.9400 882.0000 1.0000
25.9500 905.0000 1.0000
25.9600 908.0000 1.0000
25.9700 879.0000 1.0000
25.9800 930.0000 1.0000
25.9900 880.0000 1.0000
26.0000 917.0000 1.0000
26.0100 932.0000 1.0000
26.0200 957.0000 1.0000
26.0300 969.0000 1.0000
26.0400 940.0000 1.0000
26.0500 930.0000 1.0000
26.0600 996.0000 1.0000
26.0700 1013.0000 1.0000
26.0800 995.0000 1.0000
26.0900 998.0000 1.0000
26.1000 1015.0000 1.0000
26.1100 1008.0000 1.0000
26.1200 1022.0000 1.0000
26.1300 1018.0000 1.0000
26.1400 1114.0000 1.0000
26.1500 1068.0000 1.0000
26.1600 1071.0000 1.0000
26.1700 1067.0000 1.0000
26.1800 1115.0000 1.0000
26.1900 1143.0000 1.0000
26.2000 1165.0000 1.0000
26.2100 1257.0000 1.0000
26.2200 1196.0000 1.0000
26.2300 1255.0000 1.0000
26.2400 1275.0000 1.0000
26.2500 1321.0000 1.0000
26.2600 1440.0000 1.0000
26.2700 1442.0000 1.0000
26.2800 1477.0000 1.0000
26.2900 1458.0000 1.0000
26.3000 1540.0000 1.0000
26.3100 1576.0000 1.0000
26.3200 1768.0000 1.0000
26.3300 1831.0000 1.0000
26.3400 1848.0000 1.0000
26.3500 1975.0000 1.0000
26.3600 2117.0000 1.0000
26.3700 2183.0000 1.0000
26.3800 2311.0000 1.0000
26.3900 2453.0000 1.0000
26.4000 2641.0000 1.0000
26.4100 2739.0000 1.0000
26.4200 2821.0000 1.0000
26.4300 2894.0000 1.0000
26.4400 3009.0000 1.0000
26.4500 3074.0000 1.0000
26.4600 3071.0000 1.0000
26.4700 3078.0000 1.0000
26.4800 3047.0000 1.0000
26.4900 3004.0000 1.0000
26.5000 2915.0000 1.0000
26.5100 2763.0000 1.0000
26.5200 2628.0000 1.0000
26.5300 2616.0000 1.0000
26.5400 2460.0000 1.0000
26.5500 2270.0000 1.0000
26.5600 2126.0000 1.0000
26.5700 2027.0000 1.0000
26.5800 1923.0000 1.0000
26.5900 1836.0000 1.0000
26.6000 1760.0000 1.0000
26.6100 1630.0000 1.0000
26.6200 1592.0000 1.0000
26.6300 1522.0000 1.0000
26.6400 1482.0000 1.0000
26.6500 1415.0000 1.0000
26.6600 1479.0000 1.0000
26.6700 1359.0000 1.0000
26.6800 1280.0000 1.0000
26.6900 1187.0000 1.0000
26.7000 1212.0000 1.0000
26.7100 1208.0000 1.0000
26.7200 1161.0000 1.0000
26.7300 1122.0000 1.0000
26.7400 1096.0000 1.0000
26.7500 1089.0000 1.0000
26.7600 1106.0000 1.0000
26.7700 1038.0000 1.0000
26.7800 1055.0000 1.0000
26.7900 1013.0000 1.0000
26.8000 1017.0000 1.0000
26.8100 1068.0000 1.0000
26.8200 998.0000 1.0000
26.8300 1002.0000 1.0000
26.8400 981.0000 1.0000
26.8500 906.0000 1.0000
26.8600 921.0000 1.0000
26.8700 985.0000 1.0000
26.8800 908.0000 1.0000
26.8900 921.0000 1.0000
26.9000 888.0000 1.0000
26.9100 888.0000 1.0000
26.9200 871.0000 1.0000
26.9300 897.0000 1.0000
26.9400 913.0000 1.0000
26.9500 901.0000 1.0000
26.9600 913.0000 1.0000
26.9700 890.0000 1.0000
26.9800 917.0000 1.0000
26.9900 877.0000 1.0000
27.0000 834.0000 1.0000
27.0100 893.0000 1.0000
27.0200 872.0000 1.0000
27.0300 836.0000 1.0000
27.0400 851.0000 1.0000
27.0500 818.0000 1.0000
27.0600 875.0000 1.0000
27.0700 863.0000 1.0000
27.0800 889.0000 1.0000
27.0900 832.0000 1.0000
27.1000 861.0000 1.0000
27.1100 829.0000 1.0000
27.1200 803.0000 1.0000
27.1300 858.0000 1.0000
27.1400 840.0000 1.0000
27.1500 823.0000 1.0000
27.1600 820.0000 1.0000
27.1700 869.0000 1.0000
27.1800 855.0000 1.0000
27.1900 774.0000 1.0000
27.2000 825.0000 1.0000
27.2100 776.0000 1.0000
27.2200 771.0000 1.0000
27.2300 808.0000 1.0000
27.2400 802.0000 1.0000
27.2500 811.0000 1.0000
27.2600 798.0000 1.0000
27.2700 858.0000 1.0000
27.2800 827.0000 1.0000
27.2900 786.0000 1.0000
27.3000 827.0000 1.0000
27.3100 803.0000 1.0000
27.3200 796.0000 1.0000
27.3300 811.0000 1.0000
27.3400 837.0000 1.0000
27.3500 785.0000 1.0000
27.3600 808.0000 1.0000
27.3700 828.0000 1.0000
27.3800 777.0000 1.0000
27.3900 738.0000 1.0000
27.4000 806.0000 1.0000
27.4100 778.0000 1.0000
27.4200 773.0000 1.0000
27.4300 787.0000 1.0000
27.4400 788.0000 1.0000
27.4500 815.0000 1.0000
27.4600 776.0000 1.0000
27.4700 798.0000 1.0000
27.4800 773.0000 1.0000
27.4900 766.0000 1.0000
27.5000 788.0000 1.0000
27.5100 819.0000 1.0000
27.5200 758.0000 1.0000
27.5300 771.0000 1.0000
27.5400 813.0000 1.0000
27.5500 739.0000 1.0000
27.5600 776.0000 1.0000
27.5700 824.0000 1.0000
27.5800 831.0000 1.0000
27.5900 778.0000 1.0000
27.6000 770.0000 1.0000
27.6100 811.0000 1.0000
27.6200 825.0000 1.0000
27.6300 827.0000 1.0000
27.6400 779.0000 1.0000
27.6500 771.0000 1.0000
27.6600 834.0000 1.0000
27.6700 751.0000 1.0000
27.6800 777.0000 1.0000
27.6900 778.0000 1.0000
27.7000 794.0000 1.0000
27.7100 810.0000 1.0000
27.7200 795.0000 1.0000
27.7300 748.0000 1.0000
27.7400 738.0000 1.0000
27.7500 775.0000 1.0000
27.7600 758.0000 1.0000
27.7700 776.0000 1.0000
27.7800 756.0000 1.0000
27.7900 761.0000 1.0000
27.8000 785.0000 1.0000
27.8100 742.0000 1.0000
27.8200 776.0000 1.0000
27.8300 741.0000 1.0000
27.8400 749.0000 1.0000
27.8500 772.0000 1.0000
27.8600 764.0000 1.0000
27.8700 782.0000 1.0000
27.8800 806.0000 1.0000
27.8900 762.0000 1.0000
27.9000 752.0000 1.0000
27.9100 777.0000 1.0000
27.9200 749.0000 1.0000
27.9300 763.0000 1.0000
27.9400 783.0000 1.0000
27.9500 785.0000 1.0000
27.9600 784.0000 1.0000
27.9700 729.0000 1.0000
27.9800 744.0000 1.0000
27.9900 743.0000 1.0000
28.0000 776.0000 1.0000
28.0100 775.0000 1.0000
28.0200 742.0000 1.0000
28.0300 788.0000 1.0000
28.0400 708.0000 1.0000
28.0500 776.0000 1.0000
28.0600 791.0000 1.0000
28.0700 732.0000 1.0000
28.0800 775.0000 1.0000
28.0900 766.0000 1.0000
28.1000 741.0000 1.0000
28.1100 778.0000 1.0000
28.1200 755.0000 1.0000
28.1300 762.0000 1.0000
28.1400 761.0000 1.0000
28.1500 706.0000 1.0000
28.1600 767.0000 1.0000
28.1700 781.0000 1.0000
28.1800 724.0000 1.0000
28.1900 742.0000 1.0000
28.2000 739.0000 1.0000
28.2100 744.0000 1.0000
28.2200 774.0000 1.0000
28.2300 731.0000 1.0000
28.2400 776.0000 1.0000
28.2500 721.0000 1.0000
28.2600 746.0000 1.0000
28.2700 754.0000 1.0000
28.2800 706.0000 1.0000
28.2900 699.0000 1.0000
28.3000 744.0000 1.0000
28.3100 760.0000 1.0000
28.3200 761.0000 1.0000
28.3300 723.0000 1.0000
28.3400 725.0000 1.0000
28.3500 757.0000 1.0000
28.3600 754.0000 1.0000
28.3700 722.0000 1.0000
28.3800 721.0000 1.0000
28.3900 743.0000 1.0000
28.4000 733.0000 1.0000
28.4100 695.0000 1.0000
28.4200 711.0000 1.0000
28.4300 736.0000 1.0000
28.4400 714.0000 1.0000
28.4500 695.0000 1.0000
28.4600 724.0000 1.0000
28.4700 733.0000 1.0000
28.4800 751.0000 1.0000
28.4900 768.0000 1.0000
28.5000 735.0000 1.0000
28.5100 714.0000 1.0000
28.5200 768.0000 1.0000
28.5300 751.0000 1.0000
28.5400 797.0000 1.0000
28.5500 769.0000 1.0000
28.5600 781.0000 1.0000
28.5700 743.0000 1.0000
28.5800 767.0000 1.0000
28.5900 723.0000 1.0000
28.6000 712.0000 1.0000
28.6100 774.0000 1.0000
28.6200 745.0000 1.0000
28.6300 723.0000 1.0000
28.6400 698.0000 1.0000
28.6500 712.0000 1.0000
28.6600 760.0000 1.0000
28.6700 774.0000 1.0000
28.6800 773.0000 1.0000
28.6900 733.0000 1.0000
28.7000 717.0000 1.0000
28.7100 690.0000 1.0000
28.7200 738.0000 1.0000
28.7300 737.0000 1.0000
28.7400 735.0000 1.0000
28.7500 735.0000 1.0000
28.7600 748.0000 1.0000
28.7700 730.0000 1.0000
28.7800 708.0000 1.0000
28.7900 726.0000 1.0000
28.8000 745.0000 1.0000
28.8100 697.0000 1.0000
28.8200 762.0000 1.0000
28.8300 707.0000 1.0000
28.8400 720.0000 1.0000
28.8500 729.0000 1.0000
28.8600 744.0000 1.0000
28.8700 740.0000 1.0000
28.8800 709.0000 1.0000
28.8900 717.0000 1.0000
28.9000 714.0000 1.0000
28.9100 763.0000 1.0000
28.9200 730.0000 1.0000
28.9300 700.0000 1.0000
28.9400 716.0000 1.0000
28.9500 712.0000 1.0000
28.9600 747.0000 1.0000
28.9700 741.0000 1.0000
28.9800 733.0000 1.0000
28.9900 725.0000 1.0000
29.0000 725.0000 1.0000
29.0100 723.0000 1.0000
29.0200 727.0000 1.0000
29.0300 723.0000 1.0000
29.0400 741.0000 1.0000
29.0500 717.0000 1.0000
29.0600 680.0000 1.0000
29.0700 705.0000 1.0000
29.0800 687.0000 1.0000
29.0900 717.0000 1.0000
29.1000 739.0000 1.0000
29.1100 747.0000 1.0000
29.1200 711.0000 1.0000
29.1300 687.0000 1.0000
29.1400 697.0000 1.0000
29.1500 706.0000 1.0000
29.1600 688.0000 1.0000
29.1700 715.0000 1.0000
29.1800 729.0000 1.0000
29.1900 708.0000 1.0000
29.2000 660.0000 1.0000
29.2100 695.0000 1.0000
29.2200 679.0000 1.0000
29.2300 711.0000 1.0000
29.2400 702.0000 1.0000
29.2500 733.0000 1.0000
29.2600 699.0000 1.0000
29.2700 757.0000 1.0000
29.2800 713.0000 1.0000
29.2900 715.0000 1.0000
29.3000 692.0000 1.0000
29.3100 738.0000 1.0000
29.3200 719.0000 1.0000
29.3300 693.0000 1.0000
29.3400 658.0000 1.0000
29.3500 681.0000 1.0000
29.3600 716.0000 1.0000
29.3700 670.0000 1.0000
29.3800 706.0000 1.0000
29.3900 743.0000 1.0000
29.4000 724.0000 1.0000
29.4100 695.0000 1.0000
29.4200 654.0000 1.0000
29.4300 715.0000 1.0000
29.4400 726.0000 1.0000
29.4500 703.0000 1.0000
29.4600 713.0000 1.0000
29.4700 693.0000 1.0000
29.4800 763.0000 1.0000
29.4900 702.0000 1.0000
29.5000 708.0000 1.0000
29.5100 640.0000 1.0000
29.5200 677.0000 1.0000
29.5300 674.0000 1.0000
29.5400 706.0000 1.0000
29.5500 703.0000 1.0000
29.5600 681.0000 1.0000
29.5700 711.0000 1.0000
29.5800 714.0000 1.0000
29.5900 696.0000 1.0000
29.6000 696.0000 1.0000
29.6100 683.0000 1.0000
29.6200 694.0000 1.0000
29.6300 737.0000 1.0000
29.6400 681.0000 1.0000
29.6500 698.0000 1.0000
29.6600 722.0000 1.0000
29.6700 692.0000 1.0000
29.6800 722.0000 1.0000
29.6900 704.0000 1.0000
29.7000 655.0000 1.0000
29.7100 719.0000 1.0000
29.7200 700.0000 1.0000
29.7300 686.0000 1.0000
29.7400 680.0000 1.0000
29.7500 737.0000 1.0000
29.7600 709.0000 1.0000
29.7700 748.0000 1.0000
29.7800 707.0000 1.0000
29.7900 682.0000 1.0000
29.8000 696.0000 1.0000
29.8100 720.0000 1.0000
29.8200 712.0000 1.0000
29.8300 690.0000 1.0000
29.8400 648.0000 1.0000
29.8500 716.0000 1.0000
29.8600 704.0000 1.0000
29.8700 687.0000 1.0000
29.8800 683.0000 1.0000
29.8900 642.0000 1.0000
29.9000 679.0000 1.0000
29.9100 658.0000 1.0000
29.9200 735.0000 1.0000
29.9300 695.0000 1.0000
29.9400 688.0000 1.0000
29.9500 694.0000 1.0000
29.9600 697.0000 1.0000
29.9700 706.0000 1.0000
29.9800 676.0000 1.0000
29.9900 684.0000 1.0000
30.0000 714.0000 1.0000
30.0100 666.0000 1.0000
30.0200 663.0000 1.0000
30.0300 684.0000 1.0000
30.0400 688.0000 1.0000
30.0500 714.0000 1.0000
30.0600 694.0000 1.0000
30.0700 633.0000 1.0000
30.0800 673.0000 1.0000
30.0900 656.0000 1.0000
30.1000 697.0000 1.0000
30.1100 704.0000 1.0000
30.1200 692.0000 1.0000
30.1300 685.0000 1.0000
30.1400 639.0000 1.0000
30.1500 702.0000 1.0000
30.1600 701.0000 1.0000
30.1700 678.0000 1.0000
30.1800 698.0000 1.0000
30.1900 696.0000 1.0000
30.2000 716.0000 1.0000
30.2100 678.0000 1.0000
30.2200 720.0000 1.0000
30.2300 689.0000 1.0000
30.2400 675.0000 1.0000
30.2500 666.0000 1.0000
30.2600 709.0000 1.0000
30.2700 707.0000 1.0000
30.2800 712.0000 1.0000
30.2900 691.0000 1.0000
30.3000 659.0000 1.0000
30.3100 641.0000 1.0000
30.3200 661.0000 1.0000
30.3300 681.0000 1.0000
30.3400 727.0000 1.0000
30.3500 723.0000 1.0000
30.3600 703.0000 1.0000
30.3700 656.0000 1.0000
30.3800 707.0000 1.0000
30.3900 691.0000 1.0000
30.4000 684.0000 1.0000
30.4100 663.0000 1.0000
30.4200 690.0000 1.0000
30.4300 697.0000 1.0000
30.4400 681.0000 1.0000
30.4500 664.0000 1.0000
30.4600 715.0000 1.0000
30.4700 657.0000 1.0000
30.4800 665.0000 1.0000
30.4900 655.0000 1.0000
30.5000 703.0000 1.0000
30.5100 701.0000 1.0000
30.5200 690.0000 1.0000
30.5300 663.0000 1.0000
30.5400 652.0000 1.0000
30.5500 677.0000 1.0000
30.5600 683.0000 1.0000
30.5700 687.0000 1.0000
30.5800 711.0000 1.0000
30.5900 669.0000 1.0000
30.6000 733.0000 1.0000
30.6100 695.0000 1.0000
30.6200 635.0000 1.0000
30.6300 673.0000 1.0000
30.6400 641.0000 1.0000
30.6500 683.0000 1.0000
30.6600 691.0000 1.0000
30.6700 680.0000 1.0000
30.6800 671.0000 1.0000
30.6900 676.0000 1.0000
30.7000 635.0000 1.0000
30.7100 670.0000 1.0000
30.7200 642.0000 1.0000
30.7300 671.0000 1.0000
30.7400 631.0000 1.0000
30.7500 649.0000 1.0000
30.7600 646.0000 1.0000
30.7700 646.0000 1.0000
30.7800 653.0000 1.0000
30.7900 651.0000 1.0000
30.8000 646.0000 1.0000
30.8100 639.0000 1.0000
30.8200 648.0000 1.0000
30.8300 696.0000 1.0000
30.8400 665.0000 1.0000
30.8500 704.0000 1.0000
30.8600 665.0000 1.0000
30.8700 675.0000 1.0000
30.8800 687.0000 1.0000
30.8900 636.0000 1.0000
30.9000 683.0000 1.0000
30.9100 676.0000 1.0000
30.9200 663.0000 1.0000
30.9300 608.0000 1.0000
30.9400 624.0000 1.0000
30.9500 659.0000 1.0000
30.9600 683.0000 1.0000
30.9700 663.0000 1.0000
30.9800 642.0000 1.0000
30.9900 649.0000 1.0000
31.0000 673.0000 1.0000
31.0100 658.0000 1.0000
31.0200 657.0000 1.0000
31.0300 665.0000 1.0000
31.0400 643.0000 1.0000
31.0500 661.0000 1.0000
31.0600 668.0000 1.0000
31.0700 680.0000 1.0000
31.0800 680.0000 1.0000
31.0900 722.0000 1.0000
31.1000 704.0000 1.0000
31.1100 701.0000 1.0000
31.1200 682.0000 1.0000
31.1300 709.0000 1.0000
31.1400 670.0000 1.0000
31.1500 650.0000 1.0000
31.1600 681.0000 1.0000
31.1700 629.0000 1.0000
31.1800 661.0000 1.0000
31.1900 688.0000 1.0000
31.2000 710.0000 1.0000
31.2100 668.0000 1.0000
31.2200 702.0000 1.0000
31.2300 675.0000 1.0000
31.2400 672.0000 1.0000
31.2500 694.0000 1.0000
31.2600 713.0000 1.0000
31.2700 693.0000 1.0000
31.2800 708.0000 1.0000
31.2900 695.0000 1.0000
31.3000 689.0000 1.0000
31.3100 660.0000 1.0000
31.3200 644.0000 1.0000
31.3300 660.0000 1.0000
31.3400 651.0000 1.0000
31.3500 653.0000 1.0000
31.3600 648.0000 1.0000
31.3700 676.0000 1.0000
31.3800 700.0000 1.0000
31.3900 669.0000 1.0000
31.4000 682.0000 1.0000
31.4100 679.0000 1.0000
31.4200 650.0000 1.0000
31.4300 637.0000 1.0000
31.4400 633.0000 1.0000
31.4500 611.0000 1.0000
31.4600 648.0000 1.0000
31.4700 639.0000 1.0000
31.4800 641.0000 1.0000
31.4900 656.0000 1.0000
31.5000 639.0000 1.0000
31.5100 638.0000 1.0000
31.5200 671.0000 1.0000
31.5300 666.0000 1.0000
31.5400 652.0000 1.0000
31.5500 637.0000 1.0000
31.5600 641.0000 1.0000
31.5700 612.0000 1.0000
31.5800 665.0000 1.0000
31.5900 644.0000 1.0000
31.6000 701.0000 1.0000
31.6100 695.0000 1.0000
31.6200 679.0000 1.0000
31.6300 670.0000 1.0000
31.6400 679.0000 1.0000
31.6500 619.0000 1.0000
31.6600 616.0000 1.0000
31.6700 662.0000 1.0000
31.6800 657.0000 1.0000
31.6900 631.0000 1.0000
31.7000 622.0000 1.0000
31.7100 620.0000 1.0000
31.7200 620.0000 1.0000
31.7300 631.0000 1.0000
31.7400 687.0000 1.0000
31.7500 604.0000 1.0000
31.7600 642.0000 1.0000
31.7700 642.0000 1.0000
31.7800 598.0000 1.0000
31.7900 631.0000 1.0000
31.8000 641.0000 1.0000
31.8100 646.0000 1.0000
31.8200 657.0000 1.0000
31.8300 595.0000 1.0000
31.8400 599.0000 1.0000
31.8500 633.0000 1.0000
31.8600 668.0000 1.0000
31.8700 648.0000 1.0000
31.8800 604.0000 1.0000
31.8900 642.0000 1.0000
31.9000 651.0000 1.0000
31.9100 648.0000 1.0000
31.9200 652.0000 1.0000
31.9300 621.0000 1.0000
31.9400 633.0000 1.0000
31.9500 617.0000 1.0000
31.9600 632.0000 1.0000
31.9700 665.0000 1.0000
31.9800 669.0000 1.0000
31.9900 645.0000 1.0000
32.0000 645.0000 1.0000
32.0100 652.0000 1.0000
32.0200 669.0000 1.0000
32.0300 631.0000 1.0000
32.0400 648.0000 1.0000
32.0500 607.0000 1.0000
32.0600 594.0000 1.0000
32.0700 621.0000 1.0000
32.0800 642.0000 1.0000
32.0900 641.0000 1.0000
32.1000 709.0000 1.0000
32.1100 608.0000 1.0000
32.1200 605.0000 1.0000
32.1300 620.0000 1.0000
32.1400 639.0000 1.0000
32.1500 624.0000 1.0000
32.1600 664.0000 1.0000
32.1700 620.0000 1.0000
32.1800 667.0000 1.0000
32.1900 601.0000 1.0000
32.2000 646.0000 1.0000
32.2100 574.0000 1.0000
32.2200 612.0000 1.0000
32.2300 618.0000 1.0000
32.2400 661.0000 1.0000
32.2500 622.0000 1.0000
32.2600 620.0000 1.0000
32.2700 652.0000 1.0000
32.2800 626.0000 1.0000
32.2900 634.0000 1.0000
32.3000 566.0000 1.0000
32.3100 611.0000 1.0000
32.3200 651.0000 1.0000
32.3300 647.0000 1.0000
32.3400 631.0000 1.0000
32.3500 608.0000 1.0000
32.3600 639.0000 1.0000
32.3700 628.0000 1.0000
32.3800 626.0000 1.0000
32.3900 623.0000 1.0000
32.4000 616.0000 1.0000
32.4100 613.0000 1.0000
32.4200 598.0000 1.0000
32.4300 660.0000 1.0000
32.4400 637.0000 1.0000
32.4500 589.0000 1.0000
32.4600 632.0000 1.0000
32.4700 613.0000 1.0000
32.4800 623.0000 1.0000
32.4900 632.0000 1.0000
32.5000 610.0000 1.0000
32.5100 619.0000 1.0000
32.5200 597.0000 1.0000
32.5300 648.0000 1.0000
32.5400 619.0000 1.0000
32.5500 607.0000 1.0000
32.5600 645.0000 1.0000
32.5700 621.0000 1.0000
32.5800 646.0000 1.0000
32.5900 612.0000 1.0000
32.6000 634.0000 1.0000
32.6100 632.0000 1.0000
32.6200 612.0000 1.0000
32.6300 633.0000 1.0000
32.6400 613.0000 1.0000
32.6500 676.0000 1.0000
32.6600 641.0000 1.0000
32.6700 633.0000 1.0000
32.6800 640.0000 1.0000
32.6900 626.0000 1.0000
32.7000 601.0000 1.0000
32.7100 615.0000 1.0000
32.7200 638.0000 1.0000
32.7300 667.0000 1.0000
32.7400 600.0000 1.0000
32.7500 630.0000 1.0000
32.7600 615.0000 1.0000
32.7700 622.0000 1.0000
32.7800 641.0000 1.0000
32.7900 658.0000 1.0000
32.8000 679.0000 1.0000
32.8100 661.0000 1.0000
32.8200 630.0000 1.0000
32.8300 661.0000 1.0000
32.8400 661.0000 1.0000
32.8500 676.0000 1.0000
32.8600 665.0000 1.0000
32.8700 676.0000 1.0000
32.8800 691.0000 1.0000
32.8900 622.0000 1.0000
32.9000 628.0000 1.0000
32.9100 613.0000 1.0000
32.9200 701.0000 1.0000
32.9300 638.0000 1.0000
32.9400 658.0000 1.0000
32.9500 658.0000 1.0000
32.9600 691.0000 1.0000
32.9700 719.0000 1.0000
32.9800 663.0000 1.0000
32.9900 629.0000 1.0000
33.0000 659.0000 1.0000
33.0100 703.0000 1.0000
33.0200 735.0000 1.0000
33.0300 715.0000 1.0000
33.0400 772.0000 1.0000
33.0500 757.0000 1.0000
33.0600 764.0000 1.0000
33.0700 747.0000 1.0000
33.0800 769.0000 1.0000
33.0900 742.0000 1.0000
33.1000 751.0000 1.0000
33.1100 738.0000 1.0000
33.1200 747.0000 1.0000
33.1300 772.0000 1.0000
33.1400 775.0000 1.0000
33.1500 763.0000 1.0000
33.1600 762.0000 1.0000
33.1700 753.0000 1.0000
33.1800 770.0000 1.0000
33.1900 747.0000 1.0000
33.2000 781.0000 1.0000
33.2100 713.0000 1.0000
33.2200 671.0000 1.0000
33.2300 734.0000 1.0000
33.2400 769.0000 1.0000
33.2500 697.0000 1.0000
33.2600 720.0000 1.0000
33.2700 746.0000 1.0000
33.2800 693.0000 1.0000
33.2900 728.0000 1.0000
33.3000 682.0000 1.0000
33.3100 694.0000 1.0000
33.3200 727.0000 1.0000
33.3300 700.0000 1.0000
33.3400 733.0000 1.0000
33.3500 720.0000 1.0000
33.3600 748.0000 1.0000
33.3700 748.0000 1.0000
33.3800 703.0000 1.0000
33.3900 731.0000 1.0000
33.4000 751.0000 1.0000
33.4100 761.0000 1.0000
33.4200 741.0000 1.0000
33.4300 777.0000 1.0000
33.4400 804.0000 1.0000
33.4500 815.0000 1.0000
33.4600 822.0000 1.0000
33.4700 896.0000 1.0000
33.4800 907.0000 1.0000
33.4900 902.0000 1.0000
33.5000 878.0000 1.0000
33.5100 910.0000 1.0000
33.5200 980.0000 1.0000
33.5300 955.0000 1.0000
33.5400 1017.0000 1.0000
33.5500 1057.0000 1.0000
33.5600 1106.0000 1.0000
33.5700 1146.0000 1.0000
33.5800 1261.0000 1.0000
33.5900 1266.0000 1.0000
33.6000 1318.0000 1.0000
33.6100 1411.0000 1.0000
33.6200 1448.0000 1.0000
33.6300 1447.0000 1.0000
33.6400 1517.0000 1.0000
33.6500 1549.0000 1.0000
33.6600 1565.0000 1.0000
33.6700 1603.0000 1.0000
33.6800 1584.0000 1.0000
33.6900 1491.0000 1.0000
33.7000 1569.0000 1.0000
33.7100 1491.0000 1.0000
33.7200 1442.0000 1.0000
33.7300 1446.0000 1.0000
33.7400 1363.0000 1.0000
33.7500 1288.0000 1.0000
33.7600 1251.0000 1.0000
33.7700 1227.0000 1.0000
33.7800 1176.0000 1.0000
33.7900 1134.0000 1.0000
33.8000 1096.0000 1.0000
33.8100 991.0000 1.0000
33.8200 975.0000 1.0000
33.8300 977.0000 1.0000
33.8400 978.0000 1.0000
33.8500 945.0000 1.0000
33.8600 886.0000 1.0000
33.8700 867.0000 1.0000
33.8800 824.0000 1.0000
33.8900 831.0000 1.0000
33.9000 812.0000 1.0000
33.9100 789.0000 1.0000
33.9200 763.0000 1.0000
33.9300 747.0000 1.0000
33.9400 753.0000 1.0000
33.9500 742.0000 1.0000
33.9600 730.0000 1.0000
33.9700 705.0000 1.0000
33.9800 735.0000 1.0000
33.9900 667.0000 1.0000
34.0000 673.0000 1.0000
34.0100 676.0000 1.0000
34.0200 658.0000 1.0000
34.0300 646.0000 1.0000
34.0400 670.0000 1.0000
34.0500 661.0000 1.0000
34.0600 660.0000 1.0000
34.0700 651.0000 1.0000
34.0800 626.0000 1.0000
34.0900 651.0000 1.0000
34.1000 640.0000 1.0000
34.1100 647.0000 1.0000
34.1200 590.0000 1.0000
34.1300 608.0000 1.0000
34.1400 595.0000 1.0000
34.1500 601.0000 1.0000
34.1600 614.0000 1.0000
34.1700 643.0000 1.0000
34.1800 613.0000 1.0000
34.1900 622.0000 1.0000
34.2000 593.0000 1.0000
34.2100 603.0000 1.0000
34.2200 605.0000 1.0000
34.2300 583.0000 1.0000
34.2400 598.0000 1.0000
34.2500 609.0000 1.0000
34.2600 635.0000 1.0000
34.2700 579.0000 1.0000
34.2800 607.0000 1.0000
34.2900 592.0000 1.0000
34.3000 617.0000 1.0000
34.3100 584.0000 1.0000
34.3200 587.0000 1.0000
34.3300 558.0000 1.0000
34.3400 610.0000 1.0000
34.3500 564.0000 1.0000
34.3600 587.0000 1.0000
34.3700 579.0000 1.0000
34.3800 573.0000 1.0000
34.3900 533.0000 1.0000
34.4000 563.0000 1.0000
34.4100 586.0000 1.0000
34.4200 601.0000 1.0000
34.4300 566.0000 1.0000
34.4400 551.0000 1.0000
34.4500 588.0000 1.0000
34.4600 572.0000 1.0000
34.4700 605.0000 1.0000
34.4800 589.0000 1.0000
34.4900 595.0000 1.0000
34.5000 549.0000 1.0000
34.5100 567.0000 1.0000
34.5200 538.0000 1.0000
34.5300 569.0000 1.0000
34.5400 554.0000 1.0000
34.5500 573.0000 1.0000
34.5600 574.0000 1.0000
34.5700 571.0000 1.0000
34.5800 589.0000 1.0000
34.5900 597.0000 1.0000
34.6000 579.0000 1.0000
34.6100 560.0000 1.0000
34.6200 509.0000 1.0000
34.6300 532.0000 1.0000
34.6400 559.0000 1.0000
34.6500 560.0000 1.0000
34.6600 557.0000 1.0000
34.6700 553.0000 1.0000
34.6800 576.0000 1.0000
34.6900 570.0000 1.0000
34.7000 574.0000 1.0000
34.7100 534.0000 1.0000
34.7200 582.0000 1.0000
34.7300 535.0000 1.0000
34.7400 565.0000 1.0000
34.7500 533.0000 1.0000
34.7600 539.0000 1.0000
34.7700 570.0000 1.0000
34.7800 559.0000 1.0000
34.7900 590.0000 1.0000
34.8000 544.0000 1.0000
34.8100 521.0000 1.0000
34.8200 576.0000 1.0000
34.8300 548.0000 1.0000
34.8400 495.0000 1.0000
34.8500 551.0000 1.0000
34.8600 533.0000 1.0000
34.8700 553.0000 1.0000
34.8800 561.0000 1.0000
34.8900 578.0000 1.0000
34.9000 566.0000 1.0000
34.9100 522.0000 1.0000
34.9200 544.0000 1.0000
34.9300 561.0000 1.0000
34.9400 570.0000 1.0000
34.9500 535.0000 1.0000
34.9600 549.0000 1.0000
34.9700 540.0000 1.0000
34.9800 562.0000 1.0000
34.9900 534.0000 1.0000
35.0000 556.0000 1.0000
35.0100 535.0000 1.0000
35.0200 523.0000 1.0000
35.0300 497.0000 1.0000
35.0400 545.0000 1.0000
35.0500 517.0000 1.0000
35.0600 490.0000 1.0000
35.0700 558.0000 1.0000
35.0800 546.0000 1.0000
35.0900 548.0000 1.0000
35.1000 544.0000 1.0000
35.1100 527.0000 1.0000
35.1200 530.0000 1.0000
35.1300 559.0000 1.0000
35.1400 542.0000 1.0000
35.1500 545.0000 1.0000
35.1600 514.0000 1.0000
35.1700 544.0000 1.0000
35.1800 543.0000 1.0000
35.1900 571.0000 1.0000
35.2000 564.0000 1.0000
35.2100 593.0000 1.0000
35.2200 580.0000 1.0000
35.2300 581.0000 1.0000
35.2400 546.0000 1.0000
35.2500 539.0000 1.0000
35.2600 574.0000 1.0000
35.2700 561.0000 1.0000
35.2800 565.0000 1.0000
35.2900 563.0000 1.0000
35.3000 605.0000 1.0000
35.3100 618.0000 1.0000
35.3200 588.0000 1.0000
35.3300 580.0000 1.0000
35.3400 577.0000 1.0000
35.3500 600.0000 1.0000
35.3600 603.0000 1.0000
35.3700 638.0000 1.0000
35.3800 607.0000 1.0000
35.3900 632.0000 1.0000
35.4000 616.0000 1.0000
35.4100 609.0000 1.0000
35.4200 688.0000 1.0000
35.4300 642.0000 1.0000
35.4400 676.0000 1.0000
35.4500 695.0000 1.0000
35.4600 720.0000 1.0000
35.4700 732.0000 1.0000
35.4800 754.0000 1.0000
35.4900 770.0000 1.0000
35.5000 794.0000 1.0000
35.5100 836.0000 1.0000
35.5200 879.0000 1.0000
35.5300 858.0000 1.0000
35.5400 924.0000 1.0000
35.5500 889.0000 1.0000
35.5600 925.0000 1.0000
35.5700 955.0000 1.0000
35.5800 963.0000 1.0000
35.5900 881.0000 1.0000
35.6000 966.0000 1.0000
35.6100 949.0000 1.0000
35.6200 979.0000 1.0000
35.6300 922.0000 1.0000
35.6400 893.0000 1.0000
35.6500 917.0000 1.0000
35.6600 901.0000 1.0000
35.6700 829.0000 1.0000
35.6800 849.0000 1.0000
35.6900 810.0000 1.0000
35.7000 769.0000 1.0000
35.7100 749.0000 1.0000
35.7200 718.0000 1.0000
35.7300 698.0000 1.0000
35.7400 694.0000 1.0000
35.7500 645.0000 1.0000
35.7600 666.0000 1.0000
35.7700 641.0000 1.0000
35.7800 610.0000 1.0000
35.7900 659.0000 1.0000
35.8000 622.0000 1.0000
35.8100 582.0000 1.0000
35.8200 592.0000 1.0000
35.8300 568.0000 1.0000
35.8400 551.0000 1.0000
35.8500 589.0000 1.0000
35.8600 546.0000 1.0000
35.8700 557.0000 1.0000
35.8800 543.0000 1.0000
35.8900 527.0000 1.0000
35.9000 536.0000 1.0000
35.9100 541.0000 1.0000
35.9200 505.0000 1.0000
35.9300 532.0000 1.0000
35.9400 507.0000 1.0000
35.9500 525.0000 1.0000
35.9600 526.0000 1.0000
35.9700 502.0000 1.0000
35.9800 545.0000 1.0000
35.9900 532.0000 1.0000
36.0000 507.0000 1.0000
36.0100 497.0000 1.0000
36.0200 488.0000 1.0000
36.0300 490.0000 1.0000
36.0400 510.0000 1.0000
36.0500 508.0000 1.0000
36.0600 522.0000 1.0000
36.0700 500.0000 1.0000
36.0800 497.0000 1.0000
36.0900 458.0000 1.0000
36.1000 533.0000 1.0000
36.1100 491.0000 1.0000
36.1200 496.0000 1.0000
36.1300 517.0000 1.0000
36.1400 529.0000 1.0000
36.1500 517.0000 1.0000
36.1600 503.0000 1.0000
36.1700 517.0000 1.0000
36.1800 502.0000 1.0000
36.1900 520.0000 1.0000
36.2000 477.0000 1.0000
36.2100 466.0000 1.0000
36.2200 510.0000 1.0000
36.2300 503.0000 1.0000
36.2400 488.0000 1.0000
36.2500 502.0000 1.0000
36.2600 526.0000 1.0000
36.2700 498.0000 1.0000
36.2800 523.0000 1.0000
36.2900 521.0000 1.0000
36.3000 517.0000 1.0000
36.3100 480.0000 1.0000
36.3200 546.0000 1.0000
36.3300 524.0000 1.0000
36.3400 522.0000 1.0000
36.3500 480.0000 1.0000
36.3600 510.0000 1.0000
36.3700 508.0000 1.0000
36.3800 500.0000 1.0000
36.3900 512.0000 1.0000
36.4000 521.0000 1.0000
36.4100 516.0000 1.0000
36.4200 505.0000 1.0000
36.4300 526.0000 1.0000
36.4400 533.0000 1.0000
36.4500 482.0000 1.0000
36.4600 502.0000 1.0000
36.4700 495.0000 1.0000
36.4800 545.0000 1.0000
36.4900 483.0000 1.0000
36.5000 487.0000 1.0000
36.5100 521.0000 1.0000
36.5200 500.0000 1.0000
36.5300 496.0000 1.0000
36.5400 466.0000 1.0000
36.5500 490.0000 1.0000
36.5600 490.0000 1.0000
36.5700 519.0000 1.0000
36.5800 549.0000 1.0000
36.5900 498.0000 1.0000
36.6000 500.0000 1.0000
36.6100 462.0000 1.0000
36.6200 498.0000 1.0000
36.6300 466.0000 1.0000
36.6400 496.0000 1.0000
36.6500 523.0000 1.0000
36.6600 487.0000 1.0000
36.6700 513.0000 1.0000
36.6800 523.0000 1.0000
36.6900 499.0000 1.0000
36.7000 447.0000 1.0000
36.7100 484.0000 1.0000
36.7200 507.0000 1.0000
36.7300 503.0000 1.0000
36.7400 526.0000 1.0000
36.7500 513.0000 1.0000
36.7600 476.0000 1.0000
36.7700 496.0000 1.0000
36.7800 487.0000 1.0000
36.7900 488.0000 1.0000
36.8000 506.0000 1.0000
36.8100 499.0000 1.0000
36.8200 510.0000 1.0000
36.8300 473.0000 1.0000
36.8400 506.0000 1.0000
36.8500 497.0000 1.0000
36.8600 462.0000 1.0000
36.8700 511.0000 1.0000
36.8800 524.0000 1.0000
36.8900 529.0000 1.0000
36.9000 522.0000 1.0000
36.9100 480.0000 1.0000
36.9200 504.0000 1.0000
36.9300 489.0000 1.0000
36.9400 512.0000 1.0000
36.9500 511.0000 1.0000
36.9600 472.0000 1.0000
36.9700 532.0000 1.0000
36.9800 502.0000 1.0000
36.9900 503.0000 1.0000
37.0000 491.0000 1.0000
37.0100 461.0000 1.0000
37.0200 497.0000 1.0000
37.0300 477.0000 1.0000
37.0400 487.0000 1.0000
37.0500 512.0000 1.0000
37.0600 477.0000 1.0000
37.0700 489.0000 1.0000
37.0800 491.0000 1.0000
37.0900 499.0000 1.0000
37.1000 521.0000 1.0000
37.1100 501.0000 1.0000
37.1200 507.0000 1.0000
37.1300 472.0000 1.0000
37.1400 508.0000 1.0000
37.1500 499.0000 1.0000
37.1600 467.0000 1.0000
37.1700 502.0000 1.0000
37.1800 509.0000 1.0000
37.1900 538.0000 1.0000
37.2000 518.0000 1.0000
37.2100 513.0000 1.0000
37.2200 530.0000 1.0000
37.2300 550.0000 1.0000
37.2400 516.0000 1.0000
37.2500 508.0000 1.0000
37.2600 497.0000 1.0000
37.2700 524.0000 1.0000
37.2800 497.0000 1.0000
37.2900 570.0000 1.0000
37.3000 560.0000 1.0000
37.3100 588.0000 1.0000
37.3200 577.0000 1.0000
37.3300 553.0000 1.0000
37.3400 568.0000 1.0000
37.3500 578.0000 1.0000
37.3600 598.0000 1.0000
37.3700 613.0000 1.0000
37.3800 611.0000 1.0000
37.3900 618.0000 1.0000
37.4000 634.0000 1.0000
37.4100 635.0000 1.0000
37.4200 659.0000 1.0000
37.4300 649.0000 1.0000
37.4400 724.0000 1.0000
37.4500 684.0000 1.0000
37.4600 732.0000 1.0000
37.4700 849.0000 1.0000
37.4800 785.0000 1.0000
37.4900 839.0000 1.0000
37.5000 834.0000 1.0000
37.5100 907.0000 1.0000
37.5200 918.0000 1.0000
37.5300 961.0000 1.0000
37.5400 1013.0000 1.0000
37.5500 1075.0000 1.0000
37.5600 1096.0000 1.0000
37.5700 1210.0000 1.0000
37.5800 1252.0000 1.0000
37.5900 1374.0000 1.0000
37.6000 1432.0000 1.0000
37.6100 1495.0000 1.0000
37.6200 1608.0000 1.0000
37.6300 1730.0000 1.0000
37.6400 1828.0000 1.0000
37.6500 1884.0000 1.0000
37.6600 2024.0000 1.0000
37.6700 2127.0000 1.0000
37.6800 2250.0000 1.0000
37.6900 2210.0000 1.0000
37.7000 2277.0000 1.0000
37.7100 2371.0000 1.0000
37.7200 2364.0000 1.0000
37.7300 2359.0000 1.0000
37.7400 2327.0000 1.0000
37.7500 2359.0000 1.0000
37.7600 2296.0000 1.0000
37.7700 2195.0000 1.0000
37.7800 2195.0000 1.0000
37.7900 2146.0000 1.0000
37.8000 2109.0000 1.0000
37.8100 1885.0000 1.0000
37.8200 1822.0000 1.0000
37.8300 1825.0000 1.0000
37.8400 1672.0000 1.0000
37.8500 1576.0000 1.0000
37.8600 1472.0000 1.0000
37.8700 1379.0000 1.0000
37.8800 1345.0000 1.0000
37.8900 1264.0000 1.0000
37.9000 1193.0000 1.0000
37.9100 1072.0000 1.0000
37.9200 1081.0000 1.0000
37.9300 989.0000 1.0000
37.9400 948.0000 1.0000
37.9500 882.0000 1.0000
37.9600 848.0000 1.0000
37.9700 789.0000 1.0000
37.9800 728.0000 1.0000
37.9900 712.0000 1.0000
38.0000 674.0000 1.0000
38.0100 689.0000 1.0000
38.0200 663.0000 1.0000
38.0300 667.0000 1.0000
38.0400 639.0000 1.0000
38.0500 606.0000 1.0000
38.0600 618.0000 1.0000
38.0700 621.0000 1.0000
38.0800 599.0000 1.0000
38.0900 582.0000 1.0000
38.1000 544.0000 1.0000
38.1100 546.0000 1.0000
38.1200 582.0000 1.0000
38.1300 569.0000 1.0000
38.1400 555.0000 1.0000
38.1500 536.0000 1.0000
38.1600 539.0000 1.0000
38.1700 513.0000 1.0000
38.1800 501.0000 1.0000
38.1900 521.0000 1.0000
38.2000 496.0000 1.0000
38.2100 488.0000 1.0000
38.2200 507.0000 1.0000
38.2300 486.0000 1.0000
38.2400 506.0000 1.0000
38.2500 510.0000 1.0000
38.2600 478.0000 1.0000
38.2700 460.0000 1.0000
38.2800 479.0000 1.0000
38.2900 488.0000 1.0000
38.3000 475.0000 1.0000
38.3100 471.0000 1.0000
38.3200 477.0000 1.0000
38.3300 482.0000 1.0000
38.3400 440.0000 1.0000
38.3500 471.0000 1.0000
38.3600 503.0000 1.0000
38.3700 500.0000 1.0000
38.3800 452.0000 1.0000
38.3900 437.0000 1.0000
38.4000 479.0000 1.0000
38.4100 477.0000 1.0000
38.4200 486.0000 1.0000
38.4300 470.0000 1.0000
38.4400 449.0000 1.0000
38.4500 449.0000 1.0000
38.4600 486.0000 1.0000
38.4700 428.0000 1.0000
38.4800 443.0000 1.0000
38.4900 485.0000 1.0000
38.5000 443.0000 1.0000
38.5100 435.0000 1.0000
38.5200 461.0000 1.0000
38.5300 436.0000 1.0000
38.5400 469.0000 1.0000
38.5500 480.0000 1.0000
38.5600 470.0000 1.0000
38.5700 458.0000 1.0000
38.5800 489.0000 1.0000
38.5900 466.0000 1.0000
38.6000 482.0000 1.0000
38.6100 446.0000 1.0000
38.6200 460.0000 1.0000
38.6300 473.0000 1.0000
38.6400 495.0000 1.0000
38.6500 439.0000 1.0000
38.6600 433.0000 1.0000
38.6700 461.0000 1.0000
38.6800 448.0000 1.0000
38.6900 503.0000 1.0000
38.7000 462.0000 1.0000
38.7100 457.0000 1.0000
38.7200 453.0000 1.0000
38.7300 484.0000 1.0000
38.7400 460.0000 1.0000
38.7500 473.0000 1.0000
38.7600 454.0000 1.0000
38.7700 457.0000 1.0000
38.7800 466.0000 1.0000
38.7900 517.0000 1.0000
38.8000 505.0000 1.0000
38.8100 478.0000 1.0000
38.8200 474.0000 1.0000
38.8300 465.0000 1.0000
38.8400 463.0000 1.0000
38.8500 471.0000 1.0000
38.8600 501.0000 1.0000
38.8700 499.0000 1.0000
38.8800 466.0000 1.0000
38.8900 469.0000 1.0000
38.9000 456.0000 1.0000
38.9100 489.0000 1.0000
38.9200 462.0000 1.0000
38.9300 451.0000 1.0000
38.9400 429.0000 1.0000
38.9500 459.0000 1.0000
38.9600 488.0000 1.0000
38.9700 423.0000 1.0000
38.9800 445.0000 1.0000
38.9900 441.0000 1.0000
39.0000 428.0000 1.0000
39.0100 438.0000 1.0000
39.0200 440.0000 1.0000
39.0300 424.0000 1.0000
39.0400 435.0000 1.0000
39.0500 445.0000 1.0000
39.0600 477.0000 1.0000
39.0700 443.0000 1.0000
39.0800 425.0000 1.0000
39.0900 477.0000 1.0000
39.1000 422.0000 1.0000
39.1100 423.0000 1.0000
39.1200 415.0000 1.0000
39.1300 433.0000 1.0000
39.1400 423.0000 1.0000
39.1500 437.0000 1.0000
39.1600 438.0000 1.0000
39.1700 431.0000 1.0000
39.1800 463.0000 1.0000
39.1900 439.0000 1.0000
39.2000 420.0000 1.0000
39.2100 417.0000 1.0000
39.2200 414.0000 1.0000
39.2300 442.0000 1.0000
39.2400 442.0000 1.0000
39.2500 425.0000 1.0000
39.2600 435.0000 1.0000
39.2700 424.0000 1.0000
39.2800 418.0000 1.0000
39.2900 400.0000 1.0000
39.3000 424.0000 1.0000
39.3100 430.0000 1.0000
39.3200 438.0000 1.0000
39.3300 472.0000 1.0000
39.3400 449.0000 1.0000
39.3500 489.0000 1.0000
39.3600 423.0000 1.0000
39.3700 458.0000 1.0000
39.3800 461.0000 1.0000
39.3900 454.0000 1.0000
39.4000 440.0000 1.0000
39.4100 415.0000 1.0000
39.4200 407.0000 1.0000
39.4300 424.0000 1.0000
39.4400 428.0000 1.0000
39.4500 412.0000 1.0000
39.4600 434.0000 1.0000
39.4700 449.0000 1.0000
39.4800 456.0000 1.0000
39.4900 466.0000 1.0000
39.5000 414.0000 1.0000
39.5100 429.0000 1.0000
39.5200 424.0000 1.0000
39.5300 437.0000 1.0000
39.5400 435.0000 1.0000
39.5500 451.0000 1.0000
39.5600 427.0000 1.0000
39.5700 414.0000 1.0000
39.5800 432.0000 1.0000
39.5900 420.0000 1.0000
39.6000 409.0000 1.0000
39.6100 423.0000 1.0000
39.6200 430.0000 1.0000
39.6300 444.0000 1.0000
39.6400 416.0000 1.0000
39.6500 404.0000 1.0000
39.6600 420.0000 1.0000
39.6700 447.0000 1.0000
39.6800 438.0000 1.0000
39.6900 435.0000 1.0000
39.7000 421.0000 1.0000
39.7100 410.0000 1.0000
39.7200 427.0000 1.0000
39.7300 429.0000 1.0000
39.7400 430.0000 1.0000
39.7500 423.0000 1.0000
39.7600 414.0000 1.0000
39.7700 440.0000 1.0000
39.7800 422.0000 1.0000
39.7900 441.0000 1.0000
39.8000 433.0000 1.0000
39.8100 421.0000 1.0000
39.8200 446.0000 1.0000
39.8300 414.0000 1.0000
39.8400 389.0000 1.0000
39.8500 396.0000 1.0000
39.8600 430.0000 1.0000
39.8700 395.0000 1.0000
39.8800 413.0000 1.0000
39.8900 457.0000 1.0000
39.9000 431.0000 1.0000
39.9100 425.0000 1.0000
39.9200 393.0000 1.0000
39.9300 423.0000 1.0000
39.9400 419.0000 1.0000
39.9500 418.0000 1.0000
39.9600 448.0000 1.0000
39.9700 439.0000 1.0000
39.9800 393.0000 1.0000
39.9900 370.0000 1.0000
40.0000 420.0000 1.0000
40.0100 420.0000 1.0000
40.0200 435.0000 1.0000
40.0300 418.0000 1.0000
40.0400 384.0000 1.0000
40.0500 411.0000 1.0000
40.0600 402.0000 1.0000
40.0700 410.0000 1.0000
40.0800 400.0000 1.0000
40.0900 408.0000 1.0000
40.1000 411.0000 1.0000
40.1100 415.0000 1.0000
40.1200 413.0000 1.0000
40.1300 421.0000 1.0000
40.1400 419.0000 1.0000
40.1500 420.0000 1.0000
40.1600 418.0000 1.0000
40.1700 409.0000 1.0000
40.1800 422.0000 1.0000
40.1900 419.0000 1.0000
40.2000 428.0000 1.0000
40.2100 423.0000 1.0000
40.2200 426.0000 1.0000
40.2300 423.0000 1.0000
40.2400 417.0000 1.0000
40.2500 438.0000 1.0000
40.2600 412.0000 1.0000
40.2700 395.0000 1.0000
40.2800 393.0000 1.0000
40.2900 440.0000 1.0000
40.3000 416.0000 1.0000
40.3100 432.0000 1.0000
40.3200 413.0000 1.0000
40.3300 435.0000 1.0000
40.3400 417.0000 1.0000
40.3500 392.0000 1.0000
40.3600 409.0000 1.0000
40.3700 390.0000 1.0000
40.3800 393.0000 1.0000
40.3900 408.0000 1.0000
40.4000 448.0000 1.0000
40.4100 405.0000 1.0000
40.4200 418.0000 1.0000
40.4300 389.0000 1.0000
40.4400 430.0000 1.0000
40.4500 443.0000 1.0000
40.4600 396.0000 1.0000
40.4700 406.0000 1.0000
40.4800 412.0000 1.0000
40.4900 400.0000 1.0000
40.5000 397.0000 1.0000
40.5100 378.0000 1.0000
40.5200 363.0000 1.0000
40.5300 446.0000 1.0000
40.5400 420.0000 1.0000
40.5500 444.0000 1.0000
40.5600 390.0000 1.0000
40.5700 399.0000 1.0000
40.5800 423.0000 1.0000
40.5900 422.0000 1.0000
40.6000 408.0000 1.0000
40.6100 401.0000 1.0000
40.6200 397.0000 1.0000
40.6300 420.0000 1.0000
40.6400 408.0000 1.0000
40.6500 400.0000 1.0000
40.6600 441.0000 1.0000
40.6700 426.0000 1.0000
40.6800 450.0000 1.0000
40.6900 406.0000 1.0000
40.7000 429.0000 1.0000
40.7100 450.0000 1.0000
40.7200 442.0000 1.0000
40.7300 423.0000 1.0000
40.7400 445.0000 1.0000
40.7500 444.0000 1.0000
40.7600 455.0000 1.0000
40.7700 393.0000 1.0000
40.7800 442.0000 1.0000
40.7900 418.0000 1.0000
40.8000 423.0000 1.0000
40.8100 398.0000 1.0000
40.8200 458.0000 1.0000
40.8300 452.0000 1.0000
40.8400 464.0000 1.0000
40.8500 428.0000 1.0000
40.8600 437.0000 1.0000
40.8700 439.0000 1.0000
40.8800 426.0000 1.0000
40.8900 414.0000 1.0000
40.9000 430.0000 1.0000
40.9100 439.0000 1.0000
40.9200 441.0000 1.0000
40.9300 425.0000 1.0000
40.9400 441.0000 1.0000
40.9500 435.0000 1.0000
40.9600 427.0000 1.0000
40.9700 437.0000 1.0000
40.9800 433.0000 1.0000
40.9900 404.0000 1.0000
41.0000 418.0000 1.0000
41.0100 408.0000 1.0000
41.0200 406.0000 1.0000
41.0300 421.0000 1.0000
41.0400 408.0000 1.0000
41.0500 395.0000 1.0000
41.0600 438.0000 1.0000
41.0700 412.0000 1.0000
41.0800 422.0000 1.0000
41.0900 428.0000 1.0000
41.1000 422.0000 1.0000
41.1100 378.0000 1.0000
41.1200 386.0000 1.0000
41.1300 415.0000 1.0000
41.1400 398.0000 1.0000
41.1500 416.0000 1.0000
41.1600 385.0000 1.0000
41.1700 385.0000 1.0000
41.1800 389.0000 1.0000
41.1900 409.0000 1.0000
41.2000 369.0000 1.0000
41.2100 430.0000 1.0000
41.2200 436.0000 1.0000
41.2300 429.0000 1.0000
41.2400 392.0000 1.0000
41.2500 382.0000 1.0000
41.2600 415.0000 1.0000
41.2700 389.0000 1.0000
41.2800 408.0000 1.0000
41.2900 426.0000 1.0000
41.3000 437.0000 1.0000
41.3100 442.0000 1.0000
41.3200 384.0000 1.0000
41.3300 413.0000 1.0000
41.3400 423.0000 1.0000
41.3500 406.0000 1.0000
41.3600 378.0000 1.0000
41.3700 385.0000 1.0000
41.3800 388.0000 1.0000
41.3900 430.0000 1.0000
41.4000 381.0000 1.0000
41.4100 408.0000 1.0000
41.4200 425.0000 1.0000
41.4300 408.0000 1.0000
41.4400 406.0000 1.0000
41.4500 404.0000 1.0000
41.4600 413.0000 1.0000
41.4700 383.0000 1.0000
41.4800 398.0000 1.0000
41.4900 421.0000 1.0000
41.5000 440.0000 1.0000
41.5100 406.0000 1.0000
41.5200 419.0000 1.0000
41.5300 392.0000 1.0000
41.5400 399.0000 1.0000
41.5500 365.0000 1.0000
41.5600 390.0000 1.0000
41.5700 384.0000 1.0000
41.5800 404.0000 1.0000
41.5900 437.0000 1.0000
41.6000 423.0000 1.0000
41.6100 432.0000 1.0000
41.6200 368.0000 1.0000
41.6300 394.0000 1.0000
41.6400 373.0000 1.0000
41.6500 386.0000 1.0000
41.6600 397.0000 1.0000
41.6700 386.0000 1.0000
41.6800 406.0000 1.0000
41.6900 394.0000 1.0000
41.7000 417.0000 1.0000
41.7100 389.0000 1.0000
41.7200 410.0000 1.0000
41.7300 429.0000 1.0000
41.7400 390.0000 1.0000
41.7500 395.0000 1.0000
41.7600 386.0000 1.0000
41.7700 392.0000 1.0000
41.7800 412.0000 1.0000
41.7900 407.0000 1.0000
41.8000 379.0000 1.0000
41.8100 396.0000 1.0000
41.8200 403.0000 1.0000
41.8300 366.0000 1.0000
41.8400 430.0000 1.0000
41.8500 403.0000 1.0000
41.8600 383.0000 1.0000
41.8700 406.0000 1.0000
41.8800 385.0000 1.0000
41.8900 405.0000 1.0000
41.9000 424.0000 1.0000
41.9100 421.0000 1.0000
41.9200 394.0000 1.0000
41.9300 390.0000 1.0000
41.9400 408.0000 1.0000
41.9500 415.0000 1.0000
41.9600 406.0000 1.0000
41.9700 370.0000 1.0000
41.9800 390.0000 1.0000
41.9900 407.0000 1.0000
42.0000 390.0000 1.0000
42.0100 392.0000 1.0000
42.0200 433.0000 1.0000
42.0300 387.0000 1.0000
42.0400 394.0000 1.0000
42.0500 415.0000 1.0000
42.0600 420.0000 1.0000
42.0700 435.0000 1.0000
42.0800 414.0000 1.0000
42.0900 403.0000 1.0000
42.1000 394.0000 1.0000
42.1100 387.0000 1.0000
42.1200 412.0000 1.0000
42.1300 421.0000 1.0000
42.1400 391.0000 1.0000
42.1500 377.0000 1.0000
42.1600 431.0000 1.0000
42.1700 370.0000 1.0000
42.1800 402.0000 1.0000
42.1900 409.0000 1.0000
42.2000 395.0000 1.0000
42.2100 412.0000 1.0000
42.2200 398.0000 1.0000
42.2300 392.0000 1.0000
42.2400 410.0000 1.0000
42.2500 408.0000 1.0000
42.2600 393.0000 1.0000
42.2700 413.0000 1.0000
42.2800 424.0000 1.0000
42.2900 410.0000 1.0000
42.3000 398.0000 1.0000
42.3100 434.0000 1.0000
42.3200 435.0000 1.0000
42.3300 447.0000 1.0000
42.3400 433.0000 1.0000
42.3500 468.0000 1.0000
42.3600 419.0000 1.0000
42.3700 413.0000 1.0000
42.3800 439.0000 1.0000
42.3900 450.0000 1.0000
42.4000 432.0000 1.0000
42.4100 418.0000 1.0000
42.4200 399.0000 1.0000
42.4300 457.0000 1.0000
42.4400 444.0000 1.0000
42.4500 464.0000 1.0000
42.4600 445.0000 1.0000
42.4700 458.0000 1.0000
42.4800 419.0000 1.0000
42.4900 462.0000 1.0000
42.5000 430.0000 1.0000
42.5100 430.0000 1.0000
42.5200 422.0000 1.0000
42.5300 420.0000 1.0000
42.5400 429.0000 1.0000
42.5500 406.0000 1.0000
42.5600 402.0000 1.0000
42.5700 391.0000 1.0000
42.5800 418.0000 1.0000
42.5900 412.0000 1.0000
42.6000 379.0000 1.0000
42.6100 418.0000 1.0000
42.6200 398.0000 1.0000
42.6300 423.0000 1.0000
42.6400 434.0000 1.0000
42.6500 427.0000 1.0000
42.6600 408.0000 1.0000
42.6700 405.0000 1.0000
42.6800 393.0000 1.0000
42.6900 364.0000 1.0000
42.7000 387.0000 1.0000
42.7100 417.0000 1.0000
42.7200 381.0000 1.0000
42.7300 388.0000 1.0000
42.7400 393.0000 1.0000
42.7500 404.0000 1.0000
42.7600 367.0000 1.0000
42.7700 395.0000 1.0000
42.7800 395.0000 1.0000
42.7900 421.0000 1.0000
42.8000 439.0000 1.0000
42.8100 412.0000 1.0000
42.8200 410.0000 1.0000
42.8300 409.0000 1.0000
42.8400 417.0000 1.0000
42.8500 411.0000 1.0000
42.8600 405.0000 1.0000
42.8700 404.0000 1.0000
42.8800 388.0000 1.0000
42.8900 409.0000 1.0000
42.9000 391.0000 1.0000
42.9100 403.0000 1.0000
42.9200 410.0000 1.0000
42.9300 397.0000 1.0000
42.9400 402.0000 1.0000
42.9500 372.0000 1.0000
42.9600 352.0000 1.0000
42.9700 374.0000 1.0000
42.9800 399.0000 1.0000
42.9900 395.0000 1.0000
43.0000 399.0000 1.0000
43.0100 401.0000 1.0000
43.0200 404.0000 1.0000
43.0300 387.0000 1.0000
43.0400 415.0000 1.0000
43.0500 386.0000 1.0000
43.0600 386.0000 1.0000
43.0700 383.0000 1.0000
43.0800 378.0000 1.0000
43.0900 374.0000 1.0000
43.1000 399.0000 1.0000
43.1100 420.0000 1.0000
43.1200 404.0000 1.0000
43.1300 393.0000 1.0000
43.1400 384.0000 1.0000
43.1500 409.0000 1.0000
43.1600 408.0000 1.0000
43.1700 377.0000 1.0000
43.1800 373.0000 1.0000
43.1900 367.0000 1.0000
43.2000 401.0000 1.0000
43.2100 360.0000 1.0000
43.2200 388.0000 1.0000
43.2300 385.0000 1.0000
43.2400 397.0000 1.0000
43.2500 380.0000 1.0000
43.2600 423.0000 1.0000
43.2700 376.0000 1.0000
43.2800 366.0000 1.0000
43.2900 392.0000 1.0000
43.3000 368.0000 1.0000
43.3100 421.0000 1.0000
43.3200 417.0000 1.0000
43.3300 376.0000 1.0000
43.3400 405.0000 1.0000
43.3500 408.0000 1.0000
43.3600 407.0000 1.0000
43.3700 401.0000 1.0000
43.3800 402.0000 1.0000
43.3900 408.0000 1.0000
43.4000 398.0000 1.0000
43.4100 406.0000 1.0000
43.4200 400.0000 1.0000
43.4300 397.0000 1.0000
43.4400 387.0000 1.0000
43.4500 418.0000 1.0000
43.4600 394.0000 1.0000
43.4700 375.0000 1.0000
43.4800 392.0000 1.0000
43.4900 414.0000 1.0000
43.5000 410.0000 1.0000
43.5100 377.0000 1.0000
43.5200 403.0000 1.0000
43.5300 404.0000 1.0000
43.5400 380.0000 1.0000
43.5500 382.0000 1.0000
43.5600 356.0000 1.0000
43.5700 361.0000 1.0000
43.5800 357.0000 1.0000
43.5900 373.0000 1.0000
43.6000 365.0000 1.0000
43.6100 383.0000 1.0000
43.6200 383.0000 1.0000
43.6300 362.0000 1.0000
43.6400 361.0000 1.0000
43.6500 406.0000 1.0000
43.6600 384.0000 1.0000
43.6700 406.0000 1.0000
43.6800 387.0000 1.0000
43.6900 362.0000 1.0000
43.7000 383.0000 1.0000
43.7100 381.0000 1.0000
43.7200 392.0000 1.0000
43.7300 362.0000 1.0000
43.7400 370.0000 1.0000
43.7500 379.0000 1.0000
43.7600 376.0000 1.0000
43.7700 382.0000 1.0000
43.7800 379.0000 1.0000
43.7900 389.0000 1.0000
43.8000 376.0000 1.0000
43.8100 355.0000 1.0000
43.8200 375.0000 1.0000
43.8300 390.0000 1.0000
43.8400 403.0000 1.0000
43.8500 374.0000 1.0000
43.8600 374.0000 1.0000
43.8700 372.0000 1.0000
43.8800 366.0000 1.0000
43.8900 376.0000 1.0000
43.9000 390.0000 1.0000
43.9100 395.0000 1.0000
43.9200 344.0000 1.0000
43.9300 383.0000 1.0000
43.9400 351.0000 1.0000
43.9500 394.0000 1.0000
43.9600 372.0000 1.0000
43.9700 417.0000 1.0000
43.9800 395.0000 1.0000
43.9900 390.0000 1.0000
44.0000 366.0000 1.0000
44.0100 371.0000 1.0000
44.0200 361.0000 1.0000
44.0300 366.0000 1.0000
44.0400 366.0000 1.0000
44.0500 349.0000 1.0000
44.0600 407.0000 1.0000
44.0700 380.0000 1.0000
44.0800 403.0000 1.0000
44.0900 384.0000 1.0000
44.1000 377.0000 1.0000
44.1100 381.0000 1.0000
44.1200 364.0000 1.0000
44.1300 347.0000 1.0000
44.1400 393.0000 1.0000
44.1500 363.0000 1.0000
44.1600 378.0000 1.0000
44.1700 364.0000 1.0000
44.1800 375.0000 1.0000
44.1900 399.0000 1.0000
44.2000 400.0000 1.0000
44.2100 365.0000 1.0000
44.2200 376.0000 1.0000
44.2300 352.0000 1.0000
44.2400 388.0000 1.0000
44.2500 373.0000 1.0000
44.2600 395.0000 1.0000
44.2700 363.0000 1.0000
44.2800 363.0000 1.0000
44.2900 369.0000 1.0000
44.3000 377.0000 1.0000
44.3100 380.0000 1.0000
44.3200 376.0000 1.0000
44.3300 368.0000 1.0000
44.3400 379.0000 1.0000
44.3500 378.0000 1.0000
44.3600 396.0000 1.0000
44.3700 374.0000 1.0000
44.3800 389.0000 1.0000
44.3900 369.0000 1.0000
44.4000 364.0000 1.0000
44.4100 391.0000 1.0000
44.4200 340.0000 1.0000
44.4300 331.0000 1.0000
44.4400 373.0000 1.0000
44.4500 412.0000 1.0000
44.4600 378.0000 1.0000
44.4700 394.0000 1.0000
44.4800 365.0000 1.0000
44.4900 391.0000 1.0000
44.5000 403.0000 1.0000
44.5100 368.0000 1.0000
44.5200 389.0000 1.0000
44.5300 387.0000 1.0000
44.5400 401.0000 1.0000
44.5500 357.0000 1.0000
44.5600 408.0000 1.0000
44.5700 367.0000 1.0000
44.5800 372.0000 1.0000
44.5900 390.0000 1.0000
44.6000 404.0000 1.0000
44.6100 372.0000 1.0000
44.6200 352.0000 1.0000
44.6300 360.0000 1.0000
44.6400 368.0000 1.0000
44.6500 366.0000 1.0000
44.6600 377.0000 1.0000
44.6700 371.0000 1.0000
44.6800 363.0000 1.0000
44.6900 376.0000 1.0000
44.7000 358.0000 1.0000
44.7100 373.0000 1.0000
44.7200 365.0000 1.0000
44.7300 364.0000 1.0000
44.7400 365.0000 1.0000
44.7500 374.0000 1.0000
44.7600 378.0000 1.0000
44.7700 370.0000 1.0000
44.7800 363.0000 1.0000
44.7900 404.0000 1.0000
44.8000 386.0000 1.0000
44.8100 375.0000 1.0000
44.8200 363.0000 1.0000
44.8300 383.0000 1.0000
44.8400 358.0000 1.0000
44.8500 387.0000 1.0000
44.8600 366.0000 1.0000
44.8700 360.0000 1.0000
44.8800 334.0000 1.0000
44.8900 347.0000 1.0000
44.9000 362.0000 1.0000
44.9100 374.0000 1.0000
44.9200 394.0000 1.0000
44.9300 401.0000 1.0000
44.9400 377.0000 1.0000
44.9500 353.0000 1.0000
44.9600 350.0000 1.0000
44.9700 356.0000 1.0000
44.9800 375.0000 1.0000
44.9900 363.0000 1.0000
45.0000 366.0000 1.0000
45.0100 368.0000 1.0000
45.0200 374.0000 1.0000
45.0300 383.0000 1.0000
45.0400 366.0000 1.0000
45.0500 379.0000 1.0000
45.0600 339.0000 1.0000
45.0700 367.0000 1.0000
45.0800 376.0000 1.0000
45.0900 335.0000 1.0000
45.1000 357.0000 1.0000
45.1100 399.0000 1.0000
45.1200 373.0000 1.0000
45.1300 380.0000 1.0000
45.1400 327.0000 1.0000
45.1500 399.0000 1.0000
45.1600 401.0000 1.0000
45.1700 371.0000 1.0000
45.1800 371.0000 1.0000
45.1900 365.0000 1.0000
45.2000 369.0000 1.0000
45.2100 374.0000 1.0000
45.2200 392.0000 1.0000
45.2300 351.0000 1.0000
45.2400 393.0000 1.0000
45.2500 376.0000 1.0000
45.2600 343.0000 1.0000
45.2700 363.0000 1.0000
45.2800 385.0000 1.0000
45.2900 393.0000 1.0000
45.3000 359.0000 1.0000
45.3100 340.0000 1.0000
45.3200 360.0000 1.0000
45.3300 389.0000 1.0000
45.3400 379.0000 1.0000
45.3500 391.0000 1.0000
45.3600 379.0000 1.0000
45.3700 370.0000 1.0000
45.3800 391.0000 1.0000
45.3900 353.0000 1.0000
45.4000 379.0000 1.0000
45.4100 386.0000 1.0000
45.4200 358.0000 1.0000
45.4300 336.0000 1.0000
45.4400 387.0000 1.0000
45.4500 360.0000 1.0000
45.4600 314.0000 1.0000
45.4700 358.0000 1.0000
45.4800 339.0000 1.0000
45.4900 388.0000 1.0000
45.5000 377.0000 1.0000
45.5100 365.0000 1.0000
45.5200 366.0000 1.0000
45.5300 367.0000 1.0000
45.5400 351.0000 1.0000
45.5500 388.0000 1.0000
45.5600 360.0000 1.0000
45.5700 355.0000 1.0000
45.5800 344.0000 1.0000
45.5900 359.0000 1.0000
45.6000 363.0000 1.0000
45.6100 349.0000 1.0000
45.6200 354.0000 1.0000
45.6300 355.0000 1.0000
45.6400 375.0000 1.0000
45.6500 390.0000 1.0000
45.6600 356.0000 1.0000
45.6700 401.0000 1.0000
45.6800 357.0000 1.0000
45.6900 374.0000 1.0000
45.7000 373.0000 1.0000
45.7100 394.0000 1.0000
45.7200 388.0000 1.0000
45.7300 359.0000 1.0000
45.7400 364.0000 1.0000
45.7500 384.0000 1.0000
45.7600 393.0000 1.0000
45.7700 367.0000 1.0000
45.7800 343.0000 1.0000
45.7900 346.0000 1.0000
45.8000 335.0000 1.0000
45.8100 335.0000 1.0000
45.8200 362.0000 1.0000
45.8300 369.0000 1.0000
45.8400 388.0000 1.0000
45.8500 366.0000 1.0000
45.8600 371.0000 1.0000
45.8700 346.0000 1.0000
45.8800 365.0000 1.0000
45.8900 364.0000 1.0000
45.9000 384.0000 1.0000
45.9100 389.0000 1.0000
45.9200 360.0000 1.0000
45.9300 405.0000 1.0000
45.9400 346.0000 1.0000
45.9500 339.0000 1.0000
45.9600 348.0000 1.0000
45.9700 343.0000 1.0000
45.9800 374.0000 1.0000
45.9900 354.0000 1.0000
46.0000 352.0000 1.0000
46.0100 389.0000 1.0000
46.0200 352.0000 1.0000
46.0300 362.0000 1.0000
46.0400 359.0000 1.0000
46.0500 380.0000 1.0000
46.0600 359.0000 1.0000
46.0700 369.0000 1.0000
46.0800 344.0000 1.0000
46.0900 334.0000 1.0000
46.1000 339.0000 1.0000
46.1100 353.0000 1.0000
46.1200 365.0000 1.0000
46.1300 388.0000 1.0000
46.1400 366.0000 1.0000
46.1500 349.0000 1.0000
46.1600 384.0000 1.0000
46.1700 351.0000 1.0000
46.1800 344.0000 1.0000
46.1900 367.0000 1.0000
46.2000 348.0000 1.0000
46.2100 372.0000 1.0000
46.2200 372.0000 1.0000
46.2300 406.0000 1.0000
46.2400 394.0000 1.0000
46.2500 377.0000 1.0000
46.2600 354.0000 1.0000
46.2700 360.0000 1.0000
46.2800 371.0000 1.0000
46.2900 332.0000 1.0000
46.3000 385.0000 1.0000
46.3100 378.0000 1.0000
46.3200 363.0000 1.0000
46.3300 349.0000 1.0000
46.3400 366.0000 1.0000
46.3500 359.0000 1.0000
46.3600 349.0000 1.0000
46.3700 349.0000 1.0000
46.3800 347.0000 1.0000
46.3900 380.0000 1.0000
46.4000 370.0000 1.0000
46.4100 377.0000 1.0000
46.4200 356.0000 1.0000
46.4300 375.0000 1.0000
46.4400 349.0000 1.0000
46.4500 371.0000 1.0000
46.4600 342.0000 1.0000
46.4700 354.0000 1.0000
46.4800 362.0000 1.0000
46.4900 322.0000 1.0000
46.5000 383.0000 1.0000
46.5100 380.0000 1.0000
46.5200 343.0000 1.0000
46.5300 347.0000 1.0000
46.5400 339.0000 1.0000
46.5500 334.0000 1.0000
46.5600 360.0000 1.0000
46.5700 364.0000 1.0000
46.5800 392.0000 1.0000
46.5900 359.0000 1.0000
46.6000 363.0000 1.0000
46.6100 356.0000 1.0000
46.6200 344.0000 1.0000
46.6300 362.0000 1.0000
46.6400 375.0000 1.0000
46.6500 360.0000 1.0000
46.6600 379.0000 1.0000
46.6700 378.0000 1.0000
46.6800 343.0000 1.0000
46.6900 373.0000 1.0000
46.7000 381.0000 1.0000
46.7100 348.0000 1.0000
46.7200 365.0000 1.0000
46.7300 352.0000 1.0000
46.7400 323.0000 1.0000
46.7500 365.0000 1.0000
46.7600 350.0000 1.0000
46.7700 371.0000 1.0000
46.7800 354.0000 1.0000
46.7900 364.0000 1.0000
46.8000 341.0000 1.0000
46.8100 345.0000 1.0000
46.8200 334.0000 1.0000
46.8300 362.0000 1.0000
46.8400 353.0000 1.0000
46.8500 333.0000 1.0000
46.8600 348.0000 1.0000
46.8700 382.0000 1.0000
46.8800 352.0000 1.0000
46.8900 353.0000 1.0000
46.9000 367.0000 1.0000
46.9100 400.0000 1.0000
46.9200 375.0000 1.0000
46.9300 346.0000 1.0000
46.9400 399.0000 1.0000
46.9500 371.0000 1.0000
46.9600 353.0000 1.0000
46.9700 353.0000 1.0000
46.9800 343.0000 1.0000
46.9900 335.0000 1.0000
47.0000 359.0000 1.0000
47.0100 331.0000 1.0000
47.0200 301.0000 1.0000
47.0300 349.0000 1.0000
47.0400 336.0000 1.0000
47.0500 348.0000 1.0000
47.0600 375.0000 1.0000
47.0700 344.0000 1.0000
47.0800 358.0000 1.0000
47.0900 343.0000 1.0000
47.1000 368.0000 1.0000
47.1100 358.0000 1.0000
47.1200 346.0000 1.0000
47.1300 311.0000 1.0000
47.1400 305.0000 1.0000
47.1500 338.0000 1.0000
47.1600 356.0000 1.0000
47.1700 354.0000 1.0000
47.1800 350.0000 1.0000
47.1900 329.0000 1.0000
47.2000 380.0000 1.0000
47.2100 360.0000 1.0000
47.2200 360.0000 1.0000
47.2300 365.0000 1.0000
47.2400 320.0000 1.0000
47.2500 329.0000 1.0000
47.2600 359.0000 1.0000
47.2700 359.0000 1.0000
47.2800 362.0000 1.0000
47.2900 387.0000 1.0000
47.3000 366.0000 1.0000
47.3100 345.0000 1.0000
47.3200 333.0000 1.0000
47.3300 338.0000 1.0000
47.3400 335.0000 1.0000
47.3500 320.0000 1.0000
47.3600 352.0000 1.0000
47.3700 317.0000 1.0000
47.3800 345.0000 1.0000
47.3900 349.0000 1.0000
47.4000 350.0000 1.0000
47.4100 354.0000 1.0000
47.4200 334.0000 1.0000
47.4300 362.0000 1.0000
47.4400 354.0000 1.0000
47.4500 338.0000 1.0000
47.4600 361.0000 1.0000
47.4700 366.0000 1.0000
47.4800 338.0000 1.0000
47.4900 352.0000 1.0000
47.5000 338.0000 1.0000
47.5100 330.0000 1.0000
47.5200 351.0000 1.0000
47.5300 344.0000 1.0000
47.5400 345.0000 1.0000
47.5500 383.0000 1.0000
47.5600 322.0000 1.0000
47.5700 322.0000 1.0000
47.5800 318.0000 1.0000
47.5900 324.0000 1.0000
47.6000 338.0000 1.0000
47.6100 323.0000 1.0000
47.6200 349.0000 1.0000
47.6300 355.0000 1.0000
47.6400 335.0000 1.0000
47.6500 370.0000 1.0000
47.6600 353.0000 1.0000
47.6700 356.0000 1.0000
47.6800 372.0000 1.0000
47.6900 375.0000 1.0000
47.7000 344.0000 1.0000
47.7100 343.0000 1.0000
47.7200 345.0000 1.0000
47.7300 334.0000 1.0000
47.7400 353.0000 1.0000
47.7500 350.0000 1.0000
47.7600 329.0000 1.0000
47.7700 359.0000 1.0000
47.7800 327.0000 1.0000
47.7900 324.0000 1.0000
47.8000 339.0000 1.0000
47.8100 335.0000 1.0000
47.8200 343.0000 1.0000
47.8300 344.0000 1.0000
47.8400 364.0000 1.0000
47.8500 337.0000 1.0000
47.8600 316.0000 1.0000
47.8700 345.0000 1.0000
47.8800 340.0000 1.0000
47.8900 354.0000 1.0000
47.9000 334.0000 1.0000
47.9100 361.0000 1.0000
47.9200 364.0000 1.0000
47.9300 351.0000 1.0000
47.9400 321.0000 1.0000
47.9500 351.0000 1.0000
47.9600 338.0000 1.0000
47.9700 321.0000 1.0000
47.9800 339.0000 1.0000
47.9900 363.0000 1.0000
48.0000 322.0000 1.0000
48.0100 347.0000 1.0000
48.0200 328.0000 1.0000
48.0300 351.0000 1.0000
48.0400 333.0000 1.0000
48.0500 353.0000 1.0000
48.0600 369.0000 1.0000
48.0700 345.0000 1.0000
48.0800 323.0000 1.0000
48.0900 349.0000 1.0000
48.1000 323.0000 1.0000
48.1100 334.0000 1.0000
48.1200 325.0000 1.0000
48.1300 337.0000 1.0000
48.1400 323.0000 1.0000
48.1500 343.0000 1.0000
48.1600 346.0000 1.0000
48.1700 323.0000 1.0000
48.1800 351.0000 1.0000
48.1900 321.0000 1.0000
48.2000 334.0000 1.0000
48.2100 344.0000 1.0000
48.2200 307.0000 1.0000
48.2300 341.0000 1.0000
48.2400 357.0000 1.0000
48.2500 315.0000 1.0000
48.2600 328.0000 1.0000
48.2700 355.0000 1.0000
48.2800 332.0000 1.0000
48.2900 365.0000 1.0000
48.3000 360.0000 1.0000
48.3100 356.0000 1.0000
48.3200 365.0000 1.0000
48.3300 331.0000 1.0000
48.3400 351.0000 1.0000
48.3500 331.0000 1.0000
48.3600 346.0000 1.0000
48.3700 343.0000 1.0000
48.3800 348.0000 1.0000
48.3900 346.0000 1.0000
48.4000 334.0000 1.0000
48.4100 336.0000 1.0000
48.4200 349.0000 1.0000
48.4300 339.0000 1.0000
48.4400 342.0000 1.0000
48.4500 324.0000 1.0000
48.4600 332.0000 1.0000
48.4700 341.0000 1.0000
48.4800 349.0000 1.0000
48.4900 356.0000 1.0000
48.5000 338.0000 1.0000
48.5100 316.0000 1.0000
48.5200 331.0000 1.0000
48.5300 343.0000 1.0000
48.5400 364.0000 1.0000
48.5500 353.0000 1.0000
48.5600 324.0000 1.0000
48.5700 349.0000 1.0000
48.5800 304.0000 1.0000
48.5900 321.0000 1.0000
48.6000 334.0000 1.0000
48.6100 341.0000 1.0000
48.6200 322.0000 1.0000
48.6300 347.0000 1.0000
48.6400 370.0000 1.0000
48.6500 336.0000 1.0000
48.6600 337.0000 1.0000
48.6700 346.0000 1.0000
48.6800 353.0000 1.0000
48.6900 340.0000 1.0000
48.7000 306.0000 1.0000
48.7100 335.0000 1.0000
48.7200 345.0000 1.0000
48.7300 352.0000 1.0000
48.7400 359.0000 1.0000
48.7500 342.0000 1.0000
48.7600 352.0000 1.0000
48.7700 334.0000 1.0000
48.7800 314.0000 1.0000
48.7900 340.0000 1.0000
48.8000 348.0000 1.0000
48.8100 329.0000 1.0000
48.8200 349.0000 1.0000
48.8300 354.0000 1.0000
48.8400 345.0000 1.0000
48.8500 334.0000 1.0000
48.8600 337.0000 1.0000
48.8700 311.0000 1.0000
48.8800 317.0000 1.0000
48.8900 352.0000 1.0000
48.9000 322.0000 1.0000
48.9100 334.0000 1.0000
48.9200 321.0000 1.0000
48.9300 321.0000 1.0000
48.9400 325.0000 1.0000
48.9500 346.0000 1.0000
48.9600 337.0000 1.0000
48.9700 336.0000 1.0000
48.9800 357.0000 1.0000
48.9900 357.0000 1.0000
49.0000 334.0000 1.0000
49.0100 353.0000 1.0000
49.0200 345.0000 1.0000
49.0300 331.0000 1.0000
49.0400 356.0000 1.0000
49.0500 369.0000 1.0000
49.0600 327.0000 1.0000
49.0700 341.0000 1.0000
49.0800 317.0000 1.0000
49.0900 316.0000 1.0000
49.1000 365.0000 1.0000
49.1100 337.0000 1.0000
49.1200 355.0000 1.0000
49.1300 354.0000 1.0000
49.1400 302.0000 1.0000
49.1500 351.0000 1.0000
49.1600 365.0000 1.0000
49.1700 332.0000 1.0000
49.1800 347.0000 1.0000
49.1900 344.0000 1.0000
49.2000 341.0000 1.0000
49.2100 338.0000 1.0000
49.2200 337.0000 1.0000
49.2300 364.0000 1.0000
49.2400 333.0000 1.0000
49.2500 360.0000 1.0000
49.2600 347.0000 1.0000
49.2700 380.0000 1.0000
49.2800 337.0000 1.0000
49.2900 362.0000 1.0000
49.3000 318.0000 1.0000
49.3100 348.0000 1.0000
49.3200 403.0000 1.0000
49.3300 380.0000 1.0000
49.3400 330.0000 1.0000
49.3500 385.0000 1.0000
49.3600 360.0000 1.0000
49.3700 386.0000 1.0000
49.3800 392.0000 1.0000
49.3900 363.0000 1.0000
49.4000 366.0000 1.0000
49.4100 380.0000 1.0000
49.4200 358.0000 1.0000
49.4300 377.0000 1.0000
49.4400 398.0000 1.0000
49.4500 394.0000 1.0000
49.4600 403.0000 1.0000
49.4700 363.0000 1.0000
49.4800 364.0000 1.0000
49.4900 379.0000 1.0000
49.5000 391.0000 1.0000
49.5100 354.0000 1.0000
49.5200 378.0000 1.0000
49.5300 380.0000 1.0000
49.5400 356.0000 1.0000
49.5500 366.0000 1.0000
49.5600 352.0000 1.0000
49.5700 369.0000 1.0000
49.5800 387.0000 1.0000
49.5900 348.0000 1.0000
49.6000 341.0000 1.0000
49.6100 315.0000 1.0000
49.6200 340.0000 1.0000
49.6300 384.0000 1.0000
49.6400 354.0000 1.0000
49.6500 343.0000 1.0000
49.6600 353.0000 1.0000
49.6700 339.0000 1.0000
49.6800 342.0000 1.0000
49.6900 359.0000 1.0000
49.7000 328.0000 1.0000
49.7100 372.0000 1.0000
49.7200 351.0000 1.0000
49.7300 328.0000 1.0000
49.7400 352.0000 1.0000
49.7500 369.0000 1.0000
49.7600 347.0000 1.0000
49.7700 335.0000 1.0000
49.7800 353.0000 1.0000
49.7900 350.0000 1.0000
49.8000 358.0000 1.0000
49.8100 335.0000 1.0000
49.8200 342.0000 1.0000
49.8300 345.0000 1.0000
49.8400 334.0000 1.0000
49.8500 363.0000 1.0000
49.8600 340.0000 1.0000
49.8700 367.0000 1.0000
49.8800 311.0000 1.0000
49.8900 319.0000 1.0000
49.9000 354.0000 1.0000
49.9100 325.0000 1.0000
49.9200 341.0000 1.0000
49.9300 368.0000 1.0000
49.9400 340.0000 1.0000
49.9500 311.0000 1.0000
49.9600 346.0000 1.0000
49.9700 356.0000 1.0000
49.9800 337.0000 1.0000
49.9900 330.0000 1.0000
50.0000 352.0000 1.0000
50.0100 346.0000 1.0000
50.0200 336.0000 1.0000
50.0300 329.0000 1.0000
50.0400 352.0000 1.0000
50.0500 339.0000 1.0000
50.0600 338.0000 1.0000
50.0700 353.0000 1.0000
50.0800 385.0000 1.0000
50.0900 358.0000 1.0000
50.1000 336.0000 1.0000
50.1100 337.0000 1.0000
50.1200 363.0000 1.0000
50.1300 363.0000 1.0000
50.1400 318.0000 1.0000
50.1500 353.0000 1.0000
50.1600 353.0000 1.0000
50.1700 348.0000 1.0000
50.1800 341.0000 1.0000
50.1900 356.0000 1.0000
50.2000 335.0000 1.0000
50.2100 330.0000 1.0000
50.2200 349.0000 1.0000
50.2300 350.0000 1.0000
50.2400 348.0000 1.0000
50.2500 333.0000 1.0000
50.2600 329.0000 1.0000
50.2700 316.0000 1.0000
50.2800 345.0000 1.0000
50.2900 337.0000 1.0000
50.3000 331.0000 1.0000
50.3100 363.0000 1.0000
50.3200 345.0000 1.0000
50.3300 329.0000 1.0000
50.3400 346.0000 1.0000
50.3500 356.0000 1.0000
50.3600 357.0000 1.0000
50.3700 356.0000 1.0000
50.3800 344.0000 1.0000
50.3900 338.0000 1.0000
50.4000 326.0000 1.0000
50.4100 320.0000 1.0000
50.4200 346.0000 1.0000
50.4300 337.0000 1.0000
50.4400 360.0000 1.0000
50.4500 342.0000 1.0000
50.4600 371.0000 1.0000
50.4700 334.0000 1.0000
50.4800 362.0000 1.0000
50.4900 350.0000 1.0000
50.5000 359.0000 1.0000
50.5100 337.0000 1.0000
50.5200 353.0000 1.0000
50.5300 323.0000 1.0000
50.5400 366.0000 1.0000
50.5500 353.0000 1.0000
50.5600 362.0000 1.0000
50.5700 341.0000 1.0000
50.5800 367.0000 1.0000
50.5900 331.0000 1.0000
50.6000 353.0000 1.0000
50.6100 352.0000 1.0000
50.6200 330.0000 1.0000
50.6300 331.0000 1.0000
50.6400 350.0000 1.0000
50.6500 327.0000 1.0000
50.6600 327.0000 1.0000
50.6700 335.0000 1.0000
50.6800 351.0000 1.0000
50.6900 366.0000 1.0000
50.7000 373.0000 1.0000
50.7100 365.0000 1.0000
50.7200 362.0000 1.0000
50.7300 350.0000 1.0000
50.7400 338.0000 1.0000
50.7500 352.0000 1.0000
50.7600 361.0000 1.0000
50.7700 347.0000 1.0000
50.7800 324.0000 1.0000
50.7900 341.0000 1.0000
50.8000 337.0000 1.0000
50.8100 355.0000 1.0000
50.8200 352.0000 1.0000
50.8300 367.0000 1.0000
50.8400 341.0000 1.0000
50.8500 328.0000 1.0000
50.8600 351.0000 1.0000
50.8700 365.0000 1.0000
50.8800 392.0000 1.0000
50.8900 361.0000 1.0000
50.9000 382.0000 1.0000
50.9100 386.0000 1.0000
50.9200 370.0000 1.0000
50.9300 375.0000 1.0000
50.9400 348.0000 1.0000
50.9500 406.0000 1.0000
50.9600 372.0000 1.0000
50.9700 362.0000 1.0000
50.9800 382.0000 1.0000
50.9900 394.0000 1.0000
51.0000 382.0000 1.0000
51.0100 368.0000 1.0000
51.0200 395.0000 1.0000
51.0300 370.0000 1.0000
51.0400 350.0000 1.0000
51.0500 415.0000 1.0000
51.0600 390.0000 1.0000
51.0700 394.0000 1.0000
51.0800 387.0000 1.0000
51.0900 407.0000 1.0000
51.1000 426.0000 1.0000
51.1100 439.0000 1.0000
51.1200 417.0000 1.0000
51.1300 445.0000 1.0000
51.1400 446.0000 1.0000
51.1500 429.0000 1.0000
51.1600 460.0000 1.0000
51.1700 508.0000 1.0000
51.1800 478.0000 1.0000
51.1900 497.0000 1.0000
51.2000 507.0000 1.0000
51.2100 511.0000 1.0000
51.2200 515.0000 1.0000
51.2300 541.0000 1.0000
51.2400 572.0000 1.0000
51.2500 589.0000 1.0000
51.2600 600.0000 1.0000
51.2700 598.0000 1.0000
51.2800 610.0000 1.0000
51.2900 672.0000 1.0000
51.3000 703.0000 1.0000
51.3100 739.0000 1.0000
51.3200 756.0000 1.0000
51.3300 814.0000 1.0000
51.3400 917.0000 1.0000
51.3500 978.0000 1.0000
51.3600 1050.0000 1.0000
51.3700 1079.0000 1.0000
51.3800 1219.0000 1.0000
51.3900 1330.0000 1.0000
51.4000 1425.0000 1.0000
51.4100 1551.0000 1.0000
51.4200 1624.0000 1.0000
51.4300 1794.0000 1.0000
51.4400 1834.0000 1.0000
51.4500 2018.0000 1.0000
51.4600 2124.0000 1.0000
51.4700 2112.0000 1.0000
51.4800 2188.0000 1.0000
51.4900 2266.0000 1.0000
51.5000 2246.0000 1.0000
51.5100 2341.0000 1.0000
51.5200 2288.0000 1.0000
51.5300 2222.0000 1.0000
51.5400 2249.0000 1.0000
51.5500 2081.0000 1.0000
51.5600 2069.0000 1.0000
51.5700 1931.0000 1.0000
51.5800 1896.0000 1.0000
51.5900 1818.0000 1.0000
51.6000 1780.0000 1.0000
51.6100 1721.0000 1.0000
51.6200 1757.0000 1.0000
51.6300 1730.0000 1.0000
51.6400 1650.0000 1.0000
51.6500 1552.0000 1.0000
51.6600 1457.0000 1.0000
51.6700 1338.0000 1.0000
51.6800 1247.0000 1.0000
51.6900 1214.0000 1.0000
51.7000 1074.0000 1.0000
51.7100 1043.0000 1.0000
51.7200 953.0000 1.0000
51.7300 841.0000 1.0000
51.7400 809.0000 1.0000
51.7500 769.0000 1.0000
51.7600 748.0000 1.0000
51.7700 718.0000 1.0000
51.7800 712.0000 1.0000
51.7900 610.0000 1.0000
51.8000 593.0000 1.0000
51.8100 595.0000 1.0000
51.8200 625.0000 1.0000
51.8300 607.0000 1.0000
51.8400 517.0000 1.0000
51.8500 537.0000 1.0000
51.8600 504.0000 1.0000
51.8700 472.0000 1.0000
51.8800 474.0000 1.0000
51.8900 472.0000 1.0000
51.9000 452.0000 1.0000
51.9100 431.0000 1.0000
51.9200 446.0000 1.0000
51.9300 462.0000 1.0000
51.9400 441.0000 1.0000
51.9500 415.0000 1.0000
51.9600 408.0000 1.0000
51.9700 413.0000 1.0000
51.9800 456.0000 1.0000
51.9900 396.0000 1.0000
52.0000 430.0000 1.0000
52.0100 453.0000 1.0000
52.0200 397.0000 1.0000
52.0300 419.0000 1.0000
52.0400 386.0000 1.0000
52.0500 357.0000 1.0000
52.0600 391.0000 1.0000
52.0700 386.0000 1.0000
52.0800 355.0000 1.0000
52.0900 368.0000 1.0000
52.1000 370.0000 1.0000
52.1100 343.0000 1.0000
52.1200 381.0000 1.0000
52.1300 358.0000 1.0000
52.1400 405.0000 1.0000
52.1500 379.0000 1.0000
52.1600 343.0000 1.0000
52.1700 382.0000 1.0000
52.1800 348.0000 1.0000
52.1900 374.0000 1.0000
52.2000 357.0000 1.0000
52.2100 365.0000 1.0000
52.2200 371.0000 1.0000
52.2300 338.0000 1.0000
52.2400 340.0000 1.0000
52.2500 344.0000 1.0000
52.2600 335.0000 1.0000
52.2700 344.0000 1.0000
52.2800 356.0000 1.0000
52.2900 383.0000 1.0000
52.3000 376.0000 1.0000
52.3100 375.0000 1.0000
52.3200 366.0000 1.0000
52.3300 366.0000 1.0000
52.3400 357.0000 1.0000
52.3500 368.0000 1.0000
52.3600 379.0000 1.0000
52.3700 339.0000 1.0000
52.3800 342.0000 1.0000
52.3900 321.0000 1.0000
52.4000 342.0000 1.0000
52.4100 349.0000 1.0000
52.4200 340.0000 1.0000
52.4300 342.0000 1.0000
52.4400 353.0000 1.0000
52.4500 333.0000 1.0000
52.4600 350.0000 1.0000
52.4700 330.0000 1.0000
52.4800 334.0000 1.0000
52.4900 363.0000 1.0000
52.5000 347.0000 1.0000
52.5100 358.0000 1.0000
52.5200 348.0000 1.0000
52.5300 336.0000 1.0000
52.5400 349.0000 1.0000
52.5500 337.0000 1.0000
52.5600 325.0000 1.0000
52.5700 316.0000 1.0000
52.5800 343.0000 1.0000
52.5900 324.0000 1.0000
52.6000 333.0000 1.0000
52.6100 326.0000 1.0000
52.6200 337.0000 1.0000
52.6300 336.0000 1.0000
52.6400 311.0000 1.0000
52.6500 329.0000 1.0000
52.6600 331.0000 1.0000
52.6700 336.0000 1.0000
52.6800 326.0000 1.0000
52.6900 337.0000 1.0000
52.7000 323.0000 1.0000
52.7100 301.0000 1.0000
52.7200 322.0000 1.0000
52.7300 340.0000 1.0000
52.7400 336.0000 1.0000
52.7500 322.0000 1.0000
52.7600 334.0000 1.0000
52.7700 333.0000 1.0000
52.7800 340.0000 1.0000
52.7900 312.0000 1.0000
52.8000 314.0000 1.0000
52.8100 318.0000 1.0000
52.8200 317.0000 1.0000
52.8300 327.0000 1.0000
52.8400 336.0000 1.0000
52.8500 352.0000 1.0000
52.8600 305.0000 1.0000
52.8700 314.0000 1.0000
52.8800 335.0000 1.0000
52.8900 325.0000 1.0000
52.9000 335.0000 1.0000
52.9100 291.0000 1.0000
52.9200 312.0000 1.0000
52.9300 321.0000 1.0000
52.9400 325.0000 1.0000
52.9500 335.0000 1.0000
52.9600 321.0000 1.0000
52.9700 317.0000 1.0000
52.9800 332.0000 1.0000
52.9900 334.0000 1.0000
53.0000 349.0000 1.0000
53.0100 340.0000 1.0000
53.0200 305.0000 1.0000
53.0300 338.0000 1.0000
53.0400 321.0000 1.0000
53.0500 298.0000 1.0000
53.0600 330.0000 1.0000
53.0700 326.0000 1.0000
53.0800 342.0000 1.0000
53.0900 298.0000 1.0000
53.1000 346.0000 1.0000
53.1100 354.0000 1.0000
53.1200 328.0000 1.0000
53.1300 344.0000 1.0000
53.1400 319.0000 1.0000
53.1500 349.0000 1.0000
53.1600 323.0000 1.0000
53.1700 329.0000 1.0000
53.1800 302.0000 1.0000
53.1900 319.0000 1.0000
53.2000 353.0000 1.0000
53.2100 366.0000 1.0000
53.2200 326.0000 1.0000
53.2300 335.0000 1.0000
53.2400 332.0000 1.0000
53.2500 341.0000 1.0000
53.2600 335.0000 1.0000
53.2700 332.0000 1.0000
53.2800 309.0000 1.0000
53.2900 315.0000 1.0000
53.3000 296.0000 1.0000
53.3100 298.0000 1.0000
53.3200 328.0000 1.0000
53.3300 309.0000 1.0000
53.3400 335.0000 1.0000
53.3500 323.0000 1.0000
53.3600 363.0000 1.0000
53.3700 343.0000 1.0000
53.3800 323.0000 1.0000
53.3900 338.0000 1.0000
53.4000 336.0000 1.0000
53.4100 325.0000 1.0000
53.4200 334.0000 1.0000
53.4300 352.0000 1.0000
53.4400 327.0000 1.0000
53.4500 288.0000 1.0000
53.4600 324.0000 1.0000
53.4700 320.0000 1.0000
53.4800 311.0000 1.0000
53.4900 324.0000 1.0000
53.5000 335.0000 1.0000
53.5100 349.0000 1.0000
53.5200 349.0000 1.0000
53.5300 332.0000 1.0000
53.5400 338.0000 1.0000
53.5500 311.0000 1.0000
53.5600 306.0000 1.0000
53.5700 328.0000 1.0000
53.5800 346.0000 1.0000
53.5900 325.0000 1.0000
53.6000 319.0000 1.0000
53.6100 330.0000 1.0000
53.6200 342.0000 1.0000
53.6300 333.0000 1.0000
53.6400 328.0000 1.0000
53.6500 348.0000 1.0000
53.6600 312.0000 1.0000
53.6700 336.0000 1.0000
53.6800 344.0000 1.0000
53.6900 337.0000 1.0000
53.7000 324.0000 1.0000
53.7100 358.0000 1.0000
53.7200 359.0000 1.0000
53.7300 357.0000 1.0000
53.7400 326.0000 1.0000
53.7500 306.0000 1.0000
53.7600 332.0000 1.0000
53.7700 309.0000 1.0000
53.7800 355.0000 1.0000
53.7900 355.0000 1.0000
53.8000 324.0000 1.0000
53.8100 364.0000 1.0000
53.8200 331.0000 1.0000
53.8300 347.0000 1.0000
53.8400 345.0000 1.0000
53.8500 331.0000 1.0000
53.8600 340.0000 1.0000
53.8700 338.0000 1.0000
53.8800 351.0000 1.0000
53.8900 330.0000 1.0000
53.9000 378.0000 1.0000
53.9100 358.0000 1.0000
53.9200 377.0000 1.0000
53.9300 361.0000 1.0000
53.9400 384.0000 1.0000
53.9500 368.0000 1.0000
53.9600 346.0000 1.0000
53.9700 349.0000 1.0000
53.9800 365.0000 1.0000
53.9900 357.0000 1.0000
54.0000 360.0000 1.0000
54.0100 372.0000 1.0000
54.0200 380.0000 1.0000
54.0300 379.0000 1.0000
54.0400 346.0000 1.0000
54.0500 371.0000 1.0000
54.0600 348.0000 1.0000
54.0700 364.0000 1.0000
54.0800 347.0000 1.0000
54.0900 365.0000 1.0000
54.1000 356.0000 1.0000
54.1100 357.0000 1.0000
54.1200 348.0000 1.0000
54.1300 367.0000 1.0000
54.1400 358.0000 1.0000
54.1500 372.0000 1.0000
54.1600 355.0000 1.0000
54.1700 372.0000 1.0000
54.1800 369.0000 1.0000
54.1900 382.0000 1.0000
54.2000 339.0000 1.0000
54.2100 373.0000 1.0000
54.2200 361.0000 1.0000
54.2300 339.0000 1.0000
54.2400 371.0000 1.0000
54.2500 353.0000 1.0000
54.2600 360.0000 1.0000
54.2700 365.0000 1.0000
54.2800 369.0000 1.0000
54.2900 379.0000 1.0000
54.3000 373.0000 1.0000
54.3100 368.0000 1.0000
54.3200 397.0000 1.0000
54.3300 385.0000 1.0000
54.3400 406.0000 1.0000
54.3500 391.0000 1.0000
54.3600 378.0000 1.0000
54.3700 379.0000 1.0000
54.3800 391.0000 1.0000
54.3900 385.0000 1.0000
54.4000 367.0000 1.0000
54.4100 410.0000 1.0000
54.4200 403.0000 1.0000
54.4300 445.0000 1.0000
54.4400 472.0000 1.0000
54.4500 457.0000 1.0000
54.4600 483.0000 1.0000
54.4700 480.0000 1.0000
54.4800 469.0000 1.0000
54.4900 492.0000 1.0000
54.5000 495.0000 1.0000
54.5100 521.0000 1.0000
54.5200 480.0000 1.0000
54.5300 486.0000 1.0000
54.5400 475.0000 1.0000
54.5500 496.0000 1.0000
54.5600 447.0000 1.0000
54.5700 473.0000 1.0000
54.5800 510.0000 1.0000
54.5900 505.0000 1.0000
54.6000 478.0000 1.0000
54.6100 454.0000 1.0000
54.6200 433.0000 1.0000
54.6300 463.0000 1.0000
54.6400 436.0000 1.0000
54.6500 443.0000 1.0000
54.6600 428.0000 1.0000
54.6700 444.0000 1.0000
54.6800 450.0000 1.0000
54.6900 435.0000 1.0000
54.7000 420.0000 1.0000
54.7100 437.0000 1.0000
54.7200 423.0000 1.0000
54.7300 407.0000 1.0000
54.7400 404.0000 1.0000
54.7500 384.0000 1.0000
54.7600 393.0000 1.0000
54.7700 404.0000 1.0000
54.7800 359.0000 1.0000
54.7900 365.0000 1.0000
54.8000 379.0000 1.0000
54.8100 354.0000 1.0000
54.8200 382.0000 1.0000
54.8300 370.0000 1.0000
54.8400 395.0000 1.0000
54.8500 378.0000 1.0000
54.8600 355.0000 1.0000
54.8700 365.0000 1.0000
54.8800 336.0000 1.0000
54.8900 352.0000 1.0000
54.9000 334.0000 1.0000
54.9100 332.0000 1.0000
54.9200 346.0000 1.0000
54.9300 345.0000 1.0000
54.9400 363.0000 1.0000
54.9500 368.0000 1.0000
54.9600 354.0000 1.0000
54.9700 325.0000 1.0000
54.9800 336.0000 1.0000
54.9900 348.0000 1.0000
55.0000 326.0000 1.0000
55.0100 348.0000 1.0000
55.0200 348.0000 1.0000
55.0300 331.0000 1.0000
55.0400 318.0000 1.0000
55.0500 309.0000 1.0000
55.0600 342.0000 1.0000
55.0700 319.0000 1.0000
55.0800 328.0000 1.0000
55.0900 341.0000 1.0000
55.1000 321.0000 1.0000
55.1100 326.0000 1.0000
55.1200 316.0000 1.0000
55.1300 341.0000 1.0000
55.1400 351.0000 1.0000
55.1500 331.0000 1.0000
55.1600 304.0000 1.0000
55.1700 328.0000 1.0000
55.1800 301.0000 1.0000
55.1900 312.0000 1.0000
55.2000 335.0000 1.0000
55.2100 338.0000 1.0000
55.2200 343.0000 1.0000
55.2300 327.0000 1.0000
55.2400 332.0000 1.0000
55.2500 338.0000 1.0000
55.2600 310.0000 1.0000
55.2700 318.0000 1.0000
55.2800 304.0000 1.0000
55.2900 295.0000 1.0000
55.3000 305.0000 1.0000
55.3100 321.0000 1.0000
55.3200 299.0000 1.0000
55.3300 322.0000 1.0000
55.3400 338.0000 1.0000
55.3500 344.0000 1.0000
55.3600 333.0000 1.0000
55.3700 334.0000 1.0000
55.3800 327.0000 1.0000
55.3900 311.0000 1.0000
55.4000 331.0000 1.0000
55.4100 319.0000 1.0000
55.4200 330.0000 1.0000
55.4300 333.0000 1.0000
55.4400 340.0000 1.0000
55.4500 329.0000 1.0000
55.4600 325.0000 1.0000
55.4700 312.0000 1.0000
55.4800 330.0000 1.0000
55.4900 318.0000 1.0000
55.5000 322.0000 1.0000
55.5100 307.0000 1.0000
55.5200 314.0000 1.0000
55.5300 333.0000 1.0000
55.5400 323.0000 1.0000
55.5500 341.0000 1.0000
55.5600 326.0000 1.0000
55.5700 322.0000 1.0000
55.5800 331.0000 1.0000
55.5900 318.0000 1.0000
55.6000 314.0000 1.0000
55.6100 339.0000 1.0000
55.6200 313.0000 1.0000
55.6300 317.0000 1.0000
55.6400 322.0000 1.0000
55.6500 306.0000 1.0000
55.6600 300.0000 1.0000
55.6700 316.0000 1.0000
55.6800 321.0000 1.0000
55.6900 311.0000 1.0000
55.7000 307.0000 1.0000
55.7100 323.0000 1.0000
55.7200 332.0000 1.0000
55.7300 304.0000 1.0000
55.7400 322.0000 1.0000
55.7500 329.0000 1.0000
55.7600 303.0000 1.0000
55.7700 286.0000 1.0000
55.7800 310.0000 1.0000
55.7900 329.0000 1.0000
55.8000 312.0000 1.0000
55.8100 309.0000 1.0000
55.8200 320.0000 1.0000
55.8300 336.0000 1.0000
55.8400 304.0000 1.0000
55.8500 328.0000 1.0000
55.8600 279.0000 1.0000
55.8700 316.0000 1.0000
55.8800 299.0000 1.0000
55.8900 310.0000 1.0000
55.9000 302.0000 1.0000
55.9100 307.0000 1.0000
55.9200 310.0000 1.0000
55.9300 333.0000 1.0000
55.9400 295.0000 1.0000
55.9500 284.0000 1.0000
55.9600 338.0000 1.0000
55.9700 314.0000 1.0000
55.9800 324.0000 1.0000
55.9900 303.0000 1.0000
56.0000 296.0000 1.0000
56.0100 297.0000 1.0000
56.0200 342.0000 1.0000
56.0300 317.0000 1.0000
56.0400 314.0000 1.0000
56.0500 319.0000 1.0000
56.0600 338.0000 1.0000
56.0700 334.0000 1.0000
56.0800 324.0000 1.0000
56.0900 314.0000 1.0000
56.1000 326.0000 1.0000
56.1100 316.0000 1.0000
56.1200 305.0000 1.0000
56.1300 290.0000 1.0000
56.1400 330.0000 1.0000
56.1500 294.0000 1.0000
56.1600 304.0000 1.0000
56.1700 325.0000 1.0000
56.1800 316.0000 1.0000
56.1900 307.0000 1.0000
56.2000 319.0000 1.0000
56.2100 300.0000 1.0000
56.2200 299.0000 1.0000
56.2300 291.0000 1.0000
56.2400 316.0000 1.0000
56.2500 338.0000 1.0000
56.2600 293.0000 1.0000
56.2700 327.0000 1.0000
56.2800 321.0000 1.0000
56.2900 311.0000 1.0000
56.3000 325.0000 1.0000
56.3100 333.0000 1.0000
56.3200 342.0000 1.0000
56.3300 304.0000 1.0000
56.3400 324.0000 1.0000
56.3500 306.0000 1.0000
56.3600 322.0000 1.0000
56.3700 291.0000 1.0000
56.3800 323.0000 1.0000
56.3900 305.0000 1.0000
56.4000 341.0000 1.0000
56.4100 313.0000 1.0000
56.4200 318.0000 1.0000
56.4300 330.0000 1.0000
56.4400 318.0000 1.0000
56.4500 338.0000 1.0000
56.4600 327.0000 1.0000
56.4700 303.0000 1.0000
56.4800 316.0000 1.0000
56.4900 321.0000 1.0000
56.5000 328.0000 1.0000
56.5100 308.0000 1.0000
56.5200 335.0000 1.0000
56.5300 321.0000 1.0000
56.5400 317.0000 1.0000
56.5500 281.0000 1.0000
56.5600 322.0000 1.0000
56.5700 286.0000 1.0000
56.5800 299.0000 1.0000
56.5900 313.0000 1.0000
56.6000 305.0000 1.0000
56.6100 311.0000 1.0000
56.6200 292.0000 1.0000
56.6300 285.0000 1.0000
56.6400 311.0000 1.0000
56.6500 324.0000 1.0000
56.6600 310.0000 1.0000
56.6700 318.0000 1.0000
56.6800 306.0000 1.0000
56.6900 296.0000 1.0000
56.7000 290.0000 1.0000
56.7100 312.0000 1.0000
56.7200 299.0000 1.0000
56.7300 301.0000 1.0000
56.7400 302.0000 1.0000
56.7500 332.0000 1.0000
56.7600 331.0000 1.0000
56.7700 318.0000 1.0000
56.7800 326.0000 1.0000
56.7900 292.0000 1.0000
56.8000 303.0000 1.0000
56.8100 302.0000 1.0000
56.8200 318.0000 1.0000
56.8300 300.0000 1.0000
56.8400 293.0000 1.0000
56.8500 302.0000 1.0000
56.8600 320.0000 1.0000
56.8700 298.0000 1.0000
56.8800 320.0000 1.0000
56.8900 299.0000 1.0000
56.9000 330.0000 1.0000
56.9100 350.0000 1.0000
56.9200 330.0000 1.0000
56.9300 344.0000 1.0000
56.9400 339.0000 1.0000
56.9500 310.0000 1.0000
56.9600 339.0000 1.0000
56.9700 305.0000 1.0000
56.9800 290.0000 1.0000
56.9900 316.0000 1.0000
57.0000 300.0000 1.0000
57.0100 343.0000 1.0000
57.0200 340.0000 1.0000
57.0300 303.0000 1.0000
57.0400 327.0000 1.0000
57.0500 316.0000 1.0000
57.0600 310.0000 1.0000
57.0700 319.0000 1.0000
57.0800 286.0000 1.0000
57.0900 306.0000 1.0000
57.1000 337.0000 1.0000
57.1100 295.0000 1.0000
57.1200 318.0000 1.0000
57.1300 342.0000 1.0000
57.1400 315.0000 1.0000
57.1500 303.0000 1.0000
57.1600 338.0000 1.0000
57.1700 319.0000 1.0000
57.1800 305.0000 1.0000
57.1900 274.0000 1.0000
57.2000 330.0000 1.0000
57.2100 334.0000 1.0000
57.2200 324.0000 1.0000
57.2300 321.0000 1.0000
57.2400 330.0000 1.0000
57.2500 311.0000 1.0000
57.2600 316.0000 1.0000
57.2700 319.0000 1.0000
57.2800 304.0000 1.0000
57.2900 326.0000 1.0000
57.3000 296.0000 1.0000
57.3100 312.0000 1.0000
57.3200 296.0000 1.0000
57.3300 333.0000 1.0000
57.3400 316.0000 1.0000
57.3500 323.0000 1.0000
57.3600 326.0000 1.0000
57.3700 324.0000 1.0000
57.3800 292.0000 1.0000
57.3900 345.0000 1.0000
57.4000 330.0000 1.0000
57.4100 316.0000 1.0000
57.4200 374.0000 1.0000
57.4300 352.0000 1.0000
57.4400 322.0000 1.0000
57.4500 332.0000 1.0000
57.4600 324.0000 1.0000
57.4700 348.0000 1.0000
57.4800 322.0000 1.0000
57.4900 358.0000 1.0000
57.5000 342.0000 1.0000
57.5100 336.0000 1.0000
57.5200 297.0000 1.0000
57.5300 323.0000 1.0000
57.5400 311.0000 1.0000
57.5500 330.0000 1.0000
57.5600 317.0000 1.0000
57.5700 308.0000 1.0000
57.5800 317.0000 1.0000
57.5900 329.0000 1.0000
57.6000 324.0000 1.0000
57.6100 288.0000 1.0000
57.6200 319.0000 1.0000
57.6300 305.0000 1.0000
57.6400 320.0000 1.0000
57.6500 302.0000 1.0000
57.6600 313.0000 1.0000
57.6700 292.0000 1.0000
57.6800 330.0000 1.0000
57.6900 341.0000 1.0000
57.7000 331.0000 1.0000
57.7100 321.0000 1.0000
57.7200 289.0000 1.0000
57.7300 314.0000 1.0000
57.7400 320.0000 1.0000
57.7500 320.0000 1.0000
57.7600 327.0000 1.0000
57.7700 306.0000 1.0000
57.7800 292.0000 1.0000
57.7900 309.0000 1.0000
57.8000 317.0000 1.0000
57.8100 322.0000 1.0000
57.8200 309.0000 1.0000
57.8300 320.0000 1.0000
57.8400 335.0000 1.0000
57.8500 332.0000 1.0000
57.8600 320.0000 1.0000
57.8700 301.0000 1.0000
57.8800 335.0000 1.0000
57.8900 307.0000 1.0000
57.9000 333.0000 1.0000
57.9100 303.0000 1.0000
57.9200 289.0000 1.0000
57.9300 302.0000 1.0000
57.9400 321.0000 1.0000
57.9500 273.0000 1.0000
57.9600 331.0000 1.0000
57.9700 315.0000 1.0000
57.9800 303.0000 1.0000
57.9900 319.0000 1.0000
58.0000 305.0000 1.0000
58.0100 288.0000 1.0000
58.0200 297.0000 1.0000
58.0300 295.0000 1.0000
58.0400 292.0000 1.0000
58.0500 330.0000 1.0000
58.0600 290.0000 1.0000
58.0700 307.0000 1.0000
58.0800 322.0000 1.0000
58.0900 308.0000 1.0000
58.1000 310.0000 1.0000
58.1100 284.0000 1.0000
58.1200 315.0000 1.0000
58.1300 337.0000 1.0000
58.1400 308.0000 1.0000
58.1500 306.0000 1.0000
58.1600 313.0000 1.0000
58.1700 312.0000 1.0000
58.1800 320.0000 1.0000
58.1900 316.0000 1.0000
58.2000 331.0000 1.0000
58.2100 313.0000 1.0000
58.2200 297.0000 1.0000
58.2300 310.0000 1.0000
58.2400 310.0000 1.0000
58.2500 326.0000 1.0000
58.2600 296.0000 1.0000
58.2700 338.0000 1.0000
58.2800 291.0000 1.0000
58.2900 293.0000 1.0000
58.3000 314.0000 1.0000
58.3100 304.0000 1.0000
58.3200 297.0000 1.0000
58.3300 308.0000 1.0000
58.3400 318.0000 1.0000
58.3500 322.0000 1.0000
58.3600 310.0000 1.0000
58.3700 304.0000 1.0000
58.3800 315.0000 1.0000
58.3900 314.0000 1.0000
58.4000 310.0000 1.0000
58.4100 293.0000 1.0000
58.4200 296.0000 1.0000
58.4300 287.0000 1.0000
58.4400 354.0000 1.0000
58.4500 314.0000 1.0000
58.4600 318.0000 1.0000
58.4700 302.0000 1.0000
58.4800 285.0000 1.0000
58.4900 288.0000 1.0000
58.5000 316.0000 1.0000
58.5100 306.0000 1.0000
58.5200 333.0000 1.0000
58.5300 299.0000 1.0000
58.5400 333.0000 1.0000
58.5500 280.0000 1.0000
58.5600 294.0000 1.0000
58.5700 352.0000 1.0000
58.5800 334.0000 1.0000
58.5900 312.0000 1.0000
58.6000 286.0000 1.0000
58.6100 297.0000 1.0000
58.6200 329.0000 1.0000
58.6300 289.0000 1.0000
58.6400 310.0000 1.0000
58.6500 326.0000 1.0000
58.6600 316.0000 1.0000
58.6700 307.0000 1.0000
58.6800 310.0000 1.0000
58.6900 320.0000 1.0000
58.7000 319.0000 1.0000
58.7100 295.0000 1.0000
58.7200 282.0000 1.0000
58.7300 320.0000 1.0000
58.7400 297.0000 1.0000
58.7500 304.0000 1.0000
58.7600 335.0000 1.0000
58.7700 357.0000 1.0000
58.7800 329.0000 1.0000
58.7900 312.0000 1.0000
58.8000 316.0000 1.0000
58.8100 326.0000 1.0000
58.8200 351.0000 1.0000
58.8300 305.0000 1.0000
58.8400 298.0000 1.0000
58.8500 281.0000 1.0000
58.8600 295.0000 1.0000
58.8700 303.0000 1.0000
58.8800 309.0000 1.0000
58.8900 304.0000 1.0000
58.9000 321.0000 1.0000
58.9100 318.0000 1.0000
58.9200 312.0000 1.0000
58.9300 287.0000 1.0000
58.9400 311.0000 1.0000
58.9500 300.0000 1.0000
58.9600 288.0000 1.0000
58.9700 297.0000 1.0000
58.9800 306.0000 1.0000
58.9900 324.0000 1.0000
59.0000 320.0000 1.0000
59.0100 309.0000 1.0000
59.0200 323.0000 1.0000
59.0300 347.0000 1.0000
59.0400 320.0000 1.0000
59.0500 320.0000 1.0000
59.0600 306.0000 1.0000
59.0700 318.0000 1.0000
59.0800 296.0000 1.0000
59.0900 298.0000 1.0000
59.1000 311.0000 1.0000
59.1100 306.0000 1.0000
59.1200 280.0000 1.0000
59.1300 304.0000 1.0000
59.1400 286.0000 1.0000
59.1500 281.0000 1.0000
59.1600 312.0000 1.0000
59.1700 312.0000 1.0000
59.1800 307.0000 1.0000
59.1900 307.0000 1.0000
59.2000 289.0000 1.0000
59.2100 311.0000 1.0000
59.2200 344.0000 1.0000
59.2300 336.0000 1.0000
59.2400 283.0000 1.0000
59.2500 315.0000 1.0000
59.2600 303.0000 1.0000
59.2700 335.0000 1.0000
59.2800 327.0000 1.0000
59.2900 296.0000 1.0000
59.3000 285.0000 1.0000
59.3100 313.0000 1.0000
59.3200 319.0000 1.0000
59.3300 321.0000 1.0000
59.3400 310.0000 1.0000
59.3500 317.0000 1.0000
59.3600 325.0000 1.0000
59.3700 302.0000 1.0000
59.3800 328.0000 1.0000
59.3900 317.0000 1.0000
59.4000 299.0000 1.0000
59.4100 289.0000 1.0000
59.4200 325.0000 1.0000
59.4300 326.0000 1.0000
59.4400 334.0000 1.0000
59.4500 319.0000 1.0000
59.4600 331.0000 1.0000
59.4700 326.0000 1.0000
59.4800 324.0000 1.0000
59.4900 342.0000 1.0000
59.5000 317.0000 1.0000
59.5100 322.0000 1.0000
59.5200 311.0000 1.0000
59.5300 305.0000 1.0000
59.5400 299.0000 1.0000
59.5500 314.0000 1.0000
59.5600 320.0000 1.0000
59.5700 287.0000 1.0000
59.5800 322.0000 1.0000
59.5900 319.0000 1.0000
59.6000 297.0000 1.0000
59.6100 295.0000 1.0000
59.6200 306.0000 1.0000
59.6300 361.0000 1.0000
59.6400 311.0000 1.0000
59.6500 302.0000 1.0000
59.6600 316.0000 1.0000
59.6700 313.0000 1.0000
59.6800 291.0000 1.0000
59.6900 293.0000 1.0000
59.7000 312.0000 1.0000
59.7100 322.0000 1.0000
59.7200 294.0000 1.0000
59.7300 299.0000 1.0000
59.7400 308.0000 1.0000
59.7500 305.0000 1.0000
59.7600 312.0000 1.0000
59.7700 323.0000 1.0000
59.7800 287.0000 1.0000
59.7900 317.0000 1.0000
59.8000 318.0000 1.0000
59.8100 322.0000 1.0000
59.8200 305.0000 1.0000
59.8300 297.0000 1.0000
59.8400 343.0000 1.0000
59.8500 303.0000 1.0000
59.8600 284.0000 1.0000
59.8700 293.0000 1.0000
59.8800 335.0000 1.0000
59.8900 292.0000 1.0000
59.9000 300.0000 1.0000
59.9100 316.0000 1.0000
59.9200 299.0000 1.0000
59.9300 303.0000 1.0000
59.9400 314.0000 1.0000
59.9500 303.0000 1.0000
59.9600 303.0000 1.0000
59.9700 307.0000 1.0000
59.9800 295.0000 1.0000
59.9900 296.0000 1.0000
60.0000 304.0000 1.0000
60.0100 306.0000 1.0000
60.0200 292.0000 1.0000
60.0300 322.0000 1.0000
60.0400 312.0000 1.0000
60.0500 293.0000 1.0000
60.0600 317.0000 1.0000
60.0700 333.0000 1.0000
60.0800 329.0000 1.0000
60.0900 292.0000 1.0000
60.1000 328.0000 1.0000
60.1100 301.0000 1.0000
60.1200 296.0000 1.0000
60.1300 298.0000 1.0000
60.1400 282.0000 1.0000
60.1500 297.0000 1.0000
60.1600 346.0000 1.0000
60.1700 347.0000 1.0000
60.1800 304.0000 1.0000
60.1900 309.0000 1.0000
60.2000 333.0000 1.0000
60.2100 309.0000 1.0000
60.2200 308.0000 1.0000
60.2300 321.0000 1.0000
60.2400 296.0000 1.0000
60.2500 307.0000 1.0000
60.2600 309.0000 1.0000
60.2700 301.0000 1.0000
60.2800 312.0000 1.0000
60.2900 316.0000 1.0000
60.3000 325.0000 1.0000
60.3100 327.0000 1.0000
60.3200 297.0000 1.0000
60.3300 330.0000 1.0000
60.3400 300.0000 1.0000
60.3500 281.0000 1.0000
60.3600 336.0000 1.0000
60.3700 280.0000 1.0000
60.3800 322.0000 1.0000
60.3900 266.0000 1.0000
60.4000 306.0000 1.0000
60.4100 302.0000 1.0000
60.4200 307.0000 1.0000
60.4300 288.0000 1.0000
60.4400 333.0000 1.0000
60.4500 308.0000 1.0000
60.4600 309.0000 1.0000
60.4700 309.0000 1.0000
60.4800 287.0000 1.0000
60.4900 284.0000 1.0000
60.5000 302.0000 1.0000
60.5100 327.0000 1.0000
60.5200 317.0000 1.0000
60.5300 322.0000 1.0000
60.5400 295.0000 1.0000
60.5500 313.0000 1.0000
60.5600 289.0000 1.0000
60.5700 324.0000 1.0000
60.5800 315.0000 1.0000
60.5900 333.0000 1.0000
60.6000 342.0000 1.0000
60.6100 334.0000 1.0000
60.6200 323.0000 1.0000
60.6300 325.0000 1.0000
60.6400 289.0000 1.0000
60.6500 329.0000 1.0000
60.6600 336.0000 1.0000
60.6700 312.0000 1.0000
60.6800 332.0000 1.0000
60.6900 320.0000 1.0000
60.7000 307.0000 1.0000
60.7100 317.0000 1.0000
60.7200 299.0000 1.0000
60.7300 307.0000 1.0000
60.7400 289.0000 1.0000
60.7500 300.0000 1.0000
60.7600 307.0000 1.0000
60.7700 329.0000 1.0000
60.7800 283.0000 1.0000
60.7900 302.0000 1.0000
60.8000 299.0000 1.0000
60.8100 284.0000 1.0000
60.8200 325.0000 1.0000
60.8300 308.0000 1.0000
60.8400 308.0000 1.0000
60.8500 292.0000 1.0000
60.8600 333.0000 1.0000
60.8700 329.0000 1.0000
60.8800 324.0000 1.0000
60.8900 316.0000 1.0000
60.9000 304.0000 1.0000
60.9100 304.0000 1.0000
60.9200 308.0000 1.0000
60.9300 300.0000 1.0000
60.9400 306.0000 1.0000
60.9500 340.0000 1.0000
60.9600 311.0000 1.0000
60.9700 371.0000 1.0000
60.9800 323.0000 1.0000
60.9900 356.0000 1.0000
61.0000 302.0000 1.0000
61.0100 324.0000 1.0000
61.0200 337.0000 1.0000
61.0300 333.0000 1.0000
61.0400 327.0000 1.0000
61.0500 328.0000 1.0000
61.0600 308.0000 1.0000
61.0700 331.0000 1.0000
61.0800 346.0000 1.0000
61.0900 325.0000 1.0000
61.1000 332.0000 1.0000
61.1100 360.0000 1.0000
61.1200 366.0000 1.0000
61.1300 355.0000 1.0000
61.1400 327.0000 1.0000
61.1500 346.0000 1.0000
61.1600 345.0000 1.0000
61.1700 340.0000 1.0000
61.1800 353.0000 1.0000
61.1900 327.0000 1.0000
61.2000 326.0000 1.0000
61.2100 344.0000 1.0000
61.2200 343.0000 1.0000
61.2300 396.0000 1.0000
61.2400 376.0000 1.0000
61.2500 406.0000 1.0000
61.2600 412.0000 1.0000
61.2700 381.0000 1.0000
61.2800 412.0000 1.0000
61.2900 399.0000 1.0000
61.3000 396.0000 1.0000
61.3100 383.0000 1.0000
61.3200 409.0000 1.0000
61.3300 398.0000 1.0000
61.3400 396.0000 1.0000
61.3500 443.0000 1.0000
61.3600 431.0000 1.0000
61.3700 461.0000 1.0000
61.3800 489.0000 1.0000
61.3900 473.0000 1.0000
61.4000 469.0000 1.0000
61.4100 488.0000 1.0000
61.4200 520.0000 1.0000
61.4300 535.0000 1.0000
61.4400 558.0000 1.0000
61.4500 523.0000 1.0000
61.4600 517.0000 1.0000
61.4700 571.0000 1.0000
61.4800 594.0000 1.0000
61.4900 593.0000 1.0000
61.5000 619.0000 1.0000
61.5100 628.0000 1.0000
61.5200 642.0000 1.0000
61.5300 621.0000 1.0000
61.5400 646.0000 1.0000
61.5500 630.0000 1.0000
61.5600 614.0000 1.0000
61.5700 603.0000 1.0000
61.5800 619.0000 1.0000
61.5900 639.0000 1.0000
61.6000 647.0000 1.0000
61.6100 594.0000 1.0000
61.6200 577.0000 1.0000
61.6300 606.0000 1.0000
61.6400 635.0000 1.0000
61.6500 604.0000 1.0000
61.6600 586.0000 1.0000
61.6700 608.0000 1.0000
61.6800 598.0000 1.0000
61.6900 590.0000 1.0000
61.7000 568.0000 1.0000
61.7100 546.0000 1.0000
61.7200 516.0000 1.0000
61.7300 486.0000 1.0000
61.7400 520.0000 1.0000
61.7500 547.0000 1.0000
61.7600 554.0000 1.0000
61.7700 490.0000 1.0000
61.7800 509.0000 1.0000
61.7900 504.0000 1.0000
61.8000 461.0000 1.0000
61.8100 476.0000 1.0000
61.8200 464.0000 1.0000
61.8300 444.0000 1.0000
61.8400 431.0000 1.0000
61.8500 412.0000 1.0000
61.8600 402.0000 1.0000
61.8700 389.0000 1.0000
61.8800 420.0000 1.0000
61.8900 405.0000 1.0000
61.9000 388.0000 1.0000
61.9100 388.0000 1.0000
61.9200 405.0000 1.0000
61.9300 381.0000 1.0000
61.9400 360.0000 1.0000
61.9500 369.0000 1.0000
61.9600 341.0000 1.0000
61.9700 400.0000 1.0000
61.9800 359.0000 1.0000
61.9900 362.0000 1.0000
62.0000 341.0000 1.0000
62.0100 360.0000 1.0000
62.0200 349.0000 1.0000
62.0300 352.0000 1.0000
62.0400 357.0000 1.0000
62.0500 303.0000 1.0000
62.0600 379.0000 1.0000
62.0700 367.0000 1.0000
62.0800 352.0000 1.0000
62.0900 363.0000 1.0000
62.1000 341.0000 1.0000
62.1100 343.0000 1.0000
62.1200 326.0000 1.0000
62.1300 309.0000 1.0000
62.1400 336.0000 1.0000
62.1500 304.0000 1.0000
62.1600 312.0000 1.0000
62.1700 312.0000 1.0000
62.1800 335.0000 1.0000
62.1900 354.0000 1.0000
62.2000 362.0000 1.0000
62.2100 352.0000 1.0000
62.2200 342.0000 1.0000
62.2300 339.0000 1.0000
62.2400 339.0000 1.0000
62.2500 373.0000 1.0000
62.2600 324.0000 1.0000
62.2700 377.0000 1.0000
62.2800 333.0000 1.0000
62.2900 312.0000 1.0000
62.3000 348.0000 1.0000
62.3100 334.0000 1.0000
62.3200 324.0000 1.0000
62.3300 333.0000 1.0000
62.3400 331.0000 1.0000
62.3500 344.0000 1.0000
62.3600 363.0000 1.0000
62.3700 342.0000 1.0000
62.3800 352.0000 1.0000
62.3900 352.0000 1.0000
62.4000 335.0000 1.0000
62.4100 326.0000 1.0000
62.4200 327.0000 1.0000
62.4300 356.0000 1.0000
62.4400 356.0000 1.0000
62.4500 328.0000 1.0000
62.4600 312.0000 1.0000
62.4700 305.0000 1.0000
62.4800 350.0000 1.0000
62.4900 352.0000 1.0000
62.5000 344.0000 1.0000
62.5100 333.0000 1.0000
62.5200 357.0000 1.0000
62.5300 320.0000 1.0000
62.5400 302.0000 1.0000
62.5500 362.0000 1.0000
62.5600 349.0000 1.0000
62.5700 351.0000 1.0000
62.5800 368.0000 1.0000
62.5900 331.0000 1.0000
62.6000 331.0000 1.0000
62.6100 360.0000 1.0000
62.6200 307.0000 1.0000
62.6300 341.0000 1.0000
62.6400 311.0000 1.0000
62.6500 354.0000 1.0000
62.6600 318.0000 1.0000
62.6700 307.0000 1.0000
62.6800 311.0000 1.0000
62.6900 305.0000 1.0000
62.7000 326.0000 1.0000
62.7100 333.0000 1.0000
62.7200 320.0000 1.0000
62.7300 307.0000 1.0000
62.7400 342.0000 1.0000
62.7500 313.0000 1.0000
62.7600 309.0000 1.0000
62.7700 346.0000 1.0000
62.7800 338.0000 1.0000
62.7900 315.0000 1.0000
62.8000 302.0000 1.0000
62.8100 322.0000 1.0000
62.8200 311.0000 1.0000
62.8300 291.0000 1.0000
62.8400 280.0000 1.0000
62.8500 294.0000 1.0000
62.8600 326.0000 1.0000
62.8700 311.0000 1.0000
62.8800 320.0000 1.0000
62.8900 308.0000 1.0000
62.9000 300.0000 1.0000
62.9100 313.0000 1.0000
62.9200 318.0000 1.0000
62.9300 301.0000 1.0000
62.9400 320.0000 1.0000
62.9500 319.0000 1.0000
62.9600 318.0000 1.0000
62.9700 329.0000 1.0000
62.9800 317.0000 1.0000
62.9900 311.0000 1.0000
63.0000 307.0000 1.0000
63.0100 309.0000 1.0000
63.0200 300.0000 1.0000
63.0300 284.0000 1.0000
63.0400 312.0000 1.0000
63.0500 301.0000 1.0000
63.0600 326.0000 1.0000
63.0700 353.0000 1.0000
63.0800 303.0000 1.0000
63.0900 307.0000 1.0000
63.1000 293.0000 1.0000
63.1100 285.0000 1.0000
63.1200 316.0000 1.0000
63.1300 315.0000 1.0000
63.1400 324.0000 1.0000
63.1500 335.0000 1.0000
63.1600 298.0000 1.0000
63.1700 309.0000 1.0000
63.1800 320.0000 1.0000
63.1900 328.0000 1.0000
63.2000 314.0000 1.0000
63.2100 303.0000 1.0000
63.2200 297.0000 1.0000
63.2300 302.0000 1.0000
63.2400 288.0000 1.0000
63.2500 305.0000 1.0000
63.2600 351.0000 1.0000
63.2700 305.0000 1.0000
63.2800 308.0000 1.0000
63.2900 308.0000 1.0000
63.3000 310.0000 1.0000
63.3100 290.0000 1.0000
63.3200 327.0000 1.0000
63.3300 332.0000 1.0000
63.3400 321.0000 1.0000
63.3500 280.0000 1.0000
63.3600 287.0000 1.0000
63.3700 323.0000 1.0000
63.3800 310.0000 1.0000
63.3900 316.0000 1.0000
63.4000 304.0000 1.0000
63.4100 339.0000 1.0000
63.4200 338.0000 1.0000
63.4300 324.0000 1.0000
63.4400 308.0000 1.0000
63.4500 304.0000 1.0000
63.4600 348.0000 1.0000
63.4700 294.0000 1.0000
63.4800 327.0000 1.0000
63.4900 316.0000 1.0000
63.5000 303.0000 1.0000
63.5100 327.0000 1.0000
63.5200 312.0000 1.0000
63.5300 325.0000 1.0000
63.5400 307.0000 1.0000
63.5500 296.0000 1.0000
63.5600 296.0000 1.0000
63.5700 322.0000 1.0000
63.5800 319.0000 1.0000
63.5900 309.0000 1.0000
63.6000 311.0000 1.0000
63.6100 304.0000 1.0000
63.6200 308.0000 1.0000
63.6300 316.0000 1.0000
63.6400 321.0000 1.0000
63.6500 331.0000 1.0000
63.6600 354.0000 1.0000
63.6700 322.0000 1.0000
63.6800 336.0000 1.0000
63.6900 327.0000 1.0000
63.7000 350.0000 1.0000
63.7100 362.0000 1.0000
63.7200 347.0000 1.0000
63.7300 370.0000 1.0000
63.7400 333.0000 1.0000
63.7500 320.0000 1.0000
63.7600 339.0000 1.0000
63.7700 370.0000 1.0000
63.7800 370.0000 1.0000
63.7900 391.0000 1.0000
63.8000 345.0000 1.0000
63.8100 367.0000 1.0000
63.8200 388.0000 1.0000
63.8300 379.0000 1.0000
63.8400 373.0000 1.0000
63.8500 405.0000 1.0000
63.8600 412.0000 1.0000
63.8700 414.0000 1.0000
63.8800 428.0000 1.0000
63.8900 418.0000 1.0000
63.9000 432.0000 1.0000
63.9100 449.0000 1.0000
63.9200 427.0000 1.0000
63.9300 434.0000 1.0000
63.9400 443.0000 1.0000
63.9500 463.0000 1.0000
63.9600 418.0000 1.0000
63.9700 462.0000 1.0000
63.9800 501.0000 1.0000
63.9900 473.0000 1.0000
64.0000 437.0000 1.0000
64.0100 452.0000 1.0000
64.0200 445.0000 1.0000
64.0300 468.0000 1.0000
64.0400 448.0000 1.0000
64.0500 443.0000 1.0000
64.0600 438.0000 1.0000
64.0700 443.0000 1.0000
64.0800 427.0000 1.0000
64.0900 446.0000 1.0000
64.1000 414.0000 1.0000
64.1100 441.0000 1.0000
64.1200 399.0000 1.0000
64.1300 436.0000 1.0000
64.1400 400.0000 1.0000
64.1500 414.0000 1.0000
64.1600 386.0000 1.0000
64.1700 400.0000 1.0000
64.1800 398.0000 1.0000
64.1900 385.0000 1.0000
64.2000 400.0000 1.0000
64.2100 373.0000 1.0000
64.2200 379.0000 1.0000
64.2300 352.0000 1.0000
64.2400 335.0000 1.0000
64.2500 343.0000 1.0000
64.2600 364.0000 1.0000
64.2700 383.0000 1.0000
64.2800 356.0000 1.0000
64.2900 366.0000 1.0000
64.3000 379.0000 1.0000
64.3100 368.0000 1.0000
64.3200 358.0000 1.0000
64.3300 328.0000 1.0000
64.3400 323.0000 1.0000
64.3500 329.0000 1.0000
64.3600 337.0000 1.0000
64.3700 360.0000 1.0000
64.3800 352.0000 1.0000
64.3900 342.0000 1.0000
64.4000 314.0000 1.0000
64.4100 327.0000 1.0000
64.4200 341.0000 1.0000
64.4300 337.0000 1.0000
64.4400 353.0000 1.0000
64.4500 297.0000 1.0000
64.4600 306.0000 1.0000
64.4700 322.0000 1.0000
64.4800 332.0000 1.0000
64.4900 322.0000 1.0000
64.5000 339.0000 1.0000
64.5100 343.0000 1.0000
64.5200 322.0000 1.0000
64.5300 347.0000 1.0000
64.5400 311.0000 1.0000
64.5500 320.0000 1.0000
64.5600 309.0000 1.0000
64.5700 330.0000 1.0000
64.5800 337.0000 1.0000
64.5900 342.0000 1.0000
64.6000 323.0000 1.0000
64.6100 301.0000 1.0000
64.6200 337.0000 1.0000
64.6300 336.0000 1.0000
64.6400 322.0000 1.0000
64.6500 296.0000 1.0000
64.6600 278.0000 1.0000
64.6700 324.0000 1.0000
64.6800 322.0000 1.0000
64.6900 343.0000 1.0000
64.7000 302.0000 1.0000
64.7100 323.0000 1.0000
64.7200 305.0000 1.0000
64.7300 331.0000 1.0000
64.7400 315.0000 1.0000
64.7500 357.0000 1.0000
64.7600 337.0000 1.0000
64.7700 316.0000 1.0000
64.7800 305.0000 1.0000
64.7900 296.0000 1.0000
64.8000 314.0000 1.0000
64.8100 315.0000 1.0000
64.8200 330.0000 1.0000
64.8300 322.0000 1.0000
64.8400 338.0000 1.0000
64.8500 348.0000 1.0000
64.8600 346.0000 1.0000
64.8700 327.0000 1.0000
64.8800 313.0000 1.0000
64.8900 342.0000 1.0000
64.9000 318.0000 1.0000
64.9100 332.0000 1.0000
64.9200 338.0000 1.0000
64.9300 313.0000 1.0000
64.9400 315.0000 1.0000
64.9500 311.0000 1.0000
64.9600 348.0000 1.0000
64.9700 330.0000 1.0000
64.9800 333.0000 1.0000
64.9900 316.0000 1.0000
65.0000 328.0000 1.0000
65.0100 316.0000 1.0000
65.0200 352.0000 1.0000
65.0300 342.0000 1.0000
65.0400 351.0000 1.0000
65.0500 338.0000 1.0000
65.0600 318.0000 1.0000
65.0700 353.0000 1.0000
65.0800 339.0000 1.0000
65.0900 322.0000 1.0000
65.1000 352.0000 1.0000
65.1100 323.0000 1.0000
65.1200 361.0000 1.0000
65.1300 367.0000 1.0000
65.1400 371.0000 1.0000
65.1500 388.0000 1.0000
65.1600 368.0000 1.0000
65.1700 370.0000 1.0000
65.1800 386.0000 1.0000
65.1900 380.0000 1.0000
65.2000 396.0000 1.0000
65.2100 392.0000 1.0000
65.2200 394.0000 1.0000
65.2300 395.0000 1.0000
65.2400 400.0000 1.0000
65.2500 413.0000 1.0000
65.2600 444.0000 1.0000
65.2700 449.0000 1.0000
65.2800 479.0000 1.0000
65.2900 491.0000 1.0000
65.3000 472.0000 1.0000
65.3100 510.0000 1.0000
65.3200 501.0000 1.0000
65.3300 542.0000 1.0000
65.3400 568.0000 1.0000
65.3500 557.0000 1.0000
65.3600 569.0000 1.0000
65.3700 605.0000 1.0000
65.3800 614.0000 1.0000
65.3900 698.0000 1.0000
65.4000 669.0000 1.0000
65.4100 715.0000 1.0000
65.4200 752.0000 1.0000
65.4300 819.0000 1.0000
65.4400 862.0000 1.0000
65.4500 836.0000 1.0000
65.4600 917.0000 1.0000
65.4700 945.0000 1.0000
65.4800 990.0000 1.0000
65.4900 1029.0000 1.0000
65.5000 1070.0000 1.0000
65.5100 1035.0000 1.0000
65.5200 1164.0000 1.0000
65.5300 1116.0000 1.0000
65.5400 1131.0000 1.0000
65.5500 1163.0000 1.0000
65.5600 1120.0000 1.0000
65.5700 1110.0000 1.0000
65.5800 1142.0000 1.0000
65.5900 1119.0000 1.0000
65.6000 1139.0000 1.0000
65.6100 1079.0000 1.0000
65.6200 1006.0000 1.0000
65.6300 1029.0000 1.0000
65.6400 1003.0000 1.0000
65.6500 1032.0000 1.0000
65.6600 921.0000 1.0000
65.6700 940.0000 1.0000
65.6800 972.0000 1.0000
65.6900 942.0000 1.0000
65.7000 922.0000 1.0000
65.7100 955.0000 1.0000
65.7200 935.0000 1.0000
65.7300 871.0000 1.0000
65.7400 839.0000 1.0000
65.7500 819.0000 1.0000
65.7600 826.0000 1.0000
65.7700 773.0000 1.0000
65.7800 762.0000 1.0000
65.7900 695.0000 1.0000
65.8000 704.0000 1.0000
65.8100 662.0000 1.0000
65.8200 670.0000 1.0000
65.8300 621.0000 1.0000
65.8400 630.0000 1.0000
65.8500 532.0000 1.0000
65.8600 564.0000 1.0000
65.8700 544.0000 1.0000
65.8800 495.0000 1.0000
65.8900 499.0000 1.0000
65.9000 539.0000 1.0000
65.9100 492.0000 1.0000
65.9200 469.0000 1.0000
65.9300 452.0000 1.0000
65.9400 480.0000 1.0000
65.9500 434.0000 1.0000
65.9600 401.0000 1.0000
65.9700 451.0000 1.0000
65.9800 411.0000 1.0000
65.9900 402.0000 1.0000
66.0000 409.0000 1.0000
66.0100 379.0000 1.0000
66.0200 418.0000 1.0000
66.0300 394.0000 1.0000
66.0400 376.0000 1.0000
66.0500 378.0000 1.0000
66.0600 382.0000 1.0000
66.0700 344.0000 1.0000
66.0800 361.0000 1.0000
66.0900 356.0000 1.0000
66.1000 351.0000 1.0000
66.1100 324.0000 1.0000
66.1200 339.0000 1.0000
66.1300 334.0000 1.0000
66.1400 333.0000 1.0000
66.1500 324.0000 1.0000
66.1600 332.0000 1.0000
66.1700 325.0000 1.0000
66.1800 323.0000 1.0000
66.1900 323.0000 1.0000
66.2000 339.0000 1.0000
66.2100 307.0000 1.0000
66.2200 350.0000 1.0000
66.2300 283.0000 1.0000
66.2400 297.0000 1.0000
66.2500 334.0000 1.0000
66.2600 289.0000 1.0000
66.2700 271.0000 1.0000
66.2800 300.0000 1.0000
66.2900 300.0000 1.0000
66.3000 293.0000 1.0000
66.3100 312.0000 1.0000
66.3200 335.0000 1.0000
66.3300 279.0000 1.0000
66.3400 307.0000 1.0000
66.3500 341.0000 1.0000
66.3600 300.0000 1.0000
66.3700 327.0000 1.0000
66.3800 342.0000 1.0000
66.3900 337.0000 1.0000
66.4000 325.0000 1.0000
66.4100 307.0000 1.0000
66.4200 315.0000 1.0000
66.4300 305.0000 1.0000
66.4400 318.0000 1.0000
66.4500 303.0000 1.0000
66.4600 313.0000 1.0000
66.4700 309.0000 1.0000
66.4800 303.0000 1.0000
66.4900 276.0000 1.0000
66.5000 280.0000 1.0000
66.5100 281.0000 1.0000
66.5200 311.0000 1.0000
66.5300 319.0000 1.0000
66.5400 302.0000 1.0000
66.5500 283.0000 1.0000
66.5600 284.0000 1.0000
66.5700 314.0000 1.0000
66.5800 280.0000 1.0000
66.5900 294.0000 1.0000
66.6000 302.0000 1.0000
66.6100 320.0000 1.0000
66.6200 303.0000 1.0000
66.6300 302.0000 1.0000
66.6400 290.0000 1.0000
66.6500 288.0000 1.0000
66.6600 289.0000 1.0000
66.6700 288.0000 1.0000
66.6800 300.0000 1.0000
66.6900 313.0000 1.0000
66.7000 290.0000 1.0000
66.7100 297.0000 1.0000
66.7200 297.0000 1.0000
66.7300 327.0000 1.0000
66.7400 279.0000 1.0000
66.7500 300.0000 1.0000
66.7600 297.0000 1.0000
66.7700 306.0000 1.0000
66.7800 289.0000 1.0000
66.7900 274.0000 1.0000
66.8000 290.0000 1.0000
66.8100 285.0000 1.0000
66.8200 280.0000 1.0000
66.8300 274.0000 1.0000
66.8400 286.0000 1.0000
66.8500 286.0000 1.0000
66.8600 294.0000 1.0000
66.8700 301.0000 1.0000
66.8800 302.0000 1.0000
66.8900 285.0000 1.0000
66.9000 286.0000 1.0000
66.9100 292.0000 1.0000
66.9200 291.0000 1.0000
66.9300 267.0000 1.0000
66.9400 298.0000 1.0000
66.9500 299.0000 1.0000
66.9600 299.0000 1.0000
66.9700 279.0000 1.0000
66.9800 260.0000 1.0000
66.9900 268.0000 1.0000
67.0000 288.0000 1.0000
67.0100 296.0000 1.0000
67.0200 270.0000 1.0000
67.0300 285.0000 1.0000
67.0400 277.0000 1.0000
67.0500 299.0000 1.0000
67.0600 294.0000 1.0000
67.0700 288.0000 1.0000
67.0800 277.0000 1.0000
67.0900 320.0000 1.0000
67.1000 329.0000 1.0000
67.1100 282.0000 1.0000
67.1200 291.0000 1.0000
67.1300 289.0000 1.0000
67.1400 295.0000 1.0000
67.1500 283.0000 1.0000
67.1600 321.0000 1.0000
67.1700 280.0000 1.0000
67.1800 287.0000 1.0000
67.1900 291.0000 1.0000
67.2000 305.0000 1.0000
67.2100 279.0000 1.0000
67.2200 272.0000 1.0000
67.2300 291.0000 1.0000
67.2400 316.0000 1.0000
67.2500 291.0000 1.0000
67.2600 299.0000 1.0000
67.2700 268.0000 1.0000
67.2800 307.0000 1.0000
67.2900 251.0000 1.0000
67.3000 291.0000 1.0000
67.3100 282.0000 1.0000
67.3200 274.0000 1.0000
67.3300 250.0000 1.0000
67.3400 278.0000 1.0000
67.3500 270.0000 1.0000
67.3600 285.0000 1.0000
67.3700 298.0000 1.0000
67.3800 272.0000 1.0000
67.3900 283.0000 1.0000
67.4000 279.0000 1.0000
67.4100 297.0000 1.0000
67.4200 276.0000 1.0000
67.4300 262.0000 1.0000
67.4400 295.0000 1.0000
67.4500 273.0000 1.0000
67.4600 290.0000 1.0000
67.4700 284.0000 1.0000
67.4800 311.0000 1.0000
67.4900 272.0000 1.0000
67.5000 275.0000 1.0000
67.5100 253.0000 1.0000
67.5200 288.0000 1.0000
67.5300 311.0000 1.0000
67.5400 277.0000 1.0000
67.5500 287.0000 1.0000
67.5600 291.0000 1.0000
67.5700 296.0000 1.0000
67.5800 284.0000 1.0000
67.5900 277.0000 1.0000
67.6000 282.0000 1.0000
67.6100 288.0000 1.0000
67.6200 280.0000 1.0000
67.6300 264.0000 1.0000
67.6400 261.0000 1.0000
67.6500 282.0000 1.0000
67.6600 285.0000 1.0000
67.6700 288.0000 1.0000
67.6800 280.0000 1.0000
67.6900 261.0000 1.0000
67.7000 272.0000 1.0000
67.7100 274.0000 1.0000
67.7200 255.0000 1.0000
67.7300 264.0000 1.0000
67.7400 287.0000 1.0000
67.7500 278.0000 1.0000
67.7600 275.0000 1.0000
67.7700 284.0000 1.0000
67.7800 258.0000 1.0000
67.7900 275.0000 1.0000
67.8000 267.0000 1.0000
67.8100 272.0000 1.0000
67.8200 277.0000 1.0000
67.8300 272.0000 1.0000
67.8400 284.0000 1.0000
67.8500 260.0000 1.0000
67.8600 272.0000 1.0000
67.8700 273.0000 1.0000
67.8800 302.0000 1.0000
67.8900 278.0000 1.0000
67.9000 242.0000 1.0000
67.9100 264.0000 1.0000
67.9200 264.0000 1.0000
67.9300 291.0000 1.0000
67.9400 262.0000 1.0000
67.9500 272.0000 1.0000
67.9600 271.0000 1.0000
67.9700 263.0000 1.0000
67.9800 281.0000 1.0000
67.9900 267.0000 1.0000
68.0000 290.0000 1.0000
68.0100 260.0000 1.0000
68.0200 278.0000 1.0000
68.0300 265.0000 1.0000
68.0400 275.0000 1.0000
68.0500 258.0000 1.0000
68.0600 266.0000 1.0000
68.0700 310.0000 1.0000
68.0800 297.0000 1.0000
68.0900 250.0000 1.0000
68.1000 272.0000 1.0000
68.1100 278.0000 1.0000
68.1200 276.0000 1.0000
68.1300 270.0000 1.0000
68.1400 269.0000 1.0000
68.1500 264.0000 1.0000
68.1600 276.0000 1.0000
68.1700 267.0000 1.0000
68.1800 293.0000 1.0000
68.1900 284.0000 1.0000
68.2000 265.0000 1.0000
68.2100 286.0000 1.0000
68.2200 276.0000 1.0000
68.2300 299.0000 1.0000
68.2400 330.0000 1.0000
68.2500 250.0000 1.0000
68.2600 258.0000 1.0000
68.2700 270.0000 1.0000
68.2800 263.0000 1.0000
68.2900 274.0000 1.0000
68.3000 256.0000 1.0000
68.3100 279.0000 1.0000
68.3200 282.0000 1.0000
68.3300 283.0000 1.0000
68.3400 272.0000 1.0000
68.3500 292.0000 1.0000
68.3600 285.0000 1.0000
68.3700 269.0000 1.0000
68.3800 258.0000 1.0000
68.3900 297.0000 1.0000
68.4000 295.0000 1.0000
68.4100 294.0000 1.0000
68.4200 275.0000 1.0000
68.4300 258.0000 1.0000
68.4400 283.0000 1.0000
68.4500 256.0000 1.0000
68.4600 263.0000 1.0000
68.4700 277.0000 1.0000
68.4800 263.0000 1.0000
68.4900 302.0000 1.0000
68.5000 265.0000 1.0000
68.5100 273.0000 1.0000
68.5200 271.0000 1.0000
68.5300 255.0000 1.0000
68.5400 256.0000 1.0000
68.5500 272.0000 1.0000
68.5600 275.0000 1.0000
68.5700 279.0000 1.0000
68.5800 274.0000 1.0000
68.5900 280.0000 1.0000
68.6000 268.0000 1.0000
68.6100 281.0000 1.0000
68.6200 273.0000 1.0000
68.6300 270.0000 1.0000
68.6400 283.0000 1.0000
68.6500 260.0000 1.0000
68.6600 255.0000 1.0000
68.6700 274.0000 1.0000
68.6800 298.0000 1.0000
68.6900 282.0000 1.0000
68.7000 295.0000 1.0000
68.7100 277.0000 1.0000
68.7200 279.0000 1.0000
68.7300 280.0000 1.0000
68.7400 279.0000 1.0000
68.7500 257.0000 1.0000
68.7600 268.0000 1.0000
68.7700 260.0000 1.0000
68.7800 279.0000 1.0000
68.7900 256.0000 1.0000
68.8000 299.0000 1.0000
68.8100 284.0000 1.0000
68.8200 280.0000 1.0000
68.8300 273.0000 1.0000
68.8400 284.0000 1.0000
68.8500 287.0000 1.0000
68.8600 296.0000 1.0000
68.8700 278.0000 1.0000
68.8800 292.0000 1.0000
68.8900 275.0000 1.0000
68.9000 282.0000 1.0000
68.9100 263.0000 1.0000
68.9200 274.0000 1.0000
68.9300 292.0000 1.0000
68.9400 305.0000 1.0000
68.9500 290.0000 1.0000
68.9600 292.0000 1.0000
68.9700 283.0000 1.0000
68.9800 271.0000 1.0000
68.9900 286.0000 1.0000
69.0000 274.0000 1.0000
69.0100 278.0000 1.0000
69.0200 292.0000 1.0000
69.0300 283.0000 1.0000
69.0400 288.0000 1.0000
69.0500 289.0000 1.0000
69.0600 289.0000 1.0000
69.0700 263.0000 1.0000
69.0800 306.0000 1.0000
69.0900 243.0000 1.0000
69.1000 273.0000 1.0000
69.1100 269.0000 1.0000
69.1200 272.0000 1.0000
69.1300 270.0000 1.0000
69.1400 260.0000 1.0000
69.1500 252.0000 1.0000
69.1600 267.0000 1.0000
69.1700 275.0000 1.0000
69.1800 270.0000 1.0000
69.1900 258.0000 1.0000
69.2000 237.0000 1.0000
69.2100 265.0000 1.0000
69.2200 274.0000 1.0000
69.2300 254.0000 1.0000
69.2400 269.0000 1.0000
69.2500 259.0000 1.0000
69.2600 273.0000 1.0000
69.2700 277.0000 1.0000
69.2800 290.0000 1.0000
69.2900 280.0000 1.0000
69.3000 272.0000 1.0000
69.3100 260.0000 1.0000
69.3200 257.0000 1.0000
69.3300 254.0000 1.0000
69.3400 254.0000 1.0000
69.3500 298.0000 1.0000
69.3600 280.0000 1.0000
69.3700 276.0000 1.0000
69.3800 277.0000 1.0000
69.3900 255.0000 1.0000
69.4000 271.0000 1.0000
69.4100 265.0000 1.0000
69.4200 272.0000 1.0000
69.4300 276.0000 1.0000
69.4400 248.0000 1.0000
69.4500 256.0000 1.0000
69.4600 240.0000 1.0000
69.4700 291.0000 1.0000
69.4800 290.0000 1.0000
69.4900 268.0000 1.0000
69.5000 263.0000 1.0000
69.5100 274.0000 1.0000
69.5200 280.0000 1.0000
69.5300 265.0000 1.0000
69.5400 273.0000 1.0000
69.5500 267.0000 1.0000
69.5600 268.0000 1.0000
69.5700 265.0000 1.0000
69.5800 250.0000 1.0000
69.5900 259.0000 1.0000
69.6000 295.0000 1.0000
69.6100 269.0000 1.0000
69.6200 270.0000 1.0000
69.6300 265.0000 1.0000
69.6400 274.0000 1.0000
69.6500 278.0000 1.0000
69.6600 272.0000 1.0000
69.6700 267.0000 1.0000
69.6800 273.0000 1.0000
69.6900 263.0000 1.0000
69.7000 233.0000 1.0000
69.7100 265.0000 1.0000
69.7200 247.0000 1.0000
69.7300 251.0000 1.0000
69.7400 256.0000 1.0000
69.7500 260.0000 1.0000
69.7600 247.0000 1.0000
69.7700 252.0000 1.0000
69.7800 274.0000 1.0000
69.7900 251.0000 1.0000
69.8000 257.0000 1.0000
69.8100 289.0000 1.0000
69.8200 264.0000 1.0000
69.8300 271.0000 1.0000
69.8400 267.0000 1.0000
69.8500 251.0000 1.0000
69.8600 258.0000 1.0000
69.8700 266.0000 1.0000
69.8800 268.0000 1.0000
69.8900 291.0000 1.0000
69.9000 250.0000 1.0000
69.9100 268.0000 1.0000
69.9200 265.0000 1.0000
69.9300 271.0000 1.0000
69.9400 257.0000 1.0000
69.9500 267.0000 1.0000
69.9600 272.0000 1.0000
69.9700 268.0000 1.0000
69.9800 249.0000 1.0000
69.9900 284.0000 1.0000
70.0000 260.0000 1.0000
*RAS_INT_END
*RAS_TEMPERATURE_START
*RAS_TEMPERATURE_END
*RAS_DATA_END
