*RAS_DATA_START
*RAS_HEADER_START
*DISP_FMT_X "%.2f"
*DISP_FMT_Y "%.0f"
*DISP_FULLSCALE "15530.0000000000"
*DISP_LINE_COLOR "255.0000000000"
*DISP_LINE_STYLE "0.0000000000"
*DISP_LINE_WIDTH "0.2500000000"
*DISP_NOTE "測定データ-3"
*DISP_OFFSET_Y "0.0000000000"
*DISP_PEAKSEARCH_UNIT_Y "cps"
*DISP_RANGE_BOTTOM "0.0000000000"
*DISP_RANGE_LEFT "20.0000000000"
*DISP_RANGE_LOGCUTOFF "0.0100000000"
*DISP_RANGE_RIGHT "70.0000000000"
*DISP_RANGE_TOP "15530.0000000000"
*DISP_SCALE_MODE_Y "0.0000000000"
*DISP_TAB_NAME "2θ/θ"
*DISP_TITLE_Y "強度"
*DISP_UNIT_Y "cps"
*DISP_WINDOW_NAME "MSG_MACROENGINE"
*FILE_COMMENT " "
*FILE_MD5 ""
*FILE_MEMO " "
*FILE_OPERATOR "Administrator"
*FILE_SAMPLE " "
*FILE_TYPE "RAS_RAW"
*FILE_USERGROUP "システムマネージャ"
*FILE_VERSION "1.0000000000"
*HW_ATTACHMENT_ID "ATT0025"
*HW_ATTACHMENT_NAME "標準|Standard"
*HW_COUNTER_ID-0 "CUT0025"
*HW_COUNTER_ID-1 "CUT0020"
*HW_COUNTER_ID-2 "CUT0020"
*HW_COUNTER_ID-3 "CSL0021"
*HW_COUNTER_ID-4 "CMC0021"
*HW_COUNTER_NAME-0 "D/teX Ultra|D/teX Ultra"
*HW_COUNTER_NAME-1 "None|None"
*HW_COUNTER_NAME-2 "None|None"
*HW_COUNTER_NAME-3 "BBM|BBM"
*HW_COUNTER_NAME-4 "検出器モノクロメータ|Detector monochromator"
*HW_COUNTER_SELECT_NAME "D/teX Ultra|D/teX Ultra"
*HW_GONIOMETER_ID "GON0023"
*HW_GONIOMETER_NAME "SmartLab|SmartLab"
*HW_GONIOMETER_RADIUS-0 "90.0"
*HW_GONIOMETER_RADIUS-1 "114.0"
*HW_GONIOMETER_RADIUS-2 "190.0"
*HW_GONIOMETER_RADIUS-3 "300.0"
*HW_GONIOMETER_RADIUS-4 "187.0"
*HW_GONIOMETER_RADIUS-5 "300.0"
*HW_GONIOMETER_RADIUS-6 "113.0"
*HW_GONIOMETER_RADIUS-7 "331.0"
*HW_I_OPT_ID-0 "CBO0021"
*HW_I_OPT_ID-1 "ICR0023"
*HW_I_OPT_ID-2 "ISL0021"
*HW_I_OPT_ID-3 "ISO0021"
*HW_I_OPT_ID-4 "IAD0021"
*HW_I_OPT_ID-5 "IPR0001"
*HW_I_OPT_NAME-0 "CBOユニット|CBO unit"
*HW_I_OPT_NAME-1 "標準入射光学ユニット|Standard incident optical unit"
*HW_I_OPT_NAME-2 "標準入射スリットボックス|Standard incident slit box"
*HW_I_OPT_NAME-3 "入射平行スリット|Incident parallel slit"
*HW_I_OPT_NAME-4 "長手制限スリット|Length limiting slit"
*HW_I_OPT_NAME-5 "None|None"
*HW_R_ATTENUATER_AUTOMODE "0"
*HW_R_OPT_ID-0 "RSS0021"
*HW_R_OPT_ID-1 "RCR0023"
*HW_R_OPT_ID-2 "RSO0021"
*HW_R_OPT_ID-3 "RRS0021"
*HW_R_OPT_ID-4 "ATN0021"
*HW_R_OPT_ID-5 "RFL0021"
*HW_R_OPT_ID-6 "RAD0021"
*HW_R_OPT_NAME-0 "標準受光スリットボックス1|Standard receiving slit box # 1"
*HW_R_OPT_NAME-1 "標準受光光学ユニット1|Standard receiving unit # 1"
*HW_R_OPT_NAME-2 "標準受光光学ユニット2|Standard receiving optical unit # 2"
*HW_R_OPT_NAME-3 "標準受光スリットボックス2|Standard receiving slit box # 2"
*HW_R_OPT_NAME-4 "標準アッテネータ|Standard Attenuator"
*HW_R_OPT_NAME-5 "Cu Kβ|Cu K-beta"
*HW_R_OPT_NAME-6 "調整用受光スリット|Alignment receiving slit"
*HW_SAMPLE_HOLDER_ID "SMP0023"
*HW_SAMPLE_HOLDER_NAME "標準Zステージ|Standard Z stage"
*HW_XG_CURRENT_MAX "50"
*HW_XG_CURRENT_MIN "2"
*HW_XG_CURRENT_RESOLUTION "1"
*HW_XG_CURRENT_UNIT "mA"
*HW_XG_FOCUS "1mm x 10mm"
*HW_XG_FOCUS_TYPE "Normal"
*HW_XG_ID ""
*HW_XG_NAME "3kW 封入管(ID:1200)|3kW Sealed tube(ID:1200)"
*HW_XG_TARGET_ATOMIC_NUMBER "29.0000000000"
*HW_XG_TARGET_NAME "Cu"
*HW_XG_TYPE "Hermetic"
*HW_XG_VOLTAGE_MAX "60"
*HW_XG_VOLTAGE_MIN "20"
*HW_XG_VOLTAGE_RESOLUTION "1"
*HW_XG_VOLTAGE_UNIT "kV"
*HW_XG_WATT_MAX "1.500"
*HW_XG_WATT_UNIT "kW"
*HW_XG_WAVE_LENGTH_ALPHA1 "1.540593"
*HW_XG_WAVE_LENGTH_ALPHA2 "1.544414"
*HW_XG_WAVE_LENGTH_BETA "1.392250"
*MEAS_COND_AXIS_NAME-0 "2θ/θ"
*MEAS_COND_AXIS_NAME-1 "2θ"
*MEAS_COND_AXIS_NAME-2 "ω"
*MEAS_COND_AXIS_NAME-3 "Z"
*MEAS_COND_AXIS_NAME-4 "2θ/ω"
*MEAS_COND_AXIS_NAME-5 "θs"
*MEAS_COND_AXIS_NAME-6 "θd"
*MEAS_COND_AXIS_NAME-7 "Ts"
*MEAS_COND_AXIS_NAME-8 "CBO選択スリット"
*MEAS_COND_AXIS_NAME-9 "M"
*MEAS_COND_AXIS_NAME-10 "入射平行スリット"
*MEAS_COND_AXIS_NAME-11 "入射スリット"
*MEAS_COND_AXIS_NAME-12 ""
*MEAS_COND_AXIS_NAME-13 "Zs"
*MEAS_COND_AXIS_NAME-14 "入射光学素子"
*MEAS_COND_AXIS_NAME-15 "長手制限スリット"
*MEAS_COND_AXIS_NAME-16 "センタースリット"
*MEAS_COND_AXIS_NAME-17 "フィルター"
*MEAS_COND_AXIS_NAME-18 "受光スリット1"
*MEAS_COND_AXIS_NAME-19 "受光スリット2"
*MEAS_COND_AXIS_NAME-20 "受光光学素子"
*MEAS_COND_AXIS_NAME-21 "受光平行スリット"
*MEAS_COND_AXIS_NAME-22 "調整用受光スリット"
*MEAS_COND_AXIS_NAME-23 ""
*MEAS_COND_AXIS_NAME-24 ""
*MEAS_COND_AXIS_NAME-25 "Zd"
*MEAS_COND_AXIS_NAME-26 "アッテネータ"
*MEAS_COND_AXIS_NAME-27 "検出器モノクロメータ"
*MEAS_COND_AXIS_NAME-28 "モノクロメータスリット"
*MEAS_COND_AXIS_NAME-29 "プライマリビーム"
*MEAS_COND_AXIS_NAME-30 "PHA"
*MEAS_COND_AXIS_NAME_INTERNAL-0 "TwoThetaTheta"
*MEAS_COND_AXIS_NAME_INTERNAL-1 "TwoTheta"
*MEAS_COND_AXIS_NAME_INTERNAL-2 "Omega"
*MEAS_COND_AXIS_NAME_INTERNAL-3 "Z"
*MEAS_COND_AXIS_NAME_INTERNAL-4 "TwoThetaOmega"
*MEAS_COND_AXIS_NAME_INTERNAL-5 "ThetaS"
*MEAS_COND_AXIS_NAME_INTERNAL-6 "ThetaD"
*MEAS_COND_AXIS_NAME_INTERNAL-7 "Ts"
*MEAS_COND_AXIS_NAME_INTERNAL-8 "CBO"
*MEAS_COND_AXIS_NAME_INTERNAL-9 "CBO-M"
*MEAS_COND_AXIS_NAME_INTERNAL-10 "IncidentSollerSlit"
*MEAS_COND_AXIS_NAME_INTERNAL-11 "IncidentSlitBox"
*MEAS_COND_AXIS_NAME_INTERNAL-12 "IncidentSlitBox-_Axis"
*MEAS_COND_AXIS_NAME_INTERNAL-13 "Zs"
*MEAS_COND_AXIS_NAME_INTERNAL-14 "IncidentMonochromator"
*MEAS_COND_AXIS_NAME_INTERNAL-15 "IncidentAxdSlit"
*MEAS_COND_AXIS_NAME_INTERNAL-16 "CenterSlit"
*MEAS_COND_AXIS_NAME_INTERNAL-17 "Filter"
*MEAS_COND_AXIS_NAME_INTERNAL-18 "ReceivingSlitBox1"
*MEAS_COND_AXIS_NAME_INTERNAL-19 "ReceivingSlitBox2"
*MEAS_COND_AXIS_NAME_INTERNAL-20 "ReceivingOptics"
*MEAS_COND_AXIS_NAME_INTERNAL-21 "ReceivingSollerSlit"
*MEAS_COND_AXIS_NAME_INTERNAL-22 "ReceivingAxdSlit"
*MEAS_COND_AXIS_NAME_INTERNAL-23 "ReceivingSlitBox1-_Axis"
*MEAS_COND_AXIS_NAME_INTERNAL-24 "ReceivingSlitBox2-_Axis"
*MEAS_COND_AXIS_NAME_INTERNAL-25 "ReceivingSlitBox2-Zd"
*MEAS_COND_AXIS_NAME_INTERNAL-26 "Attenuator"
*MEAS_COND_AXIS_NAME_INTERNAL-27 "CounterMonochromator"
*MEAS_COND_AXIS_NAME_INTERNAL-28 "CounterSlit"
*MEAS_COND_AXIS_NAME_INTERNAL-29 "IncidentPrimary"
*MEAS_COND_AXIS_NAME_INTERNAL-30 "PHA"
*MEAS_COND_AXIS_NAME_MAGICNO-0 "83951616.0000000000"
*MEAS_COND_AXIS_NAME_MAGICNO-1 "268632064.0000000000"
*MEAS_COND_AXIS_NAME_MAGICNO-2 "268500992.0000000000"
*MEAS_COND_AXIS_NAME_MAGICNO-3 "285278208.0000000000"
*MEAS_COND_AXIS_NAME_MAGICNO-4 "83951616.0000000000"
*MEAS_COND_AXIS_NAME_MAGICNO-5 "131072.0000000000"
*MEAS_COND_AXIS_NAME_MAGICNO-6 "131072.0000000000"
*MEAS_COND_AXIS_NAME_MAGICNO-7 "318898176.0000000000"
*MEAS_COND_AXIS_NAME_MAGICNO-8 "20971521.0000000000"
*MEAS_COND_AXIS_NAME_MAGICNO-9 "285343744.0000000000"
*MEAS_COND_AXIS_NAME_MAGICNO-10 "20971521.0000000000"
*MEAS_COND_AXIS_NAME_MAGICNO-11 "22020097.0000000000"
*MEAS_COND_AXIS_NAME_MAGICNO-12 "25165824.0000000000"
*MEAS_COND_AXIS_NAME_MAGICNO-13 "318898176.0000000000"
*MEAS_COND_AXIS_NAME_MAGICNO-14 "1.0000000000"
*MEAS_COND_AXIS_NAME_MAGICNO-15 "20971521.0000000000"
*MEAS_COND_AXIS_NAME_MAGICNO-16 "20971521.0000000000"
*MEAS_COND_AXIS_NAME_MAGICNO-17 "20971521.0000000000"
*MEAS_COND_AXIS_NAME_MAGICNO-18 "23068673.0000000000"
*MEAS_COND_AXIS_NAME_MAGICNO-19 "23068673.0000000000"
*MEAS_COND_AXIS_NAME_MAGICNO-20 "20971521.0000000000"
*MEAS_COND_AXIS_NAME_MAGICNO-21 "20971521.0000000000"
*MEAS_COND_AXIS_NAME_MAGICNO-22 "20971521.0000000000"
*MEAS_COND_AXIS_NAME_MAGICNO-23 "25165824.0000000000"
*MEAS_COND_AXIS_NAME_MAGICNO-24 "25165824.0000000000"
*MEAS_COND_AXIS_NAME_MAGICNO-25 "285343744.0000000000"
*MEAS_COND_AXIS_NAME_MAGICNO-26 "17301505.0000000000"
*MEAS_COND_AXIS_NAME_MAGICNO-27 "20971521.0000000000"
*MEAS_COND_AXIS_NAME_MAGICNO-28 "20971521.0000000000"
*MEAS_COND_AXIS_NAME_MAGICNO-29 "20971521.0000000000"
*MEAS_COND_AXIS_NAME_MAGICNO-30 "0.0000000000"
*MEAS_COND_AXIS_OFFSET-0 "-"
*MEAS_COND_AXIS_OFFSET-1 "-0.0801000000"
*MEAS_COND_AXIS_OFFSET-2 "0.2338000000"
*MEAS_COND_AXIS_OFFSET-3 "-"
*MEAS_COND_AXIS_OFFSET-4 "-"
*MEAS_COND_AXIS_OFFSET-5 "0.2338000000"
*MEAS_COND_AXIS_OFFSET-6 "-0.3139000000"
*MEAS_COND_AXIS_OFFSET-7 "-"
*MEAS_COND_AXIS_OFFSET-8 "-"
*MEAS_COND_AXIS_OFFSET-9 "-"
*MEAS_COND_AXIS_OFFSET-10 "-"
*MEAS_COND_AXIS_OFFSET-11 "-"
*MEAS_COND_AXIS_OFFSET-12 "-"
*MEAS_COND_AXIS_OFFSET-13 "-"
*MEAS_COND_AXIS_OFFSET-14 "-"
*MEAS_COND_AXIS_OFFSET-15 "-"
*MEAS_COND_AXIS_OFFSET-16 "-"
*MEAS_COND_AXIS_OFFSET-17 "-"
*MEAS_COND_AXIS_OFFSET-18 "-"
*MEAS_COND_AXIS_OFFSET-19 "-"
*MEAS_COND_AXIS_OFFSET-20 "-"
*MEAS_COND_AXIS_OFFSET-21 "-"
*MEAS_COND_AXIS_OFFSET-22 "-"
*MEAS_COND_AXIS_OFFSET-23 "-"
*MEAS_COND_AXIS_OFFSET-24 "-"
*MEAS_COND_AXIS_OFFSET-25 "-"
*MEAS_COND_AXIS_OFFSET-26 "-"
*MEAS_COND_AXIS_OFFSET-27 "-"
*MEAS_COND_AXIS_OFFSET-28 "-"
*MEAS_COND_AXIS_OFFSET-29 "-"
*MEAS_COND_AXIS_OFFSET-30 "-"
*MEAS_COND_AXIS_POSITION-0 "0.0000000000"
*MEAS_COND_AXIS_POSITION-1 "0.0000000000"
*MEAS_COND_AXIS_POSITION-2 "0.0000000000"
*MEAS_COND_AXIS_POSITION-3 "-2.9583600000"
*MEAS_COND_AXIS_POSITION-4 "0.0000000000"
*MEAS_COND_AXIS_POSITION-5 "0.0000000000"
*MEAS_COND_AXIS_POSITION-6 "0.0000000000"
*MEAS_COND_AXIS_POSITION-7 "-0.4278800000"
*MEAS_COND_AXIS_POSITION-8 "BB"
*MEAS_COND_AXIS_POSITION-9 "0.0000000000"
*MEAS_COND_AXIS_POSITION-10 "Soller_slit_5.0deg"
*MEAS_COND_AXIS_POSITION-11 "2/3deg"
*MEAS_COND_AXIS_POSITION-12 "2.2088000000"
*MEAS_COND_AXIS_POSITION-13 "-1.0609400000"
*MEAS_COND_AXIS_POSITION-14 "0.0000000000"
*MEAS_COND_AXIS_POSITION-15 "10.0mm"
*MEAS_COND_AXIS_POSITION-16 "None"
*MEAS_COND_AXIS_POSITION-17 "Cu_K-beta"
*MEAS_COND_AXIS_POSITION-18 "13.000mm"
*MEAS_COND_AXIS_POSITION-19 "13.000mm"
*MEAS_COND_AXIS_POSITION-20 "No_unit"
*MEAS_COND_AXIS_POSITION-21 "Soller_slit_5.0deg"
*MEAS_COND_AXIS_POSITION-22 "None"
*MEAS_COND_AXIS_POSITION-23 "13.0000000000"
*MEAS_COND_AXIS_POSITION-24 "13.0000000000"
*MEAS_COND_AXIS_POSITION-25 "0.0081300000"
*MEAS_COND_AXIS_POSITION-26 "Open"
*MEAS_COND_AXIS_POSITION-27 "None"
*MEAS_COND_AXIS_POSITION-28 "None"
*MEAS_COND_AXIS_POSITION-29 "None"
*MEAS_COND_AXIS_POSITION-30 "38.0000000000"
*MEAS_COND_AXIS_UNIT-0 "deg"
*MEAS_COND_AXIS_UNIT-1 "deg"
*MEAS_COND_AXIS_UNIT-2 "deg"
*MEAS_COND_AXIS_UNIT-3 "mm"
*MEAS_COND_AXIS_UNIT-4 "deg"
*MEAS_COND_AXIS_UNIT-5 "deg"
*MEAS_COND_AXIS_UNIT-6 "deg"
*MEAS_COND_AXIS_UNIT-7 "mm"
*MEAS_COND_AXIS_UNIT-8 ""
*MEAS_COND_AXIS_UNIT-9 "pulse"
*MEAS_COND_AXIS_UNIT-10 ""
*MEAS_COND_AXIS_UNIT-11 ""
*MEAS_COND_AXIS_UNIT-12 "mm"
*MEAS_COND_AXIS_UNIT-13 "mm"
*MEAS_COND_AXIS_UNIT-14 ""
*MEAS_COND_AXIS_UNIT-15 ""
*MEAS_COND_AXIS_UNIT-16 ""
*MEAS_COND_AXIS_UNIT-17 ""
*MEAS_COND_AXIS_UNIT-18 ""
*MEAS_COND_AXIS_UNIT-19 ""
*MEAS_COND_AXIS_UNIT-20 ""
*MEAS_COND_AXIS_UNIT-21 ""
*MEAS_COND_AXIS_UNIT-22 ""
*MEAS_COND_AXIS_UNIT-23 "mm"
*MEAS_COND_AXIS_UNIT-24 "mm"
*MEAS_COND_AXIS_UNIT-25 "mm"
*MEAS_COND_AXIS_UNIT-26 ""
*MEAS_COND_AXIS_UNIT-27 ""
*MEAS_COND_AXIS_UNIT-28 ""
*MEAS_COND_AXIS_UNIT-29 ""
*MEAS_COND_AXIS_UNIT-30 "div"
*MEAS_COND_COUNTER_CNTLOSS_CORR "0.0000000000"
*MEAS_COND_COUNTER_PHABASE "38.0000000000"
*MEAS_COND_COUNTER_PHAWINDOW "16.0000000000"
*MEAS_COND_COUNTER_PHA_UNIT "div"
*MEAS_COND_COUNTER_TAUDIFF "30.0000000000"
*MEAS_COND_COUNTER_TAUINT "0.0000000000"
*MEAS_COND_IRRADIATION_MODE "OFF"
*MEAS_COND_IRRADIATION_WIDTH ""
*MEAS_COND_OPT_ATTR "集中法"
*MEAS_COND_OPT_NAME "@集中法"
*MEAS_COND_UNSYMMETRIC_MODE "OFF"
*MEAS_COND_XG_CURRENT "30.0000000000"
*MEAS_COND_XG_VOLTAGE "40.0000000000"
*MEAS_COND_XG_WAVE_TYPE "Ka"
*MEAS_DATA_COUNT "5001.0000000000"
*MEAS_SCAN_AXIS_X "2θ/θ"
*MEAS_SCAN_AXIS_X_INTERNAL "TwoThetaTheta"
*MEAS_SCAN_END_TIME "08/06/22 14:11:32"
*MEAS_SCAN_MODE "CONTINUOUS"
*MEAS_SCAN_MONITOR "0"
*MEAS_SCAN_RESOLUTION_X "0.0002"
*MEAS_SCAN_SPEED "2.5"
*MEAS_SCAN_SPEED_UNIT "deg/min"
*MEAS_SCAN_START "20.0000000000"
*MEAS_SCAN_START_TIME "08/06/22 13:50:07"
*MEAS_SCAN_STEP "0.0100000000"
*MEAS_SCAN_STOP "70.0000000000"
*MEAS_SCAN_UNIT_X "deg"
*MEAS_SCAN_UNIT_Y "counts"
*RAS_HEADER_END
*RAS_INT_START
20.0000 1016.0000 1.0000
20.0100 933.0000 1.0000
20.0200 900.0000 1.0000
20.0300 934.0000 1.0000
20.0400 942.0000 1.0000
20.0500 941.0000 1.0000
20.0600 924.0000 1.0000
20.0700 946.0000 1.0000
20.0800 978.0000 1.0000
20.0900 944.0000 1.0000
20.1000 942.0000 1.0000
20.1100 937.0000 1.0000
20.1200 949.0000 1.0000
20.1300 985.0000 1.0000
20.1400 954.0000 1.0000
20.1500 973.0000 1.0000
20.1600 944.0000 1.0000
20.1700 972.0000 1.0000
20.1800 957.0000 1.0000
20.1900 894.0000 1.0000
20.2000 934.0000 1.0000
20.2100 924.0000 1.0000
20.2200 935.0000 1.0000
20.2300 950.0000 1.0000
20.2400 982.0000 1.0000
20.2500 914.0000 1.0000
20.2600 971.0000 1.0000
20.2700 926.0000 1.0000
20.2800 948.0000 1.0000
20.2900 930.0000 1.0000
20.3000 891.0000 1.0000
20.3100 901.0000 1.0000
20.3200 913.0000 1.0000
20.3300 853.0000 1.0000
20.3400 916.0000 1.0000
20.3500 964.0000 1.0000
20.3600 916.0000 1.0000
20.3700 895.0000 1.0000
20.3800 912.0000 1.0000
20.3900 947.0000 1.0000
20.4000 957.0000 1.0000
20.4100 911.0000 1.0000
20.4200 933.0000 1.0000
20.4300 891.0000 1.0000
20.4400 919.0000 1.0000
20.4500 899.0000 1.0000
20.4600 915.0000 1.0000
20.4700 907.0000 1.0000
20.4800 902.0000 1.0000
20.4900 941.0000 1.0000
20.5000 921.0000 1.0000
20.5100 989.0000 1.0000
20.5200 920.0000 1.0000
20.5300 930.0000 1.0000
20.5400 952.0000 1.0000
20.5500 922.0000 1.0000
20.5600 948.0000 1.0000
20.5700 907.0000 1.0000
20.5800 965.0000 1.0000
20.5900 981.0000 1.0000
20.6000 946.0000 1.0000
20.6100 927.0000 1.0000
20.6200 888.0000 1.0000
20.6300 978.0000 1.0000
20.6400 923.0000 1.0000
20.6500 928.0000 1.0000
20.6600 925.0000 1.0000
20.6700 944.0000 1.0000
20.6800 904.0000 1.0000
20.6900 954.0000 1.0000
20.7000 935.0000 1.0000
20.7100 954.0000 1.0000
20.7200 912.0000 1.0000
20.7300 948.0000 1.0000
20.7400 950.0000 1.0000
20.7500 955.0000 1.0000
20.7600 934.0000 1.0000
20.7700 950.0000 1.0000
20.7800 944.0000 1.0000
20.7900 937.0000 1.0000
20.8000 945.0000 1.0000
20.8100 957.0000 1.0000
20.8200 932.0000 1.0000
20.8300 926.0000 1.0000
20.8400 962.0000 1.0000
20.8500 914.0000 1.0000
20.8600 958.0000 1.0000
20.8700 954.0000 1.0000
20.8800 949.0000 1.0000
20.8900 950.0000 1.0000
20.9000 883.0000 1.0000
20.9100 911.0000 1.0000
20.9200 911.0000 1.0000
20.9300 931.0000 1.0000
20.9400 904.0000 1.0000
20.9500 893.0000 1.0000
20.9600 965.0000 1.0000
20.9700 943.0000 1.0000
20.9800 960.0000 1.0000
20.9900 935.0000 1.0000
21.0000 946.0000 1.0000
21.0100 927.0000 1.0000
21.0200 932.0000 1.0000
21.0300 871.0000 1.0000
21.0400 914.0000 1.0000
21.0500 946.0000 1.0000
21.0600 919.0000 1.0000
21.0700 903.0000 1.0000
21.0800 990.0000 1.0000
21.0900 1004.0000 1.0000
21.1000 938.0000 1.0000
21.1100 881.0000 1.0000
21.1200 924.0000 1.0000
21.1300 954.0000 1.0000
21.1400 904.0000 1.0000
21.1500 884.0000 1.0000
21.1600 923.0000 1.0000
21.1700 940.0000 1.0000
21.1800 924.0000 1.0000
21.1900 900.0000 1.0000
21.2000 886.0000 1.0000
21.2100 922.0000 1.0000
21.2200 916.0000 1.0000
21.2300 893.0000 1.0000
21.2400 948.0000 1.0000
21.2500 873.0000 1.0000
21.2600 882.0000 1.0000
21.2700 908.0000 1.0000
21.2800 973.0000 1.0000
21.2900 929.0000 1.0000
21.3000 927.0000 1.0000
21.3100 956.0000 1.0000
21.3200 938.0000 1.0000
21.3300 965.0000 1.0000
21.3400 906.0000 1.0000
21.3500 913.0000 1.0000
21.3600 911.0000 1.0000
21.3700 922.0000 1.0000
21.3800 977.0000 1.0000
21.3900 952.0000 1.0000
21.4000 898.0000 1.0000
21.4100 928.0000 1.0000
21.4200 906.0000 1.0000
21.4300 906.0000 1.0000
21.4400 985.0000 1.0000
21.4500 950.0000 1.0000
21.4600 921.0000 1.0000
21.4700 930.0000 1.0000
21.4800 963.0000 1.0000
21.4900 957.0000 1.0000
21.5000 955.0000 1.0000
21.5100 956.0000 1.0000
21.5200 990.0000 1.0000
21.5300 929.0000 1.0000
21.5400 928.0000 1.0000
21.5500 896.0000 1.0000
21.5600 907.0000 1.0000
21.5700 925.0000 1.0000
21.5800 892.0000 1.0000
21.5900 880.0000 1.0000
21.6000 887.0000 1.0000
21.6100 923.0000 1.0000
21.6200 942.0000 1.0000
21.6300 987.0000 1.0000
21.6400 939.0000 1.0000
21.6500 910.0000 1.0000
21.6600 980.0000 1.0000
21.6700 957.0000 1.0000
21.6800 931.0000 1.0000
21.6900 911.0000 1.0000
21.7000 924.0000 1.0000
21.7100 906.0000 1.0000
21.7200 923.0000 1.0000
21.7300 908.0000 1.0000
21.7400 935.0000 1.0000
21.7500 941.0000 1.0000
21.7600 877.0000 1.0000
21.7700 920.0000 1.0000
21.7800 923.0000 1.0000
21.7900 935.0000 1.0000
21.8000 909.0000 1.0000
21.8100 880.0000 1.0000
21.8200 919.0000 1.0000
21.8300 901.0000 1.0000
21.8400 943.0000 1.0000
21.8500 953.0000 1.0000
21.8600 866.0000 1.0000
21.8700 892.0000 1.0000
21.8800 957.0000 1.0000
21.8900 892.0000 1.0000
21.9000 932.0000 1.0000
21.9100 924.0000 1.0000
21.9200 978.0000 1.0000
21.9300 941.0000 1.0000
21.9400 955.0000 1.0000
21.9500 910.0000 1.0000
21.9600 868.0000 1.0000
21.9700 904.0000 1.0000
21.9800 915.0000 1.0000
21.9900 905.0000 1.0000
22.0000 876.0000 1.0000
22.0100 952.0000 1.0000
22.0200 893.0000 1.0000
22.0300 900.0000 1.0000
22.0400 862.0000 1.0000
22.0500 944.0000 1.0000
22.0600 928.0000 1.0000
22.0700 966.0000 1.0000
22.0800 884.0000 1.0000
22.0900 933.0000 1.0000
22.1000 891.0000 1.0000
22.1100 930.0000 1.0000
22.1200 918.0000 1.0000
22.1300 899.0000 1.0000
22.1400 949.0000 1.0000
22.1500 906.0000 1.0000
22.1600 897.0000 1.0000
22.1700 889.0000 1.0000
22.1800 908.0000 1.0000
22.1900 927.0000 1.0000
22.2000 900.0000 1.0000
22.2100 919.0000 1.0000
22.2200 953.0000 1.0000
22.2300 929.0000 1.0000
22.2400 854.0000 1.0000
22.2500 898.0000 1.0000
22.2600 923.0000 1.0000
22.2700 935.0000 1.0000
22.2800 936.0000 1.0000
22.2900 912.0000 1.0000
22.3000 957.0000 1.0000
22.3100 941.0000 1.0000
22.3200 871.0000 1.0000
22.3300 898.0000 1.0000
22.3400 877.0000 1.0000
22.3500 918.0000 1.0000
22.3600 947.0000 1.0000
22.3700 904.0000 1.0000
22.3800 907.0000 1.0000
22.3900 898.0000 1.0000
22.4000 948.0000 1.0000
22.4100 890.0000 1.0000
22.4200 948.0000 1.0000
22.4300 888.0000 1.0000
22.4400 922.0000 1.0000
22.4500 949.0000 1.0000
22.4600 937.0000 1.0000
22.4700 897.0000 1.0000
22.4800 906.0000 1.0000
22.4900 892.0000 1.0000
22.5000 900.0000 1.0000
22.5100 932.0000 1.0000
22.5200 897.0000 1.0000
22.5300 890.0000 1.0000
22.5400 912.0000 1.0000
22.5500 924.0000 1.0000
22.5600 931.0000 1.0000
22.5700 913.0000 1.0000
22.5800 866.0000 1.0000
22.5900 935.0000 1.0000
22.6000 947.0000 1.0000
22.6100 931.0000 1.0000
22.6200 948.0000 1.0000
22.6300 946.0000 1.0000
22.6400 924.0000 1.0000
22.6500 902.0000 1.0000
22.6600 931.0000 1.0000
22.6700 931.0000 1.0000
22.6800 856.0000 1.0000
22.6900 893.0000 1.0000
22.7000 908.0000 1.0000
22.7100 891.0000 1.0000
22.7200 909.0000 1.0000
22.7300 930.0000 1.0000
22.7400 883.0000 1.0000
22.7500 944.0000 1.0000
22.7600 912.0000 1.0000
22.7700 889.0000 1.0000
22.7800 889.0000 1.0000
22.7900 914.0000 1.0000
22.8000 882.0000 1.0000
22.8100 878.0000 1.0000
22.8200 870.0000 1.0000
22.8300 920.0000 1.0000
22.8400 889.0000 1.0000
22.8500 871.0000 1.0000
22.8600 902.0000 1.0000
22.8700 914.0000 1.0000
22.8800 879.0000 1.0000
22.8900 891.0000 1.0000
22.9000 935.0000 1.0000
22.9100 924.0000 1.0000
22.9200 942.0000 1.0000
22.9300 936.0000 1.0000
22.9400 899.0000 1.0000
22.9500 899.0000 1.0000
22.9600 913.0000 1.0000
22.9700 966.0000 1.0000
22.9800 913.0000 1.0000
22.9900 901.0000 1.0000
23.0000 854.0000 1.0000
23.0100 901.0000 1.0000
23.0200 879.0000 1.0000
23.0300 881.0000 1.0000
23.0400 839.0000 1.0000
23.0500 881.0000 1.0000
23.0600 881.0000 1.0000
23.0700 904.0000 1.0000
23.0800 912.0000 1.0000
23.0900 936.0000 1.0000
23.1000 893.0000 1.0000
23.1100 890.0000 1.0000
23.1200 875.0000 1.0000
23.1300 873.0000 1.0000
23.1400 913.0000 1.0000
23.1500 921.0000 1.0000
23.1600 869.0000 1.0000
23.1700 919.0000 1.0000
23.1800 931.0000 1.0000
23.1900 936.0000 1.0000
23.2000 918.0000 1.0000
23.2100 917.0000 1.0000
23.2200 860.0000 1.0000
23.2300 903.0000 1.0000
23.2400 887.0000 1.0000
23.2500 928.0000 1.0000
23.2600 927.0000 1.0000
23.2700 878.0000 1.0000
23.2800 882.0000 1.0000
23.2900 932.0000 1.0000
23.3000 906.0000 1.0000
23.3100 886.0000 1.0000
23.3200 918.0000 1.0000
23.3300 933.0000 1.0000
23.3400 935.0000 1.0000
23.3500 891.0000 1.0000
23.3600 889.0000 1.0000
23.3700 886.0000 1.0000
23.3800 917.0000 1.0000
23.3900 941.0000 1.0000
23.4000 908.0000 1.0000
23.4100 897.0000 1.0000
23.4200 879.0000 1.0000
23.4300 942.0000 1.0000
23.4400 854.0000 1.0000
23.4500 909.0000 1.0000
23.4600 925.0000 1.0000
23.4700 917.0000 1.0000
23.4800 878.0000 1.0000
23.4900 910.0000 1.0000
23.5000 882.0000 1.0000
23.5100 859.0000 1.0000
23.5200 868.0000 1.0000
23.5300 913.0000 1.0000
23.5400 858.0000 1.0000
23.5500 869.0000 1.0000
23.5600 912.0000 1.0000
23.5700 921.0000 1.0000
23.5800 874.0000 1.0000
23.5900 918.0000 1.0000
23.6000 879.0000 1.0000
23.6100 921.0000 1.0000
23.6200 884.0000 1.0000
23.6300 893.0000 1.0000
23.6400 897.0000 1.0000
23.6500 895.0000 1.0000
23.6600 889.0000 1.0000
23.6700 879.0000 1.0000
23.6800 935.0000 1.0000
23.6900 910.0000 1.0000
23.7000 914.0000 1.0000
23.7100 916.0000 1.0000
23.7200 927.0000 1.0000
23.7300 923.0000 1.0000
23.7400 893.0000 1.0000
23.7500 876.0000 1.0000
23.7600 910.0000 1.0000
23.7700 878.0000 1.0000
23.7800 873.0000 1.0000
23.7900 924.0000 1.0000
23.8000 940.0000 1.0000
23.8100 943.0000 1.0000
23.8200 935.0000 1.0000
23.8300 858.0000 1.0000
23.8400 905.0000 1.0000
23.8500 908.0000 1.0000
23.8600 901.0000 1.0000
23.8700 930.0000 1.0000
23.8800 940.0000 1.0000
23.8900 929.0000 1.0000
23.9000 948.0000 1.0000
23.9100 972.0000 1.0000
23.9200 928.0000 1.0000
23.9300 936.0000 1.0000
23.9400 959.0000 1.0000
23.9500 948.0000 1.0000
23.9600 929.0000 1.0000
23.9700 948.0000 1.0000
23.9800 974.0000 1.0000
23.9900 977.0000 1.0000
24.0000 961.0000 1.0000
24.0100 947.0000 1.0000
24.0200 998.0000 1.0000
24.0300 936.0000 1.0000
24.0400 984.0000 1.0000
24.0500 969.0000 1.0000
24.0600 1007.0000 1.0000
24.0700 1040.0000 1.0000
24.0800 950.0000 1.0000
24.0900 998.0000 1.0000
24.1000 991.0000 1.0000
24.1100 982.0000 1.0000
24.1200 973.0000 1.0000
24.1300 953.0000 1.0000
24.1400 943.0000 1.0000
24.1500 937.0000 1.0000
24.1600 874.0000 1.0000
24.1700 949.0000 1.0000
24.1800 962.0000 1.0000
24.1900 965.0000 1.0000
24.2000 945.0000 1.0000
24.2100 928.0000 1.0000
24.2200 954.0000 1.0000
24.2300 923.0000 1.0000
24.2400 912.0000 1.0000
24.2500 961.0000 1.0000
24.2600 944.0000 1.0000
24.2700 929.0000 1.0000
24.2800 951.0000 1.0000
24.2900 880.0000 1.0000
24.3000 945.0000 1.0000
24.3100 891.0000 1.0000
24.3200 932.0000 1.0000
24.3300 952.0000 1.0000
24.3400 896.0000 1.0000
24.3500 877.0000 1.0000
24.3600 896.0000 1.0000
24.3700 881.0000 1.0000
24.3800 953.0000 1.0000
24.3900 932.0000 1.0000
24.4000 916.0000 1.0000
24.4100 884.0000 1.0000
24.4200 907.0000 1.0000
24.4300 899.0000 1.0000
24.4400 887.0000 1.0000
24.4500 916.0000 1.0000
24.4600 857.0000 1.0000
24.4700 936.0000 1.0000
24.4800 894.0000 1.0000
24.4900 851.0000 1.0000
24.5000 827.0000 1.0000
24.5100 854.0000 1.0000
24.5200 910.0000 1.0000
24.5300 895.0000 1.0000
24.5400 884.0000 1.0000
24.5500 867.0000 1.0000
24.5600 912.0000 1.0000
24.5700 893.0000 1.0000
24.5800 849.0000 1.0000
24.5900 893.0000 1.0000
24.6000 868.0000 1.0000
24.6100 899.0000 1.0000
24.6200 857.0000 1.0000
24.6300 873.0000 1.0000
24.6400 873.0000 1.0000
24.6500 899.0000 1.0000
24.6600 912.0000 1.0000
24.6700 878.0000 1.0000
24.6800 866.0000 1.0000
24.6900 874.0000 1.0000
24.7000 921.0000 1.0000
24.7100 885.0000 1.0000
24.7200 900.0000 1.0000
24.7300 914.0000 1.0000
24.7400 853.0000 1.0000
24.7500 901.0000 1.0000
24.7600 881.0000 1.0000
24.7700 819.0000 1.0000
24.7800 901.0000 1.0000
24.7900 904.0000 1.0000
24.8000 904.0000 1.0000
24.8100 869.0000 1.0000
24.8200 870.0000 1.0000
24.8300 884.0000 1.0000
24.8400 894.0000 1.0000
24.8500 838.0000 1.0000
24.8600 874.0000 1.0000
24.8700 880.0000 1.0000
24.8800 835.0000 1.0000
24.8900 898.0000 1.0000
24.9000 855.0000 1.0000
24.9100 852.0000 1.0000
24.9200 888.0000 1.0000
24.9300 840.0000 1.0000
24.9400 859.0000 1.0000
24.9500 877.0000 1.0000
24.9600 864.0000 1.0000
24.9700 887.0000 1.0000
24.9800 933.0000 1.0000
24.9900 880.0000 1.0000
25.0000 912.0000 1.0000
25.0100 854.0000 1.0000
25.0200 863.0000 1.0000
25.0300 864.0000 1.0000
25.0400 870.0000 1.0000
25.0500 927.0000 1.0000
25.0600 860.0000 1.0000
25.0700 876.0000 1.0000
25.0800 875.0000 1.0000
25.0900 843.0000 1.0000
25.1000 820.0000 1.0000
25.1100 871.0000 1.0000
25.1200 876.0000 1.0000
25.1300 889.0000 1.0000
25.1400 875.0000 1.0000
25.1500 897.0000 1.0000
25.1600 900.0000 1.0000
25.1700 861.0000 1.0000
25.1800 845.0000 1.0000
25.1900 841.0000 1.0000
25.2000 880.0000 1.0000
25.2100 894.0000 1.0000
25.2200 860.0000 1.0000
25.2300 844.0000 1.0000
25.2400 873.0000 1.0000
25.2500 853.0000 1.0000
25.2600 832.0000 1.0000
25.2700 901.0000 1.0000
25.2800 854.0000 1.0000
25.2900 875.0000 1.0000
25.3000 873.0000 1.0000
25.3100 910.0000 1.0000
25.3200 879.0000 1.0000
25.3300 887.0000 1.0000
25.3400 853.0000 1.0000
25.3500 911.0000 1.0000
25.3600 925.0000 1.0000
25.3700 864.0000 1.0000
25.3800 834.0000 1.0000
25.3900 833.0000 1.0000
25.4000 896.0000 1.0000
25.4100 892.0000 1.0000
25.4200 833.0000 1.0000
25.4300 873.0000 1.0000
25.4400 860.0000 1.0000
25.4500 847.0000 1.0000
25.4600 898.0000 1.0000
25.4700 874.0000 1.0000
25.4800 890.0000 1.0000
25.4900 857.0000 1.0000
25.5000 885.0000 1.0000
25.5100 882.0000 1.0000
25.5200 897.0000 1.0000
25.5300 889.0000 1.0000
25.5400 896.0000 1.0000
25.5500 846.0000 1.0000
25.5600 857.0000 1.0000
25.5700 844.0000 1.0000
25.5800 872.0000 1.0000
25.5900 935.0000 1.0000
25.6000 891.0000 1.0000
25.6100 893.0000 1.0000
25.6200 847.0000 1.0000
25.6300 930.0000 1.0000
25.6400 918.0000 1.0000
25.6500 836.0000 1.0000
25.6600 902.0000 1.0000
25.6700 917.0000 1.0000
25.6800 918.0000 1.0000
25.6900 956.0000 1.0000
25.7000 928.0000 1.0000
25.7100 915.0000 1.0000
25.7200 911.0000 1.0000
25.7300 899.0000 1.0000
25.7400 876.0000 1.0000
25.7500 886.0000 1.0000
25.7600 851.0000 1.0000
25.7700 911.0000 1.0000
25.7800 902.0000 1.0000
25.7900 969.0000 1.0000
25.8000 955.0000 1.0000
25.8100 909.0000 1.0000
25.8200 914.0000 1.0000
25.8300 892.0000 1.0000
25.8400 915.0000 1.0000
25.8500 944.0000 1.0000
25.8600 949.0000 1.0000
25.8700 919.0000 1.0000
25.8800 908.0000 1.0000
25.8900 953.0000 1.0000
25.9000 930.0000 1.0000
25.9100 956.0000 1.0000
25.9200 901.0000 1.0000
25.9300 904.0000 1.0000
25.9400 974.0000 1.0000
25.9500 906.0000 1.0000
25.9600 922.0000 1.0000
25.9700 966.0000 1.0000
25.9800 931.0000 1.0000
25.9900 976.0000 1.0000
26.0000 908.0000 1.0000
26.0100 945.0000 1.0000
26.0200 953.0000 1.0000
26.0300 957.0000 1.0000
26.0400 909.0000 1.0000
26.0500 948.0000 1.0000
26.0600 997.0000 1.0000
26.0700 977.0000 1.0000
26.0800 977.0000 1.0000
26.0900 1021.0000 1.0000
26.1000 1022.0000 1.0000
26.1100 959.0000 1.0000
26.1200 1087.0000 1.0000
26.1300 1048.0000 1.0000
26.1400 1080.0000 1.0000
26.1500 1081.0000 1.0000
26.1600 1150.0000 1.0000
26.1700 1169.0000 1.0000
26.1800 1202.0000 1.0000
26.1900 1269.0000 1.0000
26.2000 1209.0000 1.0000
26.2100 1259.0000 1.0000
26.2200 1297.0000 1.0000
26.2300 1327.0000 1.0000
26.2400 1383.0000 1.0000
26.2500 1492.0000 1.0000
26.2600 1425.0000 1.0000
26.2700 1528.0000 1.0000
26.2800 1565.0000 1.0000
26.2900 1611.0000 1.0000
26.3000 1744.0000 1.0000
26.3100 1789.0000 1.0000
26.3200 1877.0000 1.0000
26.3300 2014.0000 1.0000
26.3400 2072.0000 1.0000
26.3500 2168.0000 1.0000
26.3600 2340.0000 1.0000
26.3700 2401.0000 1.0000
26.3800 2621.0000 1.0000
26.3900 2694.0000 1.0000
26.4000 2806.0000 1.0000
26.4100 2953.0000 1.0000
26.4200 2992.0000 1.0000
26.4300 3090.0000 1.0000
26.4400 3106.0000 1.0000
26.4500 3074.0000 1.0000
26.4600 3019.0000 1.0000
26.4700 2943.0000 1.0000
26.4800 2872.0000 1.0000
26.4900 2744.0000 1.0000
26.5000 2719.0000 1.0000
26.5100 2603.0000 1.0000
26.5200 2449.0000 1.0000
26.5300 2381.0000 1.0000
26.5400 2239.0000 1.0000
26.5500 2156.0000 1.0000
26.5600 1947.0000 1.0000
26.5700 1854.0000 1.0000
26.5800 1705.0000 1.0000
26.5900 1724.0000 1.0000
26.6000 1618.0000 1.0000
26.6100 1525.0000 1.0000
26.6200 1481.0000 1.0000
26.6300 1405.0000 1.0000
26.6400 1395.0000 1.0000
26.6500 1380.0000 1.0000
26.6600 1307.0000 1.0000
26.6700 1302.0000 1.0000
26.6800 1240.0000 1.0000
26.6900 1180.0000 1.0000
26.7000 1180.0000 1.0000
26.7100 1128.0000 1.0000
26.7200 1136.0000 1.0000
26.7300 1138.0000 1.0000
26.7400 1097.0000 1.0000
26.7500 1032.0000 1.0000
26.7600 1031.0000 1.0000
26.7700 998.0000 1.0000
26.7800 1020.0000 1.0000
26.7900 959.0000 1.0000
26.8000 995.0000 1.0000
26.8100 964.0000 1.0000
26.8200 965.0000 1.0000
26.8300 910.0000 1.0000
26.8400 903.0000 1.0000
26.8500 917.0000 1.0000
26.8600 962.0000 1.0000
26.8700 911.0000 1.0000
26.8800 943.0000 1.0000
26.8900 924.0000 1.0000
26.9000 909.0000 1.0000
26.9100 951.0000 1.0000
26.9200 894.0000 1.0000
26.9300 955.0000 1.0000
26.9400 883.0000 1.0000
26.9500 896.0000 1.0000
26.9600 890.0000 1.0000
26.9700 900.0000 1.0000
26.9800 834.0000 1.0000
26.9900 863.0000 1.0000
27.0000 909.0000 1.0000
27.0100 963.0000 1.0000
27.0200 873.0000 1.0000
27.0300 893.0000 1.0000
27.0400 871.0000 1.0000
27.0500 893.0000 1.0000
27.0600 840.0000 1.0000
27.0700 869.0000 1.0000
27.0800 812.0000 1.0000
27.0900 842.0000 1.0000
27.1000 866.0000 1.0000
27.1100 863.0000 1.0000
27.1200 783.0000 1.0000
27.1300 841.0000 1.0000
27.1400 858.0000 1.0000
27.1500 821.0000 1.0000
27.1600 836.0000 1.0000
27.1700 842.0000 1.0000
27.1800 812.0000 1.0000
27.1900 829.0000 1.0000
27.2000 881.0000 1.0000
27.2100 847.0000 1.0000
27.2200 864.0000 1.0000
27.2300 834.0000 1.0000
27.2400 821.0000 1.0000
27.2500 799.0000 1.0000
27.2600 842.0000 1.0000
27.2700 850.0000 1.0000
27.2800 825.0000 1.0000
27.2900 828.0000 1.0000
27.3000 838.0000 1.0000
27.3100 824.0000 1.0000
27.3200 804.0000 1.0000
27.3300 792.0000 1.0000
27.3400 817.0000 1.0000
27.3500 864.0000 1.0000
27.3600 839.0000 1.0000
27.3700 838.0000 1.0000
27.3800 805.0000 1.0000
27.3900 778.0000 1.0000
27.4000 826.0000 1.0000
27.4100 826.0000 1.0000
27.4200 830.0000 1.0000
27.4300 846.0000 1.0000
27.4400 782.0000 1.0000
27.4500 799.0000 1.0000
27.4600 798.0000 1.0000
27.4700 817.0000 1.0000
27.4800 813.0000 1.0000
27.4900 801.0000 1.0000
27.5000 785.0000 1.0000
27.5100 767.0000 1.0000
27.5200 837.0000 1.0000
27.5300 816.0000 1.0000
27.5400 828.0000 1.0000
27.5500 800.0000 1.0000
27.5600 798.0000 1.0000
27.5700 828.0000 1.0000
27.5800 803.0000 1.0000
27.5900 792.0000 1.0000
27.6000 782.0000 1.0000
27.6100 765.0000 1.0000
27.6200 803.0000 1.0000
27.6300 791.0000 1.0000
27.6400 784.0000 1.0000
27.6500 803.0000 1.0000
27.6600 815.0000 1.0000
27.6700 818.0000 1.0000
27.6800 780.0000 1.0000
27.6900 804.0000 1.0000
27.7000 806.0000 1.0000
27.7100 770.0000 1.0000
27.7200 750.0000 1.0000
27.7300 768.0000 1.0000
27.7400 763.0000 1.0000
27.7500 750.0000 1.0000
27.7600 787.0000 1.0000
27.7700 825.0000 1.0000
27.7800 773.0000 1.0000
27.7900 798.0000 1.0000
27.8000 824.0000 1.0000
27.8100 767.0000 1.0000
27.8200 763.0000 1.0000
27.8300 744.0000 1.0000
27.8400 801.0000 1.0000
27.8500 820.0000 1.0000
27.8600 779.0000 1.0000
27.8700 802.0000 1.0000
27.8800 778.0000 1.0000
27.8900 775.0000 1.0000
27.9000 786.0000 1.0000
27.9100 736.0000 1.0000
27.9200 718.0000 1.0000
27.9300 774.0000 1.0000
27.9400 780.0000 1.0000
27.9500 814.0000 1.0000
27.9600 806.0000 1.0000
27.9700 802.0000 1.0000
27.9800 770.0000 1.0000
27.9900 788.0000 1.0000
28.0000 786.0000 1.0000
28.0100 769.0000 1.0000
28.0200 726.0000 1.0000
28.0300 750.0000 1.0000
28.0400 799.0000 1.0000
28.0500 779.0000 1.0000
28.0600 737.0000 1.0000
28.0700 811.0000 1.0000
28.0800 785.0000 1.0000
28.0900 825.0000 1.0000
28.1000 779.0000 1.0000
28.1100 799.0000 1.0000
28.1200 789.0000 1.0000
28.1300 749.0000 1.0000
28.1400 760.0000 1.0000
28.1500 791.0000 1.0000
28.1600 756.0000 1.0000
28.1700 756.0000 1.0000
28.1800 775.0000 1.0000
28.1900 759.0000 1.0000
28.2000 742.0000 1.0000
28.2100 775.0000 1.0000
28.2200 713.0000 1.0000
28.2300 733.0000 1.0000
28.2400 798.0000 1.0000
28.2500 746.0000 1.0000
28.2600 732.0000 1.0000
28.2700 737.0000 1.0000
28.2800 742.0000 1.0000
28.2900 780.0000 1.0000
28.3000 765.0000 1.0000
28.3100 758.0000 1.0000
28.3200 760.0000 1.0000
28.3300 758.0000 1.0000
28.3400 794.0000 1.0000
28.3500 736.0000 1.0000
28.3600 739.0000 1.0000
28.3700 743.0000 1.0000
28.3800 771.0000 1.0000
28.3900 735.0000 1.0000
28.4000 743.0000 1.0000
28.4100 775.0000 1.0000
28.4200 764.0000 1.0000
28.4300 777.0000 1.0000
28.4400 799.0000 1.0000
28.4500 739.0000 1.0000
28.4600 770.0000 1.0000
28.4700 738.0000 1.0000
28.4800 711.0000 1.0000
28.4900 768.0000 1.0000
28.5000 751.0000 1.0000
28.5100 767.0000 1.0000
28.5200 751.0000 1.0000
28.5300 746.0000 1.0000
28.5400 766.0000 1.0000
28.5500 758.0000 1.0000
28.5600 760.0000 1.0000
28.5700 804.0000 1.0000
28.5800 736.0000 1.0000
28.5900 729.0000 1.0000
28.6000 723.0000 1.0000
28.6100 744.0000 1.0000
28.6200 741.0000 1.0000
28.6300 722.0000 1.0000
28.6400 690.0000 1.0000
28.6500 712.0000 1.0000
28.6600 744.0000 1.0000
28.6700 709.0000 1.0000
28.6800 737.0000 1.0000
28.6900 772.0000 1.0000
28.7000 717.0000 1.0000
28.7100 746.0000 1.0000
28.7200 761.0000 1.0000
28.7300 737.0000 1.0000
28.7400 687.0000 1.0000
28.7500 757.0000 1.0000
28.7600 697.0000 1.0000
28.7700 731.0000 1.0000
28.7800 722.0000 1.0000
28.7900 803.0000 1.0000
28.8000 743.0000 1.0000
28.8100 754.0000 1.0000
28.8200 730.0000 1.0000
28.8300 737.0000 1.0000
28.8400 731.0000 1.0000
28.8500 755.0000 1.0000
28.8600 736.0000 1.0000
28.8700 739.0000 1.0000
28.8800 724.0000 1.0000
28.8900 713.0000 1.0000
28.9000 717.0000 1.0000
28.9100 733.0000 1.0000
28.9200 743.0000 1.0000
28.9300 743.0000 1.0000
28.9400 752.0000 1.0000
28.9500 722.0000 1.0000
28.9600 732.0000 1.0000
28.9700 758.0000 1.0000
28.9800 688.0000 1.0000
28.9900 769.0000 1.0000
29.0000 787.0000 1.0000
29.0100 716.0000 1.0000
29.0200 763.0000 1.0000
29.0300 787.0000 1.0000
29.0400 770.0000 1.0000
29.0500 736.0000 1.0000
29.0600 747.0000 1.0000
29.0700 747.0000 1.0000
29.0800 728.0000 1.0000
29.0900 756.0000 1.0000
29.1000 733.0000 1.0000
29.1100 743.0000 1.0000
29.1200 714.0000 1.0000
29.1300 730.0000 1.0000
29.1400 703.0000 1.0000
29.1500 728.0000 1.0000
29.1600 767.0000 1.0000
29.1700 771.0000 1.0000
29.1800 730.0000 1.0000
29.1900 792.0000 1.0000
29.2000 754.0000 1.0000
29.2100 759.0000 1.0000
29.2200 718.0000 1.0000
29.2300 745.0000 1.0000
29.2400 694.0000 1.0000
29.2500 760.0000 1.0000
29.2600 731.0000 1.0000
29.2700 706.0000 1.0000
29.2800 727.0000 1.0000
29.2900 726.0000 1.0000
29.3000 697.0000 1.0000
29.3100 779.0000 1.0000
29.3200 763.0000 1.0000
29.3300 721.0000 1.0000
29.3400 713.0000 1.0000
29.3500 706.0000 1.0000
29.3600 736.0000 1.0000
29.3700 731.0000 1.0000
29.3800 670.0000 1.0000
29.3900 736.0000 1.0000
29.4000 693.0000 1.0000
29.4100 699.0000 1.0000
29.4200 725.0000 1.0000
29.4300 677.0000 1.0000
29.4400 718.0000 1.0000
29.4500 756.0000 1.0000
29.4600 690.0000 1.0000
29.4700 701.0000 1.0000
29.4800 716.0000 1.0000
29.4900 714.0000 1.0000
29.5000 699.0000 1.0000
29.5100 717.0000 1.0000
29.5200 735.0000 1.0000
29.5300 718.0000 1.0000
29.5400 713.0000 1.0000
29.5500 725.0000 1.0000
29.5600 736.0000 1.0000
29.5700 713.0000 1.0000
29.5800 684.0000 1.0000
29.5900 719.0000 1.0000
29.6000 717.0000 1.0000
29.6100 737.0000 1.0000
29.6200 720.0000 1.0000
29.6300 730.0000 1.0000
29.6400 716.0000 1.0000
29.6500 746.0000 1.0000
29.6600 735.0000 1.0000
29.6700 697.0000 1.0000
29.6800 731.0000 1.0000
29.6900 735.0000 1.0000
29.7000 691.0000 1.0000
29.7100 708.0000 1.0000
29.7200 710.0000 1.0000
29.7300 729.0000 1.0000
29.7400 746.0000 1.0000
29.7500 719.0000 1.0000
29.7600 704.0000 1.0000
29.7700 724.0000 1.0000
29.7800 705.0000 1.0000
29.7900 674.0000 1.0000
29.8000 720.0000 1.0000
29.8100 713.0000 1.0000
29.8200 730.0000 1.0000
29.8300 720.0000 1.0000
29.8400 687.0000 1.0000
29.8500 767.0000 1.0000
29.8600 708.0000 1.0000
29.8700 750.0000 1.0000
29.8800 730.0000 1.0000
29.8900 724.0000 1.0000
29.9000 675.0000 1.0000
29.9100 662.0000 1.0000
29.9200 679.0000 1.0000
29.9300 685.0000 1.0000
29.9400 739.0000 1.0000
29.9500 665.0000 1.0000
29.9600 682.0000 1.0000
29.9700 717.0000 1.0000
29.9800 722.0000 1.0000
29.9900 673.0000 1.0000
30.0000 693.0000 1.0000
30.0100 656.0000 1.0000
30.0200 712.0000 1.0000
30.0300 721.0000 1.0000
30.0400 736.0000 1.0000
30.0500 724.0000 1.0000
30.0600 717.0000 1.0000
30.0700 688.0000 1.0000
30.0800 642.0000 1.0000
30.0900 749.0000 1.0000
30.1000 658.0000 1.0000
30.1100 664.0000 1.0000
30.1200 693.0000 1.0000
30.1300 691.0000 1.0000
30.1400 664.0000 1.0000
30.1500 692.0000 1.0000
30.1600 682.0000 1.0000
30.1700 727.0000 1.0000
30.1800 728.0000 1.0000
30.1900 690.0000 1.0000
30.2000 686.0000 1.0000
30.2100 700.0000 1.0000
30.2200 675.0000 1.0000
30.2300 712.0000 1.0000
30.2400 694.0000 1.0000
30.2500 700.0000 1.0000
30.2600 689.0000 1.0000
30.2700 695.0000 1.0000
30.2800 701.0000 1.0000
30.2900 681.0000 1.0000
30.3000 723.0000 1.0000
30.3100 684.0000 1.0000
30.3200 704.0000 1.0000
30.3300 705.0000 1.0000
30.3400 710.0000 1.0000
30.3500 717.0000 1.0000
30.3600 696.0000 1.0000
30.3700 667.0000 1.0000
30.3800 681.0000 1.0000
30.3900 686.0000 1.0000
30.4000 669.0000 1.0000
30.4100 662.0000 1.0000
30.4200 661.0000 1.0000
30.4300 715.0000 1.0000
30.4400 747.0000 1.0000
30.4500 701.0000 1.0000
30.4600 717.0000 1.0000
30.4700 708.0000 1.0000
30.4800 706.0000 1.0000
30.4900 669.0000 1.0000
30.5000 692.0000 1.0000
30.5100 707.0000 1.0000
30.5200 718.0000 1.0000
30.5300 691.0000 1.0000
30.5400 706.0000 1.0000
30.5500 729.0000 1.0000
30.5600 709.0000 1.0000
30.5700 655.0000 1.0000
30.5800 644.0000 1.0000
30.5900 650.0000 1.0000
30.6000 658.0000 1.0000
30.6100 679.0000 1.0000
30.6200 674.0000 1.0000
30.6300 699.0000 1.0000
30.6400 665.0000 1.0000
30.6500 675.0000 1.0000
30.6600 700.0000 1.0000
30.6700 639.0000 1.0000
30.6800 693.0000 1.0000
30.6900 675.0000 1.0000
30.7000 681.0000 1.0000
30.7100 680.0000 1.0000
30.7200 708.0000 1.0000
30.7300 690.0000 1.0000
30.7400 689.0000 1.0000
30.7500 641.0000 1.0000
30.7600 672.0000 1.0000
30.7700 669.0000 1.0000
30.7800 693.0000 1.0000
30.7900 716.0000 1.0000
30.8000 649.0000 1.0000
30.8100 679.0000 1.0000
30.8200 721.0000 1.0000
30.8300 698.0000 1.0000
30.8400 693.0000 1.0000
30.8500 672.0000 1.0000
30.8600 653.0000 1.0000
30.8700 701.0000 1.0000
30.8800 669.0000 1.0000
30.8900 656.0000 1.0000
30.9000 679.0000 1.0000
30.9100 682.0000 1.0000
30.9200 719.0000 1.0000
30.9300 660.0000 1.0000
30.9400 676.0000 1.0000
30.9500 684.0000 1.0000
30.9600 667.0000 1.0000
30.9700 668.0000 1.0000
30.9800 689.0000 1.0000
30.9900 678.0000 1.0000
31.0000 652.0000 1.0000
31.0100 637.0000 1.0000
31.0200 665.0000 1.0000
31.0300 668.0000 1.0000
31.0400 676.0000 1.0000
31.0500 652.0000 1.0000
31.0600 642.0000 1.0000
31.0700 675.0000 1.0000
31.0800 737.0000 1.0000
31.0900 745.0000 1.0000
31.1000 702.0000 1.0000
31.1100 686.0000 1.0000
31.1200 694.0000 1.0000
31.1300 685.0000 1.0000
31.1400 688.0000 1.0000
31.1500 659.0000 1.0000
31.1600 712.0000 1.0000
31.1700 681.0000 1.0000
31.1800 697.0000 1.0000
31.1900 633.0000 1.0000
31.2000 683.0000 1.0000
31.2100 678.0000 1.0000
31.2200 690.0000 1.0000
31.2300 661.0000 1.0000
31.2400 732.0000 1.0000
31.2500 656.0000 1.0000
31.2600 661.0000 1.0000
31.2700 657.0000 1.0000
31.2800 680.0000 1.0000
31.2900 667.0000 1.0000
31.3000 675.0000 1.0000
31.3100 631.0000 1.0000
31.3200 677.0000 1.0000
31.3300 702.0000 1.0000
31.3400 659.0000 1.0000
31.3500 659.0000 1.0000
31.3600 659.0000 1.0000
31.3700 676.0000 1.0000
31.3800 657.0000 1.0000
31.3900 678.0000 1.0000
31.4000 667.0000 1.0000
31.4100 601.0000 1.0000
31.4200 638.0000 1.0000
31.4300 715.0000 1.0000
31.4400 673.0000 1.0000
31.4500 666.0000 1.0000
31.4600 693.0000 1.0000
31.4700 676.0000 1.0000
31.4800 652.0000 1.0000
31.4900 659.0000 1.0000
31.5000 649.0000 1.0000
31.5100 672.0000 1.0000
31.5200 651.0000 1.0000
31.5300 652.0000 1.0000
31.5400 660.0000 1.0000
31.5500 656.0000 1.0000
31.5600 624.0000 1.0000
31.5700 676.0000 1.0000
31.5800 681.0000 1.0000
31.5900 658.0000 1.0000
31.6000 643.0000 1.0000
31.6100 660.0000 1.0000
31.6200 642.0000 1.0000
31.6300 643.0000 1.0000
31.6400 687.0000 1.0000
31.6500 682.0000 1.0000
31.6600 637.0000 1.0000
31.6700 628.0000 1.0000
31.6800 624.0000 1.0000
31.6900 626.0000 1.0000
31.7000 663.0000 1.0000
31.7100 649.0000 1.0000
31.7200 616.0000 1.0000
31.7300 640.0000 1.0000
31.7400 649.0000 1.0000
31.7500 665.0000 1.0000
31.7600 678.0000 1.0000
31.7700 639.0000 1.0000
31.7800 686.0000 1.0000
31.7900 644.0000 1.0000
31.8000 629.0000 1.0000
31.8100 675.0000 1.0000
31.8200 680.0000 1.0000
31.8300 659.0000 1.0000
31.8400 680.0000 1.0000
31.8500 624.0000 1.0000
31.8600 621.0000 1.0000
31.8700 640.0000 1.0000
31.8800 654.0000 1.0000
31.8900 672.0000 1.0000
31.9000 641.0000 1.0000
31.9100 631.0000 1.0000
31.9200 705.0000 1.0000
31.9300 675.0000 1.0000
31.9400 673.0000 1.0000
31.9500 662.0000 1.0000
31.9600 672.0000 1.0000
31.9700 631.0000 1.0000
31.9800 624.0000 1.0000
31.9900 658.0000 1.0000
32.0000 654.0000 1.0000
32.0100 662.0000 1.0000
32.0200 668.0000 1.0000
32.0300 639.0000 1.0000
32.0400 609.0000 1.0000
32.0500 615.0000 1.0000
32.0600 626.0000 1.0000
32.0700 641.0000 1.0000
32.0800 653.0000 1.0000
32.0900 610.0000 1.0000
32.1000 619.0000 1.0000
32.1100 604.0000 1.0000
32.1200 690.0000 1.0000
32.1300 630.0000 1.0000
32.1400 617.0000 1.0000
32.1500 632.0000 1.0000
32.1600 641.0000 1.0000
32.1700 631.0000 1.0000
32.1800 657.0000 1.0000
32.1900 609.0000 1.0000
32.2000 626.0000 1.0000
32.2100 605.0000 1.0000
32.2200 645.0000 1.0000
32.2300 632.0000 1.0000
32.2400 668.0000 1.0000
32.2500 654.0000 1.0000
32.2600 605.0000 1.0000
32.2700 648.0000 1.0000
32.2800 652.0000 1.0000
32.2900 629.0000 1.0000
32.3000 609.0000 1.0000
32.3100 648.0000 1.0000
32.3200 658.0000 1.0000
32.3300 641.0000 1.0000
32.3400 649.0000 1.0000
32.3500 647.0000 1.0000
32.3600 614.0000 1.0000
32.3700 602.0000 1.0000
32.3800 622.0000 1.0000
32.3900 642.0000 1.0000
32.4000 672.0000 1.0000
32.4100 623.0000 1.0000
32.4200 683.0000 1.0000
32.4300 654.0000 1.0000
32.4400 643.0000 1.0000
32.4500 591.0000 1.0000
32.4600 595.0000 1.0000
32.4700 592.0000 1.0000
32.4800 599.0000 1.0000
32.4900 618.0000 1.0000
32.5000 647.0000 1.0000
32.5100 604.0000 1.0000
32.5200 637.0000 1.0000
32.5300 639.0000 1.0000
32.5400 652.0000 1.0000
32.5500 673.0000 1.0000
32.5600 651.0000 1.0000
32.5700 636.0000 1.0000
32.5800 655.0000 1.0000
32.5900 625.0000 1.0000
32.6000 619.0000 1.0000
32.6100 625.0000 1.0000
32.6200 630.0000 1.0000
32.6300 621.0000 1.0000
32.6400 660.0000 1.0000
32.6500 655.0000 1.0000
32.6600 638.0000 1.0000
32.6700 639.0000 1.0000
32.6800 619.0000 1.0000
32.6900 690.0000 1.0000
32.7000 669.0000 1.0000
32.7100 655.0000 1.0000
32.7200 632.0000 1.0000
32.7300 653.0000 1.0000
32.7400 618.0000 1.0000
32.7500 635.0000 1.0000
32.7600 605.0000 1.0000
32.7700 651.0000 1.0000
32.7800 690.0000 1.0000
32.7900 646.0000 1.0000
32.8000 633.0000 1.0000
32.8100 646.0000 1.0000
32.8200 632.0000 1.0000
32.8300 672.0000 1.0000
32.8400 719.0000 1.0000
32.8500 667.0000 1.0000
32.8600 720.0000 1.0000
32.8700 694.0000 1.0000
32.8800 682.0000 1.0000
32.8900 670.0000 1.0000
32.9000 732.0000 1.0000
32.9100 700.0000 1.0000
32.9200 720.0000 1.0000
32.9300 703.0000 1.0000
32.9400 754.0000 1.0000
32.9500 767.0000 1.0000
32.9600 776.0000 1.0000
32.9700 746.0000 1.0000
32.9800 750.0000 1.0000
32.9900 748.0000 1.0000
33.0000 709.0000 1.0000
33.0100 768.0000 1.0000
33.0200 738.0000 1.0000
33.0300 770.0000 1.0000
33.0400 750.0000 1.0000
33.0500 788.0000 1.0000
33.0600 796.0000 1.0000
33.0700 803.0000 1.0000
33.0800 821.0000 1.0000
33.0900 830.0000 1.0000
33.1000 826.0000 1.0000
33.1100 788.0000 1.0000
33.1200 813.0000 1.0000
33.1300 827.0000 1.0000
33.1400 804.0000 1.0000
33.1500 776.0000 1.0000
33.1600 802.0000 1.0000
33.1700 778.0000 1.0000
33.1800 852.0000 1.0000
33.1900 753.0000 1.0000
33.2000 758.0000 1.0000
33.2100 755.0000 1.0000
33.2200 738.0000 1.0000
33.2300 761.0000 1.0000
33.2400 778.0000 1.0000
33.2500 739.0000 1.0000
33.2600 707.0000 1.0000
33.2700 707.0000 1.0000
33.2800 759.0000 1.0000
33.2900 750.0000 1.0000
33.3000 725.0000 1.0000
33.3100 734.0000 1.0000
33.3200 739.0000 1.0000
33.3300 728.0000 1.0000
33.3400 750.0000 1.0000
33.3500 753.0000 1.0000
33.3600 774.0000 1.0000
33.3700 738.0000 1.0000
33.3800 779.0000 1.0000
33.3900 763.0000 1.0000
33.4000 703.0000 1.0000
33.4100 741.0000 1.0000
33.4200 795.0000 1.0000
33.4300 777.0000 1.0000
33.4400 819.0000 1.0000
33.4500 831.0000 1.0000
33.4600 859.0000 1.0000
33.4700 899.0000 1.0000
33.4800 863.0000 1.0000
33.4900 903.0000 1.0000
33.5000 959.0000 1.0000
33.5100 966.0000 1.0000
33.5200 990.0000 1.0000
33.5300 1058.0000 1.0000
33.5400 1077.0000 1.0000
33.5500 1074.0000 1.0000
33.5600 1113.0000 1.0000
33.5700 1167.0000 1.0000
33.5800 1251.0000 1.0000
33.5900 1315.0000 1.0000
33.6000 1298.0000 1.0000
33.6100 1448.0000 1.0000
33.6200 1451.0000 1.0000
33.6300 1470.0000 1.0000
33.6400 1498.0000 1.0000
33.6500 1534.0000 1.0000
33.6600 1518.0000 1.0000
33.6700 1558.0000 1.0000
33.6800 1475.0000 1.0000
33.6900 1467.0000 1.0000
33.7000 1382.0000 1.0000
33.7100 1370.0000 1.0000
33.7200 1347.0000 1.0000
33.7300 1313.0000 1.0000
33.7400 1271.0000 1.0000
33.7500 1182.0000 1.0000
33.7600 1133.0000 1.0000
33.7700 1085.0000 1.0000
33.7800 1054.0000 1.0000
33.7900 1048.0000 1.0000
33.8000 989.0000 1.0000
33.8100 950.0000 1.0000
33.8200 940.0000 1.0000
33.8300 909.0000 1.0000
33.8400 857.0000 1.0000
33.8500 842.0000 1.0000
33.8600 872.0000 1.0000
33.8700 809.0000 1.0000
33.8800 812.0000 1.0000
33.8900 766.0000 1.0000
33.9000 766.0000 1.0000
33.9100 766.0000 1.0000
33.9200 743.0000 1.0000
33.9300 778.0000 1.0000
33.9400 707.0000 1.0000
33.9500 765.0000 1.0000
33.9600 733.0000 1.0000
33.9700 715.0000 1.0000
33.9800 695.0000 1.0000
33.9900 690.0000 1.0000
34.0000 701.0000 1.0000
34.0100 691.0000 1.0000
34.0200 658.0000 1.0000
34.0300 670.0000 1.0000
34.0400 645.0000 1.0000
34.0500 635.0000 1.0000
34.0600 647.0000 1.0000
34.0700 597.0000 1.0000
34.0800 598.0000 1.0000
34.0900 669.0000 1.0000
34.1000 619.0000 1.0000
34.1100 612.0000 1.0000
34.1200 619.0000 1.0000
34.1300 631.0000 1.0000
34.1400 648.0000 1.0000
34.1500 597.0000 1.0000
34.1600 617.0000 1.0000
34.1700 598.0000 1.0000
34.1800 613.0000 1.0000
34.1900 600.0000 1.0000
34.2000 621.0000 1.0000
34.2100 590.0000 1.0000
34.2200 615.0000 1.0000
34.2300 597.0000 1.0000
34.2400 569.0000 1.0000
34.2500 606.0000 1.0000
34.2600 645.0000 1.0000
34.2700 583.0000 1.0000
34.2800 581.0000 1.0000
34.2900 621.0000 1.0000
34.3000 625.0000 1.0000
34.3100 558.0000 1.0000
34.3200 560.0000 1.0000
34.3300 525.0000 1.0000
34.3400 602.0000 1.0000
34.3500 594.0000 1.0000
34.3600 557.0000 1.0000
34.3700 625.0000 1.0000
34.3800 592.0000 1.0000
34.3900 588.0000 1.0000
34.4000 573.0000 1.0000
34.4100 605.0000 1.0000
34.4200 585.0000 1.0000
34.4300 579.0000 1.0000
34.4400 582.0000 1.0000
34.4500 585.0000 1.0000
34.4600 581.0000 1.0000
34.4700 573.0000 1.0000
34.4800 560.0000 1.0000
34.4900 569.0000 1.0000
34.5000 565.0000 1.0000
34.5100 556.0000 1.0000
34.5200 594.0000 1.0000
34.5300 588.0000 1.0000
34.5400 549.0000 1.0000
34.5500 551.0000 1.0000
34.5600 586.0000 1.0000
34.5700 575.0000 1.0000
34.5800 575.0000 1.0000
34.5900 586.0000 1.0000
34.6000 611.0000 1.0000
34.6100 567.0000 1.0000
34.6200 555.0000 1.0000
34.6300 554.0000 1.0000
34.6400 566.0000 1.0000
34.6500 554.0000 1.0000
34.6600 554.0000 1.0000
34.6700 568.0000 1.0000
34.6800 543.0000 1.0000
34.6900 574.0000 1.0000
34.7000 574.0000 1.0000
34.7100 544.0000 1.0000
34.7200 545.0000 1.0000
34.7300 572.0000 1.0000
34.7400 559.0000 1.0000
34.7500 530.0000 1.0000
34.7600 566.0000 1.0000
34.7700 571.0000 1.0000
34.7800 561.0000 1.0000
34.7900 567.0000 1.0000
34.8000 586.0000 1.0000
34.8100 579.0000 1.0000
34.8200 567.0000 1.0000
34.8300 542.0000 1.0000
34.8400 548.0000 1.0000
34.8500 611.0000 1.0000
34.8600 571.0000 1.0000
34.8700 545.0000 1.0000
34.8800 524.0000 1.0000
34.8900 533.0000 1.0000
34.9000 571.0000 1.0000
34.9100 548.0000 1.0000
34.9200 538.0000 1.0000
34.9300 553.0000 1.0000
34.9400 556.0000 1.0000
34.9500 605.0000 1.0000
34.9600 557.0000 1.0000
34.9700 538.0000 1.0000
34.9800 529.0000 1.0000
34.9900 552.0000 1.0000
35.0000 583.0000 1.0000
35.0100 574.0000 1.0000
35.0200 552.0000 1.0000
35.0300 526.0000 1.0000
35.0400 546.0000 1.0000
35.0500 571.0000 1.0000
35.0600 596.0000 1.0000
35.0700 535.0000 1.0000
35.0800 558.0000 1.0000
35.0900 574.0000 1.0000
35.1000 564.0000 1.0000
35.1100 569.0000 1.0000
35.1200 573.0000 1.0000
35.1300 549.0000 1.0000
35.1400 574.0000 1.0000
35.1500 549.0000 1.0000
35.1600 526.0000 1.0000
35.1700 547.0000 1.0000
35.1800 530.0000 1.0000
35.1900 554.0000 1.0000
35.2000 523.0000 1.0000
35.2100 570.0000 1.0000
35.2200 541.0000 1.0000
35.2300 569.0000 1.0000
35.2400 586.0000 1.0000
35.2500 551.0000 1.0000
35.2600 609.0000 1.0000
35.2700 543.0000 1.0000
35.2800 627.0000 1.0000
35.2900 611.0000 1.0000
35.3000 552.0000 1.0000
35.3100 615.0000 1.0000
35.3200 634.0000 1.0000
35.3300 622.0000 1.0000
35.3400 601.0000 1.0000
35.3500 633.0000 1.0000
35.3600 625.0000 1.0000
35.3700 632.0000 1.0000
35.3800 631.0000 1.0000
35.3900 642.0000 1.0000
35.4000 644.0000 1.0000
35.4100 667.0000 1.0000
35.4200 701.0000 1.0000
35.4300 700.0000 1.0000
35.4400 697.0000 1.0000
35.4500 712.0000 1.0000
35.4600 798.0000 1.0000
35.4700 756.0000 1.0000
35.4800 796.0000 1.0000
35.4900 790.0000 1.0000
35.5000 826.0000 1.0000
35.5100 891.0000 1.0000
35.5200 876.0000 1.0000
35.5300 862.0000 1.0000
35.5400 913.0000 1.0000
35.5500 913.0000 1.0000
35.5600 917.0000 1.0000
35.5700 874.0000 1.0000
35.5800 889.0000 1.0000
35.5900 940.0000 1.0000
35.6000 898.0000 1.0000
35.6100 892.0000 1.0000
35.6200 876.0000 1.0000
35.6300 868.0000 1.0000
35.6400 837.0000 1.0000
35.6500 881.0000 1.0000
35.6600 847.0000 1.0000
35.6700 800.0000 1.0000
35.6800 829.0000 1.0000
35.6900 812.0000 1.0000
35.7000 781.0000 1.0000
35.7100 741.0000 1.0000
35.7200 721.0000 1.0000
35.7300 644.0000 1.0000
35.7400 688.0000 1.0000
35.7500 674.0000 1.0000
35.7600 594.0000 1.0000
35.7700 625.0000 1.0000
35.7800 641.0000 1.0000
35.7900 619.0000 1.0000
35.8000 560.0000 1.0000
35.8100 574.0000 1.0000
35.8200 597.0000 1.0000
35.8300 603.0000 1.0000
35.8400 605.0000 1.0000
35.8500 587.0000 1.0000
35.8600 598.0000 1.0000
35.8700 565.0000 1.0000
35.8800 563.0000 1.0000
35.8900 589.0000 1.0000
35.9000 515.0000 1.0000
35.9100 517.0000 1.0000
35.9200 528.0000 1.0000
35.9300 563.0000 1.0000
35.9400 526.0000 1.0000
35.9500 526.0000 1.0000
35.9600 542.0000 1.0000
35.9700 535.0000 1.0000
35.9800 553.0000 1.0000
35.9900 503.0000 1.0000
36.0000 518.0000 1.0000
36.0100 550.0000 1.0000
36.0200 577.0000 1.0000
36.0300 553.0000 1.0000
36.0400 490.0000 1.0000
36.0500 488.0000 1.0000
36.0600 512.0000 1.0000
36.0700 517.0000 1.0000
36.0800 530.0000 1.0000
36.0900 528.0000 1.0000
36.1000 498.0000 1.0000
36.1100 549.0000 1.0000
36.1200 528.0000 1.0000
36.1300 521.0000 1.0000
36.1400 505.0000 1.0000
36.1500 510.0000 1.0000
36.1600 536.0000 1.0000
36.1700 494.0000 1.0000
36.1800 514.0000 1.0000
36.1900 488.0000 1.0000
36.2000 501.0000 1.0000
36.2100 481.0000 1.0000
36.2200 498.0000 1.0000
36.2300 498.0000 1.0000
36.2400 489.0000 1.0000
36.2500 521.0000 1.0000
36.2600 523.0000 1.0000
36.2700 533.0000 1.0000
36.2800 501.0000 1.0000
36.2900 485.0000 1.0000
36.3000 516.0000 1.0000
36.3100 499.0000 1.0000
36.3200 483.0000 1.0000
36.3300 511.0000 1.0000
36.3400 518.0000 1.0000
36.3500 506.0000 1.0000
36.3600 505.0000 1.0000
36.3700 533.0000 1.0000
36.3800 507.0000 1.0000
36.3900 485.0000 1.0000
36.4000 518.0000 1.0000
36.4100 507.0000 1.0000
36.4200 517.0000 1.0000
36.4300 476.0000 1.0000
36.4400 514.0000 1.0000
36.4500 505.0000 1.0000
36.4600 514.0000 1.0000
36.4700 508.0000 1.0000
36.4800 498.0000 1.0000
36.4900 487.0000 1.0000
36.5000 491.0000 1.0000
36.5100 533.0000 1.0000
36.5200 494.0000 1.0000
36.5300 450.0000 1.0000
36.5400 496.0000 1.0000
36.5500 507.0000 1.0000
36.5600 491.0000 1.0000
36.5700 497.0000 1.0000
36.5800 488.0000 1.0000
36.5900 518.0000 1.0000
36.6000 471.0000 1.0000
36.6100 482.0000 1.0000
36.6200 505.0000 1.0000
36.6300 484.0000 1.0000
36.6400 461.0000 1.0000
36.6500 521.0000 1.0000
36.6600 535.0000 1.0000
36.6700 576.0000 1.0000
36.6800 502.0000 1.0000
36.6900 489.0000 1.0000
36.7000 530.0000 1.0000
36.7100 529.0000 1.0000
36.7200 509.0000 1.0000
36.7300 508.0000 1.0000
36.7400 523.0000 1.0000
36.7500 527.0000 1.0000
36.7600 503.0000 1.0000
36.7700 490.0000 1.0000
36.7800 491.0000 1.0000
36.7900 527.0000 1.0000
36.8000 502.0000 1.0000
36.8100 480.0000 1.0000
36.8200 488.0000 1.0000
36.8300 514.0000 1.0000
36.8400 508.0000 1.0000
36.8500 508.0000 1.0000
36.8600 481.0000 1.0000
36.8700 503.0000 1.0000
36.8800 507.0000 1.0000
36.8900 518.0000 1.0000
36.9000 534.0000 1.0000
36.9100 470.0000 1.0000
36.9200 508.0000 1.0000
36.9300 489.0000 1.0000
36.9400 477.0000 1.0000
36.9500 535.0000 1.0000
36.9600 495.0000 1.0000
36.9700 485.0000 1.0000
36.9800 539.0000 1.0000
36.9900 496.0000 1.0000
37.0000 495.0000 1.0000
37.0100 476.0000 1.0000
37.0200 522.0000 1.0000
37.0300 502.0000 1.0000
37.0400 515.0000 1.0000
37.0500 484.0000 1.0000
37.0600 513.0000 1.0000
37.0700 498.0000 1.0000
37.0800 511.0000 1.0000
37.0900 547.0000 1.0000
37.1000 481.0000 1.0000
37.1100 519.0000 1.0000
37.1200 498.0000 1.0000
37.1300 548.0000 1.0000
37.1400 492.0000 1.0000
37.1500 519.0000 1.0000
37.1600 548.0000 1.0000
37.1700 531.0000 1.0000
37.1800 520.0000 1.0000
37.1900 532.0000 1.0000
37.2000 516.0000 1.0000
37.2100 566.0000 1.0000
37.2200 500.0000 1.0000
37.2300 524.0000 1.0000
37.2400 528.0000 1.0000
37.2500 533.0000 1.0000
37.2600 542.0000 1.0000
37.2700 542.0000 1.0000
37.2800 543.0000 1.0000
37.2900 558.0000 1.0000
37.3000 540.0000 1.0000
37.3100 573.0000 1.0000
37.3200 561.0000 1.0000
37.3300 576.0000 1.0000
37.3400 594.0000 1.0000
37.3500 615.0000 1.0000
37.3600 580.0000 1.0000
37.3700 596.0000 1.0000
37.3800 665.0000 1.0000
37.3900 658.0000 1.0000
37.4000 701.0000 1.0000
37.4100 690.0000 1.0000
37.4200 697.0000 1.0000
37.4300 691.0000 1.0000
37.4400 701.0000 1.0000
37.4500 758.0000 1.0000
37.4600 730.0000 1.0000
37.4700 801.0000 1.0000
37.4800 865.0000 1.0000
37.4900 895.0000 1.0000
37.5000 921.0000 1.0000
37.5100 959.0000 1.0000
37.5200 976.0000 1.0000
37.5300 1022.0000 1.0000
37.5400 1123.0000 1.0000
37.5500 1191.0000 1.0000
37.5600 1258.0000 1.0000
37.5700 1344.0000 1.0000
37.5800 1488.0000 1.0000
37.5900 1445.0000 1.0000
37.6000 1528.0000 1.0000
37.6100 1647.0000 1.0000
37.6200 1775.0000 1.0000
37.6300 1836.0000 1.0000
37.6400 1954.0000 1.0000
37.6500 2036.0000 1.0000
37.6600 2133.0000 1.0000
37.6700 2259.0000 1.0000
37.6800 2303.0000 1.0000
37.6900 2378.0000 1.0000
37.7000 2358.0000 1.0000
37.7100 2427.0000 1.0000
37.7200 2355.0000 1.0000
37.7300 2366.0000 1.0000
37.7400 2361.0000 1.0000
37.7500 2345.0000 1.0000
37.7600 2290.0000 1.0000
37.7700 2259.0000 1.0000
37.7800 2143.0000 1.0000
37.7900 2078.0000 1.0000
37.8000 1964.0000 1.0000
37.8100 1964.0000 1.0000
37.8200 1879.0000 1.0000
37.8300 1767.0000 1.0000
37.8400 1628.0000 1.0000
37.8500 1506.0000 1.0000
37.8600 1439.0000 1.0000
37.8700 1395.0000 1.0000
37.8800 1251.0000 1.0000
37.8900 1200.0000 1.0000
37.9000 1106.0000 1.0000
37.9100 1093.0000 1.0000
37.9200 1041.0000 1.0000
37.9300 947.0000 1.0000
37.9400 848.0000 1.0000
37.9500 865.0000 1.0000
37.9600 829.0000 1.0000
37.9700 802.0000 1.0000
37.9800 801.0000 1.0000
37.9900 755.0000 1.0000
38.0000 699.0000 1.0000
38.0100 702.0000 1.0000
38.0200 673.0000 1.0000
38.0300 661.0000 1.0000
38.0400 616.0000 1.0000
38.0500 626.0000 1.0000
38.0600 617.0000 1.0000
38.0700 590.0000 1.0000
38.0800 623.0000 1.0000
38.0900 622.0000 1.0000
38.1000 572.0000 1.0000
38.1100 600.0000 1.0000
38.1200 591.0000 1.0000
38.1300 537.0000 1.0000
38.1400 520.0000 1.0000
38.1500 539.0000 1.0000
38.1600 546.0000 1.0000
38.1700 524.0000 1.0000
38.1800 550.0000 1.0000
38.1900 545.0000 1.0000
38.2000 502.0000 1.0000
38.2100 519.0000 1.0000
38.2200 501.0000 1.0000
38.2300 479.0000 1.0000
38.2400 515.0000 1.0000
38.2500 525.0000 1.0000
38.2600 495.0000 1.0000
38.2700 529.0000 1.0000
38.2800 476.0000 1.0000
38.2900 491.0000 1.0000
38.3000 462.0000 1.0000
38.3100 476.0000 1.0000
38.3200 465.0000 1.0000
38.3300 486.0000 1.0000
38.3400 482.0000 1.0000
38.3500 471.0000 1.0000
38.3600 434.0000 1.0000
38.3700 498.0000 1.0000
38.3800 473.0000 1.0000
38.3900 512.0000 1.0000
38.4000 476.0000 1.0000
38.4100 487.0000 1.0000
38.4200 487.0000 1.0000
38.4300 493.0000 1.0000
38.4400 476.0000 1.0000
38.4500 489.0000 1.0000
38.4600 465.0000 1.0000
38.4700 436.0000 1.0000
38.4800 453.0000 1.0000
38.4900 477.0000 1.0000
38.5000 476.0000 1.0000
38.5100 460.0000 1.0000
38.5200 466.0000 1.0000
38.5300 462.0000 1.0000
38.5400 482.0000 1.0000
38.5500 446.0000 1.0000
38.5600 492.0000 1.0000
38.5700 483.0000 1.0000
38.5800 462.0000 1.0000
38.5900 454.0000 1.0000
38.6000 477.0000 1.0000
38.6100 449.0000 1.0000
38.6200 419.0000 1.0000
38.6300 451.0000 1.0000
38.6400 487.0000 1.0000
38.6500 453.0000 1.0000
38.6600 452.0000 1.0000
38.6700 431.0000 1.0000
38.6800 422.0000 1.0000
38.6900 447.0000 1.0000
38.7000 499.0000 1.0000
38.7100 473.0000 1.0000
38.7200 469.0000 1.0000
38.7300 483.0000 1.0000
38.7400 502.0000 1.0000
38.7500 478.0000 1.0000
38.7600 479.0000 1.0000
38.7700 468.0000 1.0000
38.7800 478.0000 1.0000
38.7900 488.0000 1.0000
38.8000 486.0000 1.0000
38.8100 486.0000 1.0000
38.8200 448.0000 1.0000
38.8300 462.0000 1.0000
38.8400 475.0000 1.0000
38.8500 512.0000 1.0000
38.8600 489.0000 1.0000
38.8700 475.0000 1.0000
38.8800 446.0000 1.0000
38.8900 471.0000 1.0000
38.9000 473.0000 1.0000
38.9100 474.0000 1.0000
38.9200 462.0000 1.0000
38.9300 433.0000 1.0000
38.9400 446.0000 1.0000
38.9500 472.0000 1.0000
38.9600 436.0000 1.0000
38.9700 455.0000 1.0000
38.9800 478.0000 1.0000
38.9900 451.0000 1.0000
39.0000 457.0000 1.0000
39.0100 422.0000 1.0000
39.0200 447.0000 1.0000
39.0300 456.0000 1.0000
39.0400 443.0000 1.0000
39.0500 422.0000 1.0000
39.0600 430.0000 1.0000
39.0700 440.0000 1.0000
39.0800 487.0000 1.0000
39.0900 433.0000 1.0000
39.1000 415.0000 1.0000
39.1100 394.0000 1.0000
39.1200 456.0000 1.0000
39.1300 402.0000 1.0000
39.1400 444.0000 1.0000
39.1500 412.0000 1.0000
39.1600 451.0000 1.0000
39.1700 479.0000 1.0000
39.1800 422.0000 1.0000
39.1900 440.0000 1.0000
39.2000 413.0000 1.0000
39.2100 468.0000 1.0000
39.2200 447.0000 1.0000
39.2300 480.0000 1.0000
39.2400 416.0000 1.0000
39.2500 454.0000 1.0000
39.2600 458.0000 1.0000
39.2700 435.0000 1.0000
39.2800 424.0000 1.0000
39.2900 441.0000 1.0000
39.3000 447.0000 1.0000
39.3100 437.0000 1.0000
39.3200 445.0000 1.0000
39.3300 425.0000 1.0000
39.3400 436.0000 1.0000
39.3500 445.0000 1.0000
39.3600 412.0000 1.0000
39.3700 444.0000 1.0000
39.3800 474.0000 1.0000
39.3900 447.0000 1.0000
39.4000 443.0000 1.0000
39.4100 403.0000 1.0000
39.4200 410.0000 1.0000
39.4300 416.0000 1.0000
39.4400 410.0000 1.0000
39.4500 411.0000 1.0000
39.4600 412.0000 1.0000
39.4700 414.0000 1.0000
39.4800 452.0000 1.0000
39.4900 434.0000 1.0000
39.5000 422.0000 1.0000
39.5100 428.0000 1.0000
39.5200 430.0000 1.0000
39.5300 421.0000 1.0000
39.5400 436.0000 1.0000
39.5500 415.0000 1.0000
39.5600 431.0000 1.0000
39.5700 430.0000 1.0000
39.5800 434.0000 1.0000
39.5900 400.0000 1.0000
39.6000 381.0000 1.0000
39.6100 410.0000 1.0000
39.6200 436.0000 1.0000
39.6300 449.0000 1.0000
39.6400 434.0000 1.0000
39.6500 430.0000 1.0000
39.6600 430.0000 1.0000
39.6700 445.0000 1.0000
39.6800 414.0000 1.0000
39.6900 407.0000 1.0000
39.7000 437.0000 1.0000
39.7100 408.0000 1.0000
39.7200 404.0000 1.0000
39.7300 443.0000 1.0000
39.7400 437.0000 1.0000
39.7500 438.0000 1.0000
39.7600 462.0000 1.0000
39.7700 464.0000 1.0000
39.7800 441.0000 1.0000
39.7900 416.0000 1.0000
39.8000 429.0000 1.0000
39.8100 424.0000 1.0000
39.8200 426.0000 1.0000
39.8300 428.0000 1.0000
39.8400 421.0000 1.0000
39.8500 446.0000 1.0000
39.8600 454.0000 1.0000
39.8700 428.0000 1.0000
39.8800 413.0000 1.0000
39.8900 450.0000 1.0000
39.9000 423.0000 1.0000
39.9100 422.0000 1.0000
39.9200 421.0000 1.0000
39.9300 463.0000 1.0000
39.9400 448.0000 1.0000
39.9500 404.0000 1.0000
39.9600 379.0000 1.0000
39.9700 414.0000 1.0000
39.9800 416.0000 1.0000
39.9900 417.0000 1.0000
40.0000 382.0000 1.0000
40.0100 451.0000 1.0000
40.0200 436.0000 1.0000
40.0300 419.0000 1.0000
40.0400 414.0000 1.0000
40.0500 410.0000 1.0000
40.0600 401.0000 1.0000
40.0700 420.0000 1.0000
40.0800 430.0000 1.0000
40.0900 403.0000 1.0000
40.1000 406.0000 1.0000
40.1100 412.0000 1.0000
40.1200 405.0000 1.0000
40.1300 427.0000 1.0000
40.1400 422.0000 1.0000
40.1500 424.0000 1.0000
40.1600 405.0000 1.0000
40.1700 414.0000 1.0000
40.1800 433.0000 1.0000
40.1900 415.0000 1.0000
40.2000 429.0000 1.0000
40.2100 413.0000 1.0000
40.2200 451.0000 1.0000
40.2300 438.0000 1.0000
40.2400 422.0000 1.0000
40.2500 459.0000 1.0000
40.2600 443.0000 1.0000
40.2700 454.0000 1.0000
40.2800 413.0000 1.0000
40.2900 408.0000 1.0000
40.3000 445.0000 1.0000
40.3100 382.0000 1.0000
40.3200 424.0000 1.0000
40.3300 404.0000 1.0000
40.3400 412.0000 1.0000
40.3500 440.0000 1.0000
40.3600 446.0000 1.0000
40.3700 405.0000 1.0000
40.3800 433.0000 1.0000
40.3900 406.0000 1.0000
40.4000 421.0000 1.0000
40.4100 450.0000 1.0000
40.4200 435.0000 1.0000
40.4300 446.0000 1.0000
40.4400 418.0000 1.0000
40.4500 424.0000 1.0000
40.4600 405.0000 1.0000
40.4700 427.0000 1.0000
40.4800 427.0000 1.0000
40.4900 447.0000 1.0000
40.5000 438.0000 1.0000
40.5100 411.0000 1.0000
40.5200 432.0000 1.0000
40.5300 420.0000 1.0000
40.5400 390.0000 1.0000
40.5500 426.0000 1.0000
40.5600 437.0000 1.0000
40.5700 394.0000 1.0000
40.5800 423.0000 1.0000
40.5900 407.0000 1.0000
40.6000 437.0000 1.0000
40.6100 417.0000 1.0000
40.6200 405.0000 1.0000
40.6300 414.0000 1.0000
40.6400 413.0000 1.0000
40.6500 476.0000 1.0000
40.6600 461.0000 1.0000
40.6700 462.0000 1.0000
40.6800 426.0000 1.0000
40.6900 394.0000 1.0000
40.7000 412.0000 1.0000
40.7100 441.0000 1.0000
40.7200 443.0000 1.0000
40.7300 412.0000 1.0000
40.7400 445.0000 1.0000
40.7500 468.0000 1.0000
40.7600 427.0000 1.0000
40.7700 458.0000 1.0000
40.7800 431.0000 1.0000
40.7900 451.0000 1.0000
40.8000 452.0000 1.0000
40.8100 431.0000 1.0000
40.8200 461.0000 1.0000
40.8300 463.0000 1.0000
40.8400 455.0000 1.0000
40.8500 431.0000 1.0000
40.8600 414.0000 1.0000
40.8700 448.0000 1.0000
40.8800 466.0000 1.0000
40.8900 446.0000 1.0000
40.9000 485.0000 1.0000
40.9100 453.0000 1.0000
40.9200 464.0000 1.0000
40.9300 461.0000 1.0000
40.9400 461.0000 1.0000
40.9500 467.0000 1.0000
40.9600 470.0000 1.0000
40.9700 424.0000 1.0000
40.9800 435.0000 1.0000
40.9900 465.0000 1.0000
41.0000 443.0000 1.0000
41.0100 418.0000 1.0000
41.0200 427.0000 1.0000
41.0300 421.0000 1.0000
41.0400 451.0000 1.0000
41.0500 430.0000 1.0000
41.0600 415.0000 1.0000
41.0700 382.0000 1.0000
41.0800 422.0000 1.0000
41.0900 435.0000 1.0000
41.1000 401.0000 1.0000
41.1100 415.0000 1.0000
41.1200 411.0000 1.0000
41.1300 411.0000 1.0000
41.1400 421.0000 1.0000
41.1500 374.0000 1.0000
41.1600 402.0000 1.0000
41.1700 417.0000 1.0000
41.1800 388.0000 1.0000
41.1900 425.0000 1.0000
41.2000 429.0000 1.0000
41.2100 427.0000 1.0000
41.2200 390.0000 1.0000
41.2300 417.0000 1.0000
41.2400 407.0000 1.0000
41.2500 423.0000 1.0000
41.2600 424.0000 1.0000
41.2700 419.0000 1.0000
41.2800 393.0000 1.0000
41.2900 408.0000 1.0000
41.3000 436.0000 1.0000
41.3100 434.0000 1.0000
41.3200 431.0000 1.0000
41.3300 408.0000 1.0000
41.3400 426.0000 1.0000
41.3500 414.0000 1.0000
41.3600 384.0000 1.0000
41.3700 414.0000 1.0000
41.3800 393.0000 1.0000
41.3900 375.0000 1.0000
41.4000 415.0000 1.0000
41.4100 445.0000 1.0000
41.4200 436.0000 1.0000
41.4300 405.0000 1.0000
41.4400 402.0000 1.0000
41.4500 394.0000 1.0000
41.4600 401.0000 1.0000
41.4700 386.0000 1.0000
41.4800 406.0000 1.0000
41.4900 407.0000 1.0000
41.5000 416.0000 1.0000
41.5100 393.0000 1.0000
41.5200 426.0000 1.0000
41.5300 418.0000 1.0000
41.5400 431.0000 1.0000
41.5500 387.0000 1.0000
41.5600 425.0000 1.0000
41.5700 429.0000 1.0000
41.5800 402.0000 1.0000
41.5900 424.0000 1.0000
41.6000 398.0000 1.0000
41.6100 395.0000 1.0000
41.6200 414.0000 1.0000
41.6300 432.0000 1.0000
41.6400 413.0000 1.0000
41.6500 438.0000 1.0000
41.6600 397.0000 1.0000
41.6700 408.0000 1.0000
41.6800 413.0000 1.0000
41.6900 369.0000 1.0000
41.7000 413.0000 1.0000
41.7100 376.0000 1.0000
41.7200 374.0000 1.0000
41.7300 412.0000 1.0000
41.7400 408.0000 1.0000
41.7500 397.0000 1.0000
41.7600 425.0000 1.0000
41.7700 406.0000 1.0000
41.7800 366.0000 1.0000
41.7900 433.0000 1.0000
41.8000 395.0000 1.0000
41.8100 401.0000 1.0000
41.8200 440.0000 1.0000
41.8300 393.0000 1.0000
41.8400 372.0000 1.0000
41.8500 400.0000 1.0000
41.8600 412.0000 1.0000
41.8700 394.0000 1.0000
41.8800 366.0000 1.0000
41.8900 418.0000 1.0000
41.9000 391.0000 1.0000
41.9100 399.0000 1.0000
41.9200 411.0000 1.0000
41.9300 445.0000 1.0000
41.9400 404.0000 1.0000
41.9500 454.0000 1.0000
41.9600 422.0000 1.0000
41.9700 424.0000 1.0000
41.9800 428.0000 1.0000
41.9900 412.0000 1.0000
42.0000 431.0000 1.0000
42.0100 415.0000 1.0000
42.0200 388.0000 1.0000
42.0300 360.0000 1.0000
42.0400 393.0000 1.0000
42.0500 423.0000 1.0000
42.0600 372.0000 1.0000
42.0700 365.0000 1.0000
42.0800 412.0000 1.0000
42.0900 421.0000 1.0000
42.1000 415.0000 1.0000
42.1100 408.0000 1.0000
42.1200 405.0000 1.0000
42.1300 407.0000 1.0000
42.1400 404.0000 1.0000
42.1500 416.0000 1.0000
42.1600 402.0000 1.0000
42.1700 413.0000 1.0000
42.1800 391.0000 1.0000
42.1900 410.0000 1.0000
42.2000 428.0000 1.0000
42.2100 433.0000 1.0000
42.2200 426.0000 1.0000
42.2300 409.0000 1.0000
42.2400 420.0000 1.0000
42.2500 394.0000 1.0000
42.2600 416.0000 1.0000
42.2700 430.0000 1.0000
42.2800 409.0000 1.0000
42.2900 412.0000 1.0000
42.3000 424.0000 1.0000
42.3100 428.0000 1.0000
42.3200 433.0000 1.0000
42.3300 429.0000 1.0000
42.3400 439.0000 1.0000
42.3500 427.0000 1.0000
42.3600 451.0000 1.0000
42.3700 421.0000 1.0000
42.3800 453.0000 1.0000
42.3900 428.0000 1.0000
42.4000 450.0000 1.0000
42.4100 416.0000 1.0000
42.4200 414.0000 1.0000
42.4300 433.0000 1.0000
42.4400 435.0000 1.0000
42.4500 458.0000 1.0000
42.4600 455.0000 1.0000
42.4700 438.0000 1.0000
42.4800 412.0000 1.0000
42.4900 427.0000 1.0000
42.5000 455.0000 1.0000
42.5100 446.0000 1.0000
42.5200 406.0000 1.0000
42.5300 406.0000 1.0000
42.5400 426.0000 1.0000
42.5500 418.0000 1.0000
42.5600 402.0000 1.0000
42.5700 412.0000 1.0000
42.5800 413.0000 1.0000
42.5900 427.0000 1.0000
42.6000 386.0000 1.0000
42.6100 368.0000 1.0000
42.6200 387.0000 1.0000
42.6300 410.0000 1.0000
42.6400 413.0000 1.0000
42.6500 395.0000 1.0000
42.6600 419.0000 1.0000
42.6700 452.0000 1.0000
42.6800 419.0000 1.0000
42.6900 419.0000 1.0000
42.7000 396.0000 1.0000
42.7100 426.0000 1.0000
42.7200 379.0000 1.0000
42.7300 396.0000 1.0000
42.7400 404.0000 1.0000
42.7500 402.0000 1.0000
42.7600 394.0000 1.0000
42.7700 431.0000 1.0000
42.7800 395.0000 1.0000
42.7900 414.0000 1.0000
42.8000 392.0000 1.0000
42.8100 423.0000 1.0000
42.8200 394.0000 1.0000
42.8300 368.0000 1.0000
42.8400 390.0000 1.0000
42.8500 430.0000 1.0000
42.8600 409.0000 1.0000
42.8700 427.0000 1.0000
42.8800 386.0000 1.0000
42.8900 364.0000 1.0000
42.9000 402.0000 1.0000
42.9100 386.0000 1.0000
42.9200 389.0000 1.0000
42.9300 391.0000 1.0000
42.9400 418.0000 1.0000
42.9500 387.0000 1.0000
42.9600 397.0000 1.0000
42.9700 432.0000 1.0000
42.9800 419.0000 1.0000
42.9900 403.0000 1.0000
43.0000 387.0000 1.0000
43.0100 398.0000 1.0000
43.0200 340.0000 1.0000
43.0300 377.0000 1.0000
43.0400 405.0000 1.0000
43.0500 423.0000 1.0000
43.0600 384.0000 1.0000
43.0700 371.0000 1.0000
43.0800 407.0000 1.0000
43.0900 392.0000 1.0000
43.1000 411.0000 1.0000
43.1100 389.0000 1.0000
43.1200 405.0000 1.0000
43.1300 407.0000 1.0000
43.1400 429.0000 1.0000
43.1500 399.0000 1.0000
43.1600 391.0000 1.0000
43.1700 388.0000 1.0000
43.1800 378.0000 1.0000
43.1900 394.0000 1.0000
43.2000 375.0000 1.0000
43.2100 363.0000 1.0000
43.2200 418.0000 1.0000
43.2300 414.0000 1.0000
43.2400 409.0000 1.0000
43.2500 373.0000 1.0000
43.2600 376.0000 1.0000
43.2700 419.0000 1.0000
43.2800 420.0000 1.0000
43.2900 418.0000 1.0000
43.3000 394.0000 1.0000
43.3100 383.0000 1.0000
43.3200 393.0000 1.0000
43.3300 403.0000 1.0000
43.3400 412.0000 1.0000
43.3500 399.0000 1.0000
43.3600 374.0000 1.0000
43.3700 402.0000 1.0000
43.3800 405.0000 1.0000
43.3900 391.0000 1.0000
43.4000 386.0000 1.0000
43.4100 362.0000 1.0000
43.4200 363.0000 1.0000
43.4300 405.0000 1.0000
43.4400 405.0000 1.0000
43.4500 405.0000 1.0000
43.4600 403.0000 1.0000
43.4700 406.0000 1.0000
43.4800 361.0000 1.0000
43.4900 398.0000 1.0000
43.5000 408.0000 1.0000
43.5100 384.0000 1.0000
43.5200 396.0000 1.0000
43.5300 391.0000 1.0000
43.5400 420.0000 1.0000
43.5500 390.0000 1.0000
43.5600 385.0000 1.0000
43.5700 395.0000 1.0000
43.5800 392.0000 1.0000
43.5900 379.0000 1.0000
43.6000 419.0000 1.0000
43.6100 373.0000 1.0000
43.6200 391.0000 1.0000
43.6300 364.0000 1.0000
43.6400 400.0000 1.0000
43.6500 418.0000 1.0000
43.6600 366.0000 1.0000
43.6700 415.0000 1.0000
43.6800 415.0000 1.0000
43.6900 403.0000 1.0000
43.7000 410.0000 1.0000
43.7100 382.0000 1.0000
43.7200 387.0000 1.0000
43.7300 386.0000 1.0000
43.7400 388.0000 1.0000
43.7500 380.0000 1.0000
43.7600 361.0000 1.0000
43.7700 387.0000 1.0000
43.7800 431.0000 1.0000
43.7900 424.0000 1.0000
43.8000 388.0000 1.0000
43.8100 407.0000 1.0000
43.8200 379.0000 1.0000
43.8300 377.0000 1.0000
43.8400 373.0000 1.0000
43.8500 370.0000 1.0000
43.8600 397.0000 1.0000
43.8700 357.0000 1.0000
43.8800 385.0000 1.0000
43.8900 375.0000 1.0000
43.9000 388.0000 1.0000
43.9100 362.0000 1.0000
43.9200 381.0000 1.0000
43.9300 401.0000 1.0000
43.9400 386.0000 1.0000
43.9500 388.0000 1.0000
43.9600 372.0000 1.0000
43.9700 363.0000 1.0000
43.9800 393.0000 1.0000
43.9900 399.0000 1.0000
44.0000 366.0000 1.0000
44.0100 372.0000 1.0000
44.0200 366.0000 1.0000
44.0300 392.0000 1.0000
44.0400 396.0000 1.0000
44.0500 385.0000 1.0000
44.0600 367.0000 1.0000
44.0700 377.0000 1.0000
44.0800 402.0000 1.0000
44.0900 391.0000 1.0000
44.1000 387.0000 1.0000
44.1100 425.0000 1.0000
44.1200 387.0000 1.0000
44.1300 351.0000 1.0000
44.1400 399.0000 1.0000
44.1500 387.0000 1.0000
44.1600 365.0000 1.0000
44.1700 382.0000 1.0000
44.1800 395.0000 1.0000
44.1900 388.0000 1.0000
44.2000 423.0000 1.0000
44.2100 381.0000 1.0000
44.2200 406.0000 1.0000
44.2300 378.0000 1.0000
44.2400 351.0000 1.0000
44.2500 369.0000 1.0000
44.2600 366.0000 1.0000
44.2700 379.0000 1.0000
44.2800 389.0000 1.0000
44.2900 395.0000 1.0000
44.3000 360.0000 1.0000
44.3100 391.0000 1.0000
44.3200 394.0000 1.0000
44.3300 388.0000 1.0000
44.3400 363.0000 1.0000
44.3500 406.0000 1.0000
44.3600 405.0000 1.0000
44.3700 405.0000 1.0000
44.3800 396.0000 1.0000
44.3900 383.0000 1.0000
44.4000 380.0000 1.0000
44.4100 392.0000 1.0000
44.4200 381.0000 1.0000
44.4300 420.0000 1.0000
44.4400 351.0000 1.0000
44.4500 361.0000 1.0000
44.4600 364.0000 1.0000
44.4700 363.0000 1.0000
44.4800 381.0000 1.0000
44.4900 388.0000 1.0000
44.5000 402.0000 1.0000
44.5100 411.0000 1.0000
44.5200 390.0000 1.0000
44.5300 394.0000 1.0000
44.5400 370.0000 1.0000
44.5500 377.0000 1.0000
44.5600 348.0000 1.0000
44.5700 378.0000 1.0000
44.5800 403.0000 1.0000
44.5900 377.0000 1.0000
44.6000 390.0000 1.0000
44.6100 378.0000 1.0000
44.6200 390.0000 1.0000
44.6300 397.0000 1.0000
44.6400 363.0000 1.0000
44.6500 393.0000 1.0000
44.6600 359.0000 1.0000
44.6700 380.0000 1.0000
44.6800 395.0000 1.0000
44.6900 393.0000 1.0000
44.7000 403.0000 1.0000
44.7100 399.0000 1.0000
44.7200 388.0000 1.0000
44.7300 363.0000 1.0000
44.7400 365.0000 1.0000
44.7500 391.0000 1.0000
44.7600 399.0000 1.0000
44.7700 387.0000 1.0000
44.7800 371.0000 1.0000
44.7900 354.0000 1.0000
44.8000 348.0000 1.0000
44.8100 341.0000 1.0000
44.8200 363.0000 1.0000
44.8300 360.0000 1.0000
44.8400 367.0000 1.0000
44.8500 387.0000 1.0000
44.8600 367.0000 1.0000
44.8700 353.0000 1.0000
44.8800 381.0000 1.0000
44.8900 409.0000 1.0000
44.9000 410.0000 1.0000
44.9100 406.0000 1.0000
44.9200 376.0000 1.0000
44.9300 400.0000 1.0000
44.9400 391.0000 1.0000
44.9500 380.0000 1.0000
44.9600 360.0000 1.0000
44.9700 386.0000 1.0000
44.9800 398.0000 1.0000
44.9900 369.0000 1.0000
45.0000 369.0000 1.0000
45.0100 390.0000 1.0000
45.0200 346.0000 1.0000
45.0300 340.0000 1.0000
45.0400 378.0000 1.0000
45.0500 404.0000 1.0000
45.0600 371.0000 1.0000
45.0700 345.0000 1.0000
45.0800 383.0000 1.0000
45.0900 409.0000 1.0000
45.1000 359.0000 1.0000
45.1100 399.0000 1.0000
45.1200 396.0000 1.0000
45.1300 375.0000 1.0000
45.1400 345.0000 1.0000
45.1500 352.0000 1.0000
45.1600 359.0000 1.0000
45.1700 370.0000 1.0000
45.1800 422.0000 1.0000
45.1900 385.0000 1.0000
45.2000 379.0000 1.0000
45.2100 369.0000 1.0000
45.2200 384.0000 1.0000
45.2300 374.0000 1.0000
45.2400 375.0000 1.0000
45.2500 351.0000 1.0000
45.2600 373.0000 1.0000
45.2700 364.0000 1.0000
45.2800 331.0000 1.0000
45.2900 367.0000 1.0000
45.3000 364.0000 1.0000
45.3100 355.0000 1.0000
45.3200 371.0000 1.0000
45.3300 384.0000 1.0000
45.3400 372.0000 1.0000
45.3500 381.0000 1.0000
45.3600 375.0000 1.0000
45.3700 387.0000 1.0000
45.3800 380.0000 1.0000
45.3900 398.0000 1.0000
45.4000 369.0000 1.0000
45.4100 370.0000 1.0000
45.4200 368.0000 1.0000
45.4300 358.0000 1.0000
45.4400 376.0000 1.0000
45.4500 376.0000 1.0000
45.4600 387.0000 1.0000
45.4700 390.0000 1.0000
45.4800 392.0000 1.0000
45.4900 416.0000 1.0000
45.5000 360.0000 1.0000
45.5100 365.0000 1.0000
45.5200 354.0000 1.0000
45.5300 379.0000 1.0000
45.5400 340.0000 1.0000
45.5500 413.0000 1.0000
45.5600 349.0000 1.0000
45.5700 375.0000 1.0000
45.5800 364.0000 1.0000
45.5900 365.0000 1.0000
45.6000 369.0000 1.0000
45.6100 373.0000 1.0000
45.6200 365.0000 1.0000
45.6300 373.0000 1.0000
45.6400 369.0000 1.0000
45.6500 335.0000 1.0000
45.6600 385.0000 1.0000
45.6700 369.0000 1.0000
45.6800 377.0000 1.0000
45.6900 391.0000 1.0000
45.7000 372.0000 1.0000
45.7100 366.0000 1.0000
45.7200 377.0000 1.0000
45.7300 360.0000 1.0000
45.7400 340.0000 1.0000
45.7500 328.0000 1.0000
45.7600 377.0000 1.0000
45.7700 369.0000 1.0000
45.7800 337.0000 1.0000
45.7900 385.0000 1.0000
45.8000 364.0000 1.0000
45.8100 356.0000 1.0000
45.8200 357.0000 1.0000
45.8300 364.0000 1.0000
45.8400 375.0000 1.0000
45.8500 394.0000 1.0000
45.8600 378.0000 1.0000
45.8700 388.0000 1.0000
45.8800 364.0000 1.0000
45.8900 384.0000 1.0000
45.9000 350.0000 1.0000
45.9100 357.0000 1.0000
45.9200 354.0000 1.0000
45.9300 389.0000 1.0000
45.9400 350.0000 1.0000
45.9500 351.0000 1.0000
45.9600 369.0000 1.0000
45.9700 379.0000 1.0000
45.9800 369.0000 1.0000
45.9900 343.0000 1.0000
46.0000 361.0000 1.0000
46.0100 392.0000 1.0000
46.0200 371.0000 1.0000
46.0300 358.0000 1.0000
46.0400 324.0000 1.0000
46.0500 365.0000 1.0000
46.0600 361.0000 1.0000
46.0700 377.0000 1.0000
46.0800 374.0000 1.0000
46.0900 372.0000 1.0000
46.1000 381.0000 1.0000
46.1100 387.0000 1.0000
46.1200 370.0000 1.0000
46.1300 400.0000 1.0000
46.1400 366.0000 1.0000
46.1500 368.0000 1.0000
46.1600 375.0000 1.0000
46.1700 380.0000 1.0000
46.1800 391.0000 1.0000
46.1900 382.0000 1.0000
46.2000 410.0000 1.0000
46.2100 398.0000 1.0000
46.2200 353.0000 1.0000
46.2300 390.0000 1.0000
46.2400 403.0000 1.0000
46.2500 408.0000 1.0000
46.2600 383.0000 1.0000
46.2700 376.0000 1.0000
46.2800 364.0000 1.0000
46.2900 349.0000 1.0000
46.3000 353.0000 1.0000
46.3100 354.0000 1.0000
46.3200 349.0000 1.0000
46.3300 363.0000 1.0000
46.3400 352.0000 1.0000
46.3500 358.0000 1.0000
46.3600 334.0000 1.0000
46.3700 372.0000 1.0000
46.3800 363.0000 1.0000
46.3900 367.0000 1.0000
46.4000 364.0000 1.0000
46.4100 386.0000 1.0000
46.4200 381.0000 1.0000
46.4300 347.0000 1.0000
46.4400 327.0000 1.0000
46.4500 379.0000 1.0000
46.4600 356.0000 1.0000
46.4700 364.0000 1.0000
46.4800 337.0000 1.0000
46.4900 366.0000 1.0000
46.5000 328.0000 1.0000
46.5100 326.0000 1.0000
46.5200 344.0000 1.0000
46.5300 345.0000 1.0000
46.5400 356.0000 1.0000
46.5500 340.0000 1.0000
46.5600 350.0000 1.0000
46.5700 328.0000 1.0000
46.5800 354.0000 1.0000
46.5900 389.0000 1.0000
46.6000 337.0000 1.0000
46.6100 380.0000 1.0000
46.6200 357.0000 1.0000
46.6300 325.0000 1.0000
46.6400 325.0000 1.0000
46.6500 366.0000 1.0000
46.6600 380.0000 1.0000
46.6700 356.0000 1.0000
46.6800 344.0000 1.0000
46.6900 326.0000 1.0000
46.7000 347.0000 1.0000
46.7100 308.0000 1.0000
46.7200 362.0000 1.0000
46.7300 357.0000 1.0000
46.7400 390.0000 1.0000
46.7500 377.0000 1.0000
46.7600 339.0000 1.0000
46.7700 317.0000 1.0000
46.7800 339.0000 1.0000
46.7900 353.0000 1.0000
46.8000 349.0000 1.0000
46.8100 349.0000 1.0000
46.8200 353.0000 1.0000
46.8300 375.0000 1.0000
46.8400 390.0000 1.0000
46.8500 361.0000 1.0000
46.8600 378.0000 1.0000
46.8700 375.0000 1.0000
46.8800 338.0000 1.0000
46.8900 348.0000 1.0000
46.9000 338.0000 1.0000
46.9100 376.0000 1.0000
46.9200 342.0000 1.0000
46.9300 352.0000 1.0000
46.9400 359.0000 1.0000
46.9500 334.0000 1.0000
46.9600 343.0000 1.0000
46.9700 338.0000 1.0000
46.9800 344.0000 1.0000
46.9900 347.0000 1.0000
47.0000 348.0000 1.0000
47.0100 342.0000 1.0000
47.0200 334.0000 1.0000
47.0300 332.0000 1.0000
47.0400 355.0000 1.0000
47.0500 361.0000 1.0000
47.0600 346.0000 1.0000
47.0700 372.0000 1.0000
47.0800 344.0000 1.0000
47.0900 375.0000 1.0000
47.1000 366.0000 1.0000
47.1100 376.0000 1.0000
47.1200 339.0000 1.0000
47.1300 360.0000 1.0000
47.1400 350.0000 1.0000
47.1500 356.0000 1.0000
47.1600 319.0000 1.0000
47.1700 318.0000 1.0000
47.1800 349.0000 1.0000
47.1900 327.0000 1.0000
47.2000 332.0000 1.0000
47.2100 337.0000 1.0000
47.2200 344.0000 1.0000
47.2300 366.0000 1.0000
47.2400 353.0000 1.0000
47.2500 352.0000 1.0000
47.2600 322.0000 1.0000
47.2700 337.0000 1.0000
47.2800 363.0000 1.0000
47.2900 355.0000 1.0000
47.3000 340.0000 1.0000
47.3100 349.0000 1.0000
47.3200 344.0000 1.0000
47.3300 326.0000 1.0000
47.3400 349.0000 1.0000
47.3500 353.0000 1.0000
47.3600 372.0000 1.0000
47.3700 337.0000 1.0000
47.3800 365.0000 1.0000
47.3900 354.0000 1.0000
47.4000 364.0000 1.0000
47.4100 378.0000 1.0000
47.4200 343.0000 1.0000
47.4300 346.0000 1.0000
47.4400 315.0000 1.0000
47.4500 337.0000 1.0000
47.4600 386.0000 1.0000
47.4700 396.0000 1.0000
47.4800 366.0000 1.0000
47.4900 343.0000 1.0000
47.5000 370.0000 1.0000
47.5100 378.0000 1.0000
47.5200 336.0000 1.0000
47.5300 346.0000 1.0000
47.5400 344.0000 1.0000
47.5500 339.0000 1.0000
47.5600 361.0000 1.0000
47.5700 350.0000 1.0000
47.5800 337.0000 1.0000
47.5900 369.0000 1.0000
47.6000 348.0000 1.0000
47.6100 350.0000 1.0000
47.6200 368.0000 1.0000
47.6300 345.0000 1.0000
47.6400 365.0000 1.0000
47.6500 363.0000 1.0000
47.6600 362.0000 1.0000
47.6700 384.0000 1.0000
47.6800 326.0000 1.0000
47.6900 344.0000 1.0000
47.7000 323.0000 1.0000
47.7100 318.0000 1.0000
47.7200 353.0000 1.0000
47.7300 360.0000 1.0000
47.7400 351.0000 1.0000
47.7500 324.0000 1.0000
47.7600 336.0000 1.0000
47.7700 349.0000 1.0000
47.7800 347.0000 1.0000
47.7900 362.0000 1.0000
47.8000 373.0000 1.0000
47.8100 372.0000 1.0000
47.8200 354.0000 1.0000
47.8300 358.0000 1.0000
47.8400 361.0000 1.0000
47.8500 343.0000 1.0000
47.8600 338.0000 1.0000
47.8700 379.0000 1.0000
47.8800 335.0000 1.0000
47.8900 343.0000 1.0000
47.9000 330.0000 1.0000
47.9100 338.0000 1.0000
47.9200 337.0000 1.0000
47.9300 370.0000 1.0000
47.9400 344.0000 1.0000
47.9500 347.0000 1.0000
47.9600 347.0000 1.0000
47.9700 336.0000 1.0000
47.9800 352.0000 1.0000
47.9900 348.0000 1.0000
48.0000 340.0000 1.0000
48.0100 345.0000 1.0000
48.0200 344.0000 1.0000
48.0300 346.0000 1.0000
48.0400 351.0000 1.0000
48.0500 304.0000 1.0000
48.0600 335.0000 1.0000
48.0700 356.0000 1.0000
48.0800 375.0000 1.0000
48.0900 372.0000 1.0000
48.1000 353.0000 1.0000
48.1100 341.0000 1.0000
48.1200 354.0000 1.0000
48.1300 351.0000 1.0000
48.1400 318.0000 1.0000
48.1500 334.0000 1.0000
48.1600 342.0000 1.0000
48.1700 337.0000 1.0000
48.1800 353.0000 1.0000
48.1900 364.0000 1.0000
48.2000 324.0000 1.0000
48.2100 324.0000 1.0000
48.2200 351.0000 1.0000
48.2300 340.0000 1.0000
48.2400 337.0000 1.0000
48.2500 358.0000 1.0000
48.2600 348.0000 1.0000
48.2700 362.0000 1.0000
48.2800 359.0000 1.0000
48.2900 347.0000 1.0000
48.3000 353.0000 1.0000
48.3100 353.0000 1.0000
48.3200 330.0000 1.0000
48.3300 348.0000 1.0000
48.3400 331.0000 1.0000
48.3500 356.0000 1.0000
48.3600 335.0000 1.0000
48.3700 324.0000 1.0000
48.3800 352.0000 1.0000
48.3900 324.0000 1.0000
48.4000 339.0000 1.0000
48.4100 317.0000 1.0000
48.4200 331.0000 1.0000
48.4300 341.0000 1.0000
48.4400 326.0000 1.0000
48.4500 350.0000 1.0000
48.4600 337.0000 1.0000
48.4700 327.0000 1.0000
48.4800 348.0000 1.0000
48.4900 341.0000 1.0000
48.5000 371.0000 1.0000
48.5100 374.0000 1.0000
48.5200 365.0000 1.0000
48.5300 307.0000 1.0000
48.5400 342.0000 1.0000
48.5500 340.0000 1.0000
48.5600 344.0000 1.0000
48.5700 355.0000 1.0000
48.5800 364.0000 1.0000
48.5900 349.0000 1.0000
48.6000 343.0000 1.0000
48.6100 332.0000 1.0000
48.6200 331.0000 1.0000
48.6300 346.0000 1.0000
48.6400 346.0000 1.0000
48.6500 356.0000 1.0000
48.6600 371.0000 1.0000
48.6700 345.0000 1.0000
48.6800 314.0000 1.0000
48.6900 317.0000 1.0000
48.7000 361.0000 1.0000
48.7100 333.0000 1.0000
48.7200 348.0000 1.0000
48.7300 337.0000 1.0000
48.7400 342.0000 1.0000
48.7500 344.0000 1.0000
48.7600 356.0000 1.0000
48.7700 336.0000 1.0000
48.7800 329.0000 1.0000
48.7900 332.0000 1.0000
48.8000 361.0000 1.0000
48.8100 357.0000 1.0000
48.8200 344.0000 1.0000
48.8300 330.0000 1.0000
48.8400 330.0000 1.0000
48.8500 331.0000 1.0000
48.8600 371.0000 1.0000
48.8700 362.0000 1.0000
48.8800 382.0000 1.0000
48.8900 323.0000 1.0000
48.9000 351.0000 1.0000
48.9100 366.0000 1.0000
48.9200 360.0000 1.0000
48.9300 335.0000 1.0000
48.9400 368.0000 1.0000
48.9500 350.0000 1.0000
48.9600 346.0000 1.0000
48.9700 347.0000 1.0000
48.9800 334.0000 1.0000
48.9900 348.0000 1.0000
49.0000 347.0000 1.0000
49.0100 367.0000 1.0000
49.0200 374.0000 1.0000
49.0300 354.0000 1.0000
49.0400 352.0000 1.0000
49.0500 328.0000 1.0000
49.0600 329.0000 1.0000
49.0700 310.0000 1.0000
49.0800 346.0000 1.0000
49.0900 336.0000 1.0000
49.1000 323.0000 1.0000
49.1100 342.0000 1.0000
49.1200 346.0000 1.0000
49.1300 356.0000 1.0000
49.1400 355.0000 1.0000
49.1500 356.0000 1.0000
49.1600 375.0000 1.0000
49.1700 346.0000 1.0000
49.1800 345.0000 1.0000
49.1900 341.0000 1.0000
49.2000 349.0000 1.0000
49.2100 366.0000 1.0000
49.2200 360.0000 1.0000
49.2300 361.0000 1.0000
49.2400 352.0000 1.0000
49.2500 333.0000 1.0000
49.2600 373.0000 1.0000
49.2700 339.0000 1.0000
49.2800 356.0000 1.0000
49.2900 361.0000 1.0000
49.3000 382.0000 1.0000
49.3100 376.0000 1.0000
49.3200 363.0000 1.0000
49.3300 376.0000 1.0000
49.3400 363.0000 1.0000
49.3500 422.0000 1.0000
49.3600 410.0000 1.0000
49.3700 381.0000 1.0000
49.3800 422.0000 1.0000
49.3900 376.0000 1.0000
49.4000 393.0000 1.0000
49.4100 379.0000 1.0000
49.4200 375.0000 1.0000
49.4300 388.0000 1.0000
49.4400 374.0000 1.0000
49.4500 360.0000 1.0000
49.4600 395.0000 1.0000
49.4700 384.0000 1.0000
49.4800 403.0000 1.0000
49.4900 371.0000 1.0000
49.5000 389.0000 1.0000
49.5100 392.0000 1.0000
49.5200 389.0000 1.0000
49.5300 368.0000 1.0000
49.5400 381.0000 1.0000
49.5500 407.0000 1.0000
49.5600 366.0000 1.0000
49.5700 372.0000 1.0000
49.5800 376.0000 1.0000
49.5900 351.0000 1.0000
49.6000 363.0000 1.0000
49.6100 354.0000 1.0000
49.6200 356.0000 1.0000
49.6300 353.0000 1.0000
49.6400 360.0000 1.0000
49.6500 370.0000 1.0000
49.6600 378.0000 1.0000
49.6700 372.0000 1.0000
49.6800 374.0000 1.0000
49.6900 386.0000 1.0000
49.7000 339.0000 1.0000
49.7100 376.0000 1.0000
49.7200 370.0000 1.0000
49.7300 370.0000 1.0000
49.7400 355.0000 1.0000
49.7500 383.0000 1.0000
49.7600 345.0000 1.0000
49.7700 355.0000 1.0000
49.7800 358.0000 1.0000
49.7900 387.0000 1.0000
49.8000 347.0000 1.0000
49.8100 370.0000 1.0000
49.8200 368.0000 1.0000
49.8300 343.0000 1.0000
49.8400 324.0000 1.0000
49.8500 362.0000 1.0000
49.8600 371.0000 1.0000
49.8700 325.0000 1.0000
49.8800 368.0000 1.0000
49.8900 346.0000 1.0000
49.9000 346.0000 1.0000
49.9100 357.0000 1.0000
49.9200 330.0000 1.0000
49.9300 346.0000 1.0000
49.9400 347.0000 1.0000
49.9500 377.0000 1.0000
49.9600 356.0000 1.0000
49.9700 358.0000 1.0000
49.9800 373.0000 1.0000
49.9900 370.0000 1.0000
50.0000 357.0000 1.0000
50.0100 354.0000 1.0000
50.0200 341.0000 1.0000
50.0300 321.0000 1.0000
50.0400 348.0000 1.0000
50.0500 330.0000 1.0000
50.0600 359.0000 1.0000
50.0700 355.0000 1.0000
50.0800 349.0000 1.0000
50.0900 331.0000 1.0000
50.1000 361.0000 1.0000
50.1100 341.0000 1.0000
50.1200 339.0000 1.0000
50.1300 350.0000 1.0000
50.1400 356.0000 1.0000
50.1500 346.0000 1.0000
50.1600 352.0000 1.0000
50.1700 319.0000 1.0000
50.1800 338.0000 1.0000
50.1900 335.0000 1.0000
50.2000 298.0000 1.0000
50.2100 346.0000 1.0000
50.2200 322.0000 1.0000
50.2300 330.0000 1.0000
50.2400 352.0000 1.0000
50.2500 339.0000 1.0000
50.2600 350.0000 1.0000
50.2700 356.0000 1.0000
50.2800 340.0000 1.0000
50.2900 355.0000 1.0000
50.3000 347.0000 1.0000
50.3100 338.0000 1.0000
50.3200 334.0000 1.0000
50.3300 350.0000 1.0000
50.3400 359.0000 1.0000
50.3500 333.0000 1.0000
50.3600 354.0000 1.0000
50.3700 364.0000 1.0000
50.3800 362.0000 1.0000
50.3900 364.0000 1.0000
50.4000 320.0000 1.0000
50.4100 335.0000 1.0000
50.4200 364.0000 1.0000
50.4300 335.0000 1.0000
50.4400 384.0000 1.0000
50.4500 329.0000 1.0000
50.4600 370.0000 1.0000
50.4700 381.0000 1.0000
50.4800 344.0000 1.0000
50.4900 357.0000 1.0000
50.5000 342.0000 1.0000
50.5100 353.0000 1.0000
50.5200 345.0000 1.0000
50.5300 347.0000 1.0000
50.5400 342.0000 1.0000
50.5500 366.0000 1.0000
50.5600 384.0000 1.0000
50.5700 359.0000 1.0000
50.5800 331.0000 1.0000
50.5900 331.0000 1.0000
50.6000 344.0000 1.0000
50.6100 378.0000 1.0000
50.6200 351.0000 1.0000
50.6300 331.0000 1.0000
50.6400 346.0000 1.0000
50.6500 350.0000 1.0000
50.6600 357.0000 1.0000
50.6700 358.0000 1.0000
50.6800 353.0000 1.0000
50.6900 345.0000 1.0000
50.7000 365.0000 1.0000
50.7100 376.0000 1.0000
50.7200 357.0000 1.0000
50.7300 368.0000 1.0000
50.7400 336.0000 1.0000
50.7500 364.0000 1.0000
50.7600 359.0000 1.0000
50.7700 331.0000 1.0000
50.7800 351.0000 1.0000
50.7900 370.0000 1.0000
50.8000 358.0000 1.0000
50.8100 347.0000 1.0000
50.8200 365.0000 1.0000
50.8300 394.0000 1.0000
50.8400 345.0000 1.0000
50.8500 364.0000 1.0000
50.8600 377.0000 1.0000
50.8700 350.0000 1.0000
50.8800 344.0000 1.0000
50.8900 338.0000 1.0000
50.9000 363.0000 1.0000
50.9100 358.0000 1.0000
50.9200 353.0000 1.0000
50.9300 351.0000 1.0000
50.9400 398.0000 1.0000
50.9500 389.0000 1.0000
50.9600 392.0000 1.0000
50.9700 340.0000 1.0000
50.9800 401.0000 1.0000
50.9900 390.0000 1.0000
51.0000 381.0000 1.0000
51.0100 386.0000 1.0000
51.0200 386.0000 1.0000
51.0300 359.0000 1.0000
51.0400 394.0000 1.0000
51.0500 422.0000 1.0000
51.0600 407.0000 1.0000
51.0700 420.0000 1.0000
51.0800 379.0000 1.0000
51.0900 395.0000 1.0000
51.1000 417.0000 1.0000
51.1100 412.0000 1.0000
51.1200 449.0000 1.0000
51.1300 434.0000 1.0000
51.1400 433.0000 1.0000
51.1500 435.0000 1.0000
51.1600 484.0000 1.0000
51.1700 459.0000 1.0000
51.1800 484.0000 1.0000
51.1900 462.0000 1.0000
51.2000 515.0000 1.0000
51.2100 501.0000 1.0000
51.2200 549.0000 1.0000
51.2300 537.0000 1.0000
51.2400 566.0000 1.0000
51.2500 596.0000 1.0000
51.2600 617.0000 1.0000
51.2700 616.0000 1.0000
51.2800 686.0000 1.0000
51.2900 708.0000 1.0000
51.3000 801.0000 1.0000
51.3100 870.0000 1.0000
51.3200 858.0000 1.0000
51.3300 906.0000 1.0000
51.3400 998.0000 1.0000
51.3500 1068.0000 1.0000
51.3600 1114.0000 1.0000
51.3700 1188.0000 1.0000
51.3800 1310.0000 1.0000
51.3900 1360.0000 1.0000
51.4000 1501.0000 1.0000
51.4100 1614.0000 1.0000
51.4200 1701.0000 1.0000
51.4300 1826.0000 1.0000
51.4400 1963.0000 1.0000
51.4500 1986.0000 1.0000
51.4600 2103.0000 1.0000
51.4700 2138.0000 1.0000
51.4800 2148.0000 1.0000
51.4900 2216.0000 1.0000
51.5000 2171.0000 1.0000
51.5100 2117.0000 1.0000
51.5200 2162.0000 1.0000
51.5300 2114.0000 1.0000
51.5400 1978.0000 1.0000
51.5500 1978.0000 1.0000
51.5600 1898.0000 1.0000
51.5700 1889.0000 1.0000
51.5800 1755.0000 1.0000
51.5900 1718.0000 1.0000
51.6000 1602.0000 1.0000
51.6100 1585.0000 1.0000
51.6200 1562.0000 1.0000
51.6300 1513.0000 1.0000
51.6400 1461.0000 1.0000
51.6500 1345.0000 1.0000
51.6600 1341.0000 1.0000
51.6700 1257.0000 1.0000
51.6800 1110.0000 1.0000
51.6900 1084.0000 1.0000
51.7000 1004.0000 1.0000
51.7100 975.0000 1.0000
51.7200 921.0000 1.0000
51.7300 837.0000 1.0000
51.7400 752.0000 1.0000
51.7500 784.0000 1.0000
51.7600 718.0000 1.0000
51.7700 697.0000 1.0000
51.7800 628.0000 1.0000
51.7900 615.0000 1.0000
51.8000 578.0000 1.0000
51.8100 555.0000 1.0000
51.8200 501.0000 1.0000
51.8300 526.0000 1.0000
51.8400 488.0000 1.0000
51.8500 517.0000 1.0000
51.8600 499.0000 1.0000
51.8700 489.0000 1.0000
51.8800 500.0000 1.0000
51.8900 471.0000 1.0000
51.9000 430.0000 1.0000
51.9100 458.0000 1.0000
51.9200 475.0000 1.0000
51.9300 464.0000 1.0000
51.9400 448.0000 1.0000
51.9500 428.0000 1.0000
51.9600 408.0000 1.0000
51.9700 426.0000 1.0000
51.9800 408.0000 1.0000
51.9900 389.0000 1.0000
52.0000 397.0000 1.0000
52.0100 378.0000 1.0000
52.0200 396.0000 1.0000
52.0300 399.0000 1.0000
52.0400 390.0000 1.0000
52.0500 409.0000 1.0000
52.0600 386.0000 1.0000
52.0700 382.0000 1.0000
52.0800 375.0000 1.0000
52.0900 404.0000 1.0000
52.1000 413.0000 1.0000
52.1100 401.0000 1.0000
52.1200 374.0000 1.0000
52.1300 362.0000 1.0000
52.1400 366.0000 1.0000
52.1500 362.0000 1.0000
52.1600 341.0000 1.0000
52.1700 355.0000 1.0000
52.1800 370.0000 1.0000
52.1900 369.0000 1.0000
52.2000 374.0000 1.0000
52.2100 362.0000 1.0000
52.2200 359.0000 1.0000
52.2300 355.0000 1.0000
52.2400 386.0000 1.0000
52.2500 338.0000 1.0000
52.2600 351.0000 1.0000
52.2700 348.0000 1.0000
52.2800 357.0000 1.0000
52.2900 326.0000 1.0000
52.3000 363.0000 1.0000
52.3100 361.0000 1.0000
52.3200 357.0000 1.0000
52.3300 368.0000 1.0000
52.3400 327.0000 1.0000
52.3500 360.0000 1.0000
52.3600 367.0000 1.0000
52.3700 362.0000 1.0000
52.3800 358.0000 1.0000
52.3900 383.0000 1.0000
52.4000 370.0000 1.0000
52.4100 345.0000 1.0000
52.4200 355.0000 1.0000
52.4300 337.0000 1.0000
52.4400 337.0000 1.0000
52.4500 358.0000 1.0000
52.4600 348.0000 1.0000
52.4700 359.0000 1.0000
52.4800 350.0000 1.0000
52.4900 337.0000 1.0000
52.5000 337.0000 1.0000
52.5100 356.0000 1.0000
52.5200 359.0000 1.0000
52.5300 347.0000 1.0000
52.5400 368.0000 1.0000
52.5500 327.0000 1.0000
52.5600 329.0000 1.0000
52.5700 351.0000 1.0000
52.5800 345.0000 1.0000
52.5900 337.0000 1.0000
52.6000 318.0000 1.0000
52.6100 364.0000 1.0000
52.6200 345.0000 1.0000
52.6300 333.0000 1.0000
52.6400 316.0000 1.0000
52.6500 357.0000 1.0000
52.6600 350.0000 1.0000
52.6700 323.0000 1.0000
52.6800 334.0000 1.0000
52.6900 330.0000 1.0000
52.7000 316.0000 1.0000
52.7100 313.0000 1.0000
52.7200 362.0000 1.0000
52.7300 366.0000 1.0000
52.7400 341.0000 1.0000
52.7500 333.0000 1.0000
52.7600 354.0000 1.0000
52.7700 353.0000 1.0000
52.7800 352.0000 1.0000
52.7900 343.0000 1.0000
52.8000 329.0000 1.0000
52.8100 307.0000 1.0000
52.8200 343.0000 1.0000
52.8300 334.0000 1.0000
52.8400 331.0000 1.0000
52.8500 317.0000 1.0000
52.8600 327.0000 1.0000
52.8700 351.0000 1.0000
52.8800 342.0000 1.0000
52.8900 341.0000 1.0000
52.9000 343.0000 1.0000
52.9100 348.0000 1.0000
52.9200 333.0000 1.0000
52.9300 335.0000 1.0000
52.9400 334.0000 1.0000
52.9500 312.0000 1.0000
52.9600 284.0000 1.0000
52.9700 308.0000 1.0000
52.9800 304.0000 1.0000
52.9900 343.0000 1.0000
53.0000 322.0000 1.0000
53.0100 321.0000 1.0000
53.0200 314.0000 1.0000
53.0300 322.0000 1.0000
53.0400 325.0000 1.0000
53.0500 344.0000 1.0000
53.0600 368.0000 1.0000
53.0700 317.0000 1.0000
53.0800 338.0000 1.0000
53.0900 344.0000 1.0000
53.1000 322.0000 1.0000
53.1100 294.0000 1.0000
53.1200 319.0000 1.0000
53.1300 344.0000 1.0000
53.1400 326.0000 1.0000
53.1500 342.0000 1.0000
53.1600 317.0000 1.0000
53.1700 340.0000 1.0000
53.1800 330.0000 1.0000
53.1900 340.0000 1.0000
53.2000 344.0000 1.0000
53.2100 319.0000 1.0000
53.2200 300.0000 1.0000
53.2300 345.0000 1.0000
53.2400 345.0000 1.0000
53.2500 355.0000 1.0000
53.2600 331.0000 1.0000
53.2700 322.0000 1.0000
53.2800 355.0000 1.0000
53.2900 346.0000 1.0000
53.3000 310.0000 1.0000
53.3100 329.0000 1.0000
53.3200 306.0000 1.0000
53.3300 327.0000 1.0000
53.3400 333.0000 1.0000
53.3500 307.0000 1.0000
53.3600 328.0000 1.0000
53.3700 324.0000 1.0000
53.3800 350.0000 1.0000
53.3900 334.0000 1.0000
53.4000 308.0000 1.0000
53.4100 308.0000 1.0000
53.4200 323.0000 1.0000
53.4300 346.0000 1.0000
53.4400 306.0000 1.0000
53.4500 304.0000 1.0000
53.4600 351.0000 1.0000
53.4700 348.0000 1.0000
53.4800 312.0000 1.0000
53.4900 319.0000 1.0000
53.5000 330.0000 1.0000
53.5100 322.0000 1.0000
53.5200 321.0000 1.0000
53.5300 321.0000 1.0000
53.5400 362.0000 1.0000
53.5500 331.0000 1.0000
53.5600 308.0000 1.0000
53.5700 377.0000 1.0000
53.5800 349.0000 1.0000
53.5900 366.0000 1.0000
53.6000 370.0000 1.0000
53.6100 359.0000 1.0000
53.6200 336.0000 1.0000
53.6300 310.0000 1.0000
53.6400 304.0000 1.0000
53.6500 357.0000 1.0000
53.6600 323.0000 1.0000
53.6700 320.0000 1.0000
53.6800 314.0000 1.0000
53.6900 303.0000 1.0000
53.7000 345.0000 1.0000
53.7100 360.0000 1.0000
53.7200 336.0000 1.0000
53.7300 345.0000 1.0000
53.7400 377.0000 1.0000
53.7500 358.0000 1.0000
53.7600 344.0000 1.0000
53.7700 368.0000 1.0000
53.7800 343.0000 1.0000
53.7900 378.0000 1.0000
53.8000 346.0000 1.0000
53.8100 343.0000 1.0000
53.8200 361.0000 1.0000
53.8300 343.0000 1.0000
53.8400 366.0000 1.0000
53.8500 340.0000 1.0000
53.8600 345.0000 1.0000
53.8700 364.0000 1.0000
53.8800 345.0000 1.0000
53.8900 352.0000 1.0000
53.9000 366.0000 1.0000
53.9100 346.0000 1.0000
53.9200 329.0000 1.0000
53.9300 364.0000 1.0000
53.9400 371.0000 1.0000
53.9500 360.0000 1.0000
53.9600 358.0000 1.0000
53.9700 375.0000 1.0000
53.9800 336.0000 1.0000
53.9900 383.0000 1.0000
54.0000 399.0000 1.0000
54.0100 369.0000 1.0000
54.0200 401.0000 1.0000
54.0300 396.0000 1.0000
54.0400 379.0000 1.0000
54.0500 361.0000 1.0000
54.0600 351.0000 1.0000
54.0700 351.0000 1.0000
54.0800 354.0000 1.0000
54.0900 358.0000 1.0000
54.1000 385.0000 1.0000
54.1100 375.0000 1.0000
54.1200 393.0000 1.0000
54.1300 397.0000 1.0000
54.1400 402.0000 1.0000
54.1500 358.0000 1.0000
54.1600 393.0000 1.0000
54.1700 394.0000 1.0000
54.1800 371.0000 1.0000
54.1900 393.0000 1.0000
54.2000 359.0000 1.0000
54.2100 364.0000 1.0000
54.2200 378.0000 1.0000
54.2300 393.0000 1.0000
54.2400 372.0000 1.0000
54.2500 395.0000 1.0000
54.2600 378.0000 1.0000
54.2700 362.0000 1.0000
54.2800 374.0000 1.0000
54.2900 391.0000 1.0000
54.3000 383.0000 1.0000
54.3100 387.0000 1.0000
54.3200 388.0000 1.0000
54.3300 385.0000 1.0000
54.3400 420.0000 1.0000
54.3500 409.0000 1.0000
54.3600 418.0000 1.0000
54.3700 405.0000 1.0000
54.3800 422.0000 1.0000
54.3900 449.0000 1.0000
54.4000 399.0000 1.0000
54.4100 409.0000 1.0000
54.4200 456.0000 1.0000
54.4300 462.0000 1.0000
54.4400 461.0000 1.0000
54.4500 462.0000 1.0000
54.4600 484.0000 1.0000
54.4700 505.0000 1.0000
54.4800 523.0000 1.0000
54.4900 511.0000 1.0000
54.5000 504.0000 1.0000
54.5100 512.0000 1.0000
54.5200 491.0000 1.0000
54.5300 493.0000 1.0000
54.5400 455.0000 1.0000
54.5500 479.0000 1.0000
54.5600 503.0000 1.0000
54.5700 467.0000 1.0000
54.5800 493.0000 1.0000
54.5900 460.0000 1.0000
54.6000 474.0000 1.0000
54.6100 466.0000 1.0000
54.6200 446.0000 1.0000
54.6300 473.0000 1.0000
54.6400 458.0000 1.0000
54.6500 460.0000 1.0000
54.6600 435.0000 1.0000
54.6700 442.0000 1.0000
54.6800 462.0000 1.0000
54.6900 449.0000 1.0000
54.7000 417.0000 1.0000
54.7100 434.0000 1.0000
54.7200 423.0000 1.0000
54.7300 442.0000 1.0000
54.7400 410.0000 1.0000
54.7500 412.0000 1.0000
54.7600 409.0000 1.0000
54.7700 367.0000 1.0000
54.7800 387.0000 1.0000
54.7900 386.0000 1.0000
54.8000 376.0000 1.0000
54.8100 378.0000 1.0000
54.8200 345.0000 1.0000
54.8300 394.0000 1.0000
54.8400 384.0000 1.0000
54.8500 356.0000 1.0000
54.8600 352.0000 1.0000
54.8700 312.0000 1.0000
54.8800 335.0000 1.0000
54.8900 350.0000 1.0000
54.9000 345.0000 1.0000
54.9100 331.0000 1.0000
54.9200 347.0000 1.0000
54.9300 364.0000 1.0000
54.9400 345.0000 1.0000
54.9500 346.0000 1.0000
54.9600 367.0000 1.0000
54.9700 312.0000 1.0000
54.9800 333.0000 1.0000
54.9900 342.0000 1.0000
55.0000 338.0000 1.0000
55.0100 348.0000 1.0000
55.0200 331.0000 1.0000
55.0300 319.0000 1.0000
55.0400 323.0000 1.0000
55.0500 319.0000 1.0000
55.0600 341.0000 1.0000
55.0700 337.0000 1.0000
55.0800 322.0000 1.0000
55.0900 322.0000 1.0000
55.1000 330.0000 1.0000
55.1100 322.0000 1.0000
55.1200 344.0000 1.0000
55.1300 326.0000 1.0000
55.1400 353.0000 1.0000
55.1500 341.0000 1.0000
55.1600 325.0000 1.0000
55.1700 327.0000 1.0000
55.1800 320.0000 1.0000
55.1900 348.0000 1.0000
55.2000 344.0000 1.0000
55.2100 318.0000 1.0000
55.2200 314.0000 1.0000
55.2300 306.0000 1.0000
55.2400 306.0000 1.0000
55.2500 337.0000 1.0000
55.2600 341.0000 1.0000
55.2700 322.0000 1.0000
55.2800 304.0000 1.0000
55.2900 294.0000 1.0000
55.3000 352.0000 1.0000
55.3100 350.0000 1.0000
55.3200 339.0000 1.0000
55.3300 308.0000 1.0000
55.3400 332.0000 1.0000
55.3500 323.0000 1.0000
55.3600 318.0000 1.0000
55.3700 305.0000 1.0000
55.3800 324.0000 1.0000
55.3900 333.0000 1.0000
55.4000 327.0000 1.0000
55.4100 343.0000 1.0000
55.4200 327.0000 1.0000
55.4300 323.0000 1.0000
55.4400 348.0000 1.0000
55.4500 311.0000 1.0000
55.4600 317.0000 1.0000
55.4700 322.0000 1.0000
55.4800 341.0000 1.0000
55.4900 312.0000 1.0000
55.5000 334.0000 1.0000
55.5100 352.0000 1.0000
55.5200 314.0000 1.0000
55.5300 334.0000 1.0000
55.5400 333.0000 1.0000
55.5500 332.0000 1.0000
55.5600 356.0000 1.0000
55.5700 335.0000 1.0000
55.5800 308.0000 1.0000
55.5900 303.0000 1.0000
55.6000 304.0000 1.0000
55.6100 283.0000 1.0000
55.6200 326.0000 1.0000
55.6300 331.0000 1.0000
55.6400 352.0000 1.0000
55.6500 326.0000 1.0000
55.6600 294.0000 1.0000
55.6700 315.0000 1.0000
55.6800 314.0000 1.0000
55.6900 326.0000 1.0000
55.7000 315.0000 1.0000
55.7100 328.0000 1.0000
55.7200 346.0000 1.0000
55.7300 321.0000 1.0000
55.7400 308.0000 1.0000
55.7500 309.0000 1.0000
55.7600 327.0000 1.0000
55.7700 313.0000 1.0000
55.7800 333.0000 1.0000
55.7900 325.0000 1.0000
55.8000 331.0000 1.0000
55.8100 332.0000 1.0000
55.8200 319.0000 1.0000
55.8300 295.0000 1.0000
55.8400 343.0000 1.0000
55.8500 330.0000 1.0000
55.8600 319.0000 1.0000
55.8700 300.0000 1.0000
55.8800 318.0000 1.0000
55.8900 319.0000 1.0000
55.9000 319.0000 1.0000
55.9100 297.0000 1.0000
55.9200 292.0000 1.0000
55.9300 299.0000 1.0000
55.9400 317.0000 1.0000
55.9500 316.0000 1.0000
55.9600 327.0000 1.0000
55.9700 288.0000 1.0000
55.9800 308.0000 1.0000
55.9900 333.0000 1.0000
56.0000 308.0000 1.0000
56.0100 325.0000 1.0000
56.0200 337.0000 1.0000
56.0300 287.0000 1.0000
56.0400 311.0000 1.0000
56.0500 316.0000 1.0000
56.0600 305.0000 1.0000
56.0700 289.0000 1.0000
56.0800 309.0000 1.0000
56.0900 311.0000 1.0000
56.1000 308.0000 1.0000
56.1100 331.0000 1.0000
56.1200 307.0000 1.0000
56.1300 326.0000 1.0000
56.1400 323.0000 1.0000
56.1500 324.0000 1.0000
56.1600 326.0000 1.0000
56.1700 306.0000 1.0000
56.1800 315.0000 1.0000
56.1900 299.0000 1.0000
56.2000 313.0000 1.0000
56.2100 344.0000 1.0000
56.2200 309.0000 1.0000
56.2300 289.0000 1.0000
56.2400 358.0000 1.0000
56.2500 335.0000 1.0000
56.2600 320.0000 1.0000
56.2700 306.0000 1.0000
56.2800 307.0000 1.0000
56.2900 318.0000 1.0000
56.3000 311.0000 1.0000
56.3100 278.0000 1.0000
56.3200 315.0000 1.0000
56.3300 292.0000 1.0000
56.3400 301.0000 1.0000
56.3500 308.0000 1.0000
56.3600 319.0000 1.0000
56.3700 329.0000 1.0000
56.3800 292.0000 1.0000
56.3900 309.0000 1.0000
56.4000 318.0000 1.0000
56.4100 305.0000 1.0000
56.4200 290.0000 1.0000
56.4300 314.0000 1.0000
56.4400 324.0000 1.0000
56.4500 332.0000 1.0000
56.4600 306.0000 1.0000
56.4700 319.0000 1.0000
56.4800 320.0000 1.0000
56.4900 341.0000 1.0000
56.5000 330.0000 1.0000
56.5100 301.0000 1.0000
56.5200 335.0000 1.0000
56.5300 312.0000 1.0000
56.5400 322.0000 1.0000
56.5500 333.0000 1.0000
56.5600 348.0000 1.0000
56.5700 313.0000 1.0000
56.5800 345.0000 1.0000
56.5900 323.0000 1.0000
56.6000 294.0000 1.0000
56.6100 341.0000 1.0000
56.6200 309.0000 1.0000
56.6300 331.0000 1.0000
56.6400 307.0000 1.0000
56.6500 326.0000 1.0000
56.6600 341.0000 1.0000
56.6700 301.0000 1.0000
56.6800 314.0000 1.0000
56.6900 311.0000 1.0000
56.7000 314.0000 1.0000
56.7100 330.0000 1.0000
56.7200 331.0000 1.0000
56.7300 341.0000 1.0000
56.7400 310.0000 1.0000
56.7500 281.0000 1.0000
56.7600 298.0000 1.0000
56.7700 304.0000 1.0000
56.7800 354.0000 1.0000
56.7900 292.0000 1.0000
56.8000 307.0000 1.0000
56.8100 343.0000 1.0000
56.8200 333.0000 1.0000
56.8300 314.0000 1.0000
56.8400 316.0000 1.0000
56.8500 318.0000 1.0000
56.8600 315.0000 1.0000
56.8700 325.0000 1.0000
56.8800 340.0000 1.0000
56.8900 320.0000 1.0000
56.9000 329.0000 1.0000
56.9100 350.0000 1.0000
56.9200 317.0000 1.0000
56.9300 303.0000 1.0000
56.9400 311.0000 1.0000
56.9500 306.0000 1.0000
56.9600 306.0000 1.0000
56.9700 320.0000 1.0000
56.9800 312.0000 1.0000
56.9900 314.0000 1.0000
57.0000 345.0000 1.0000
57.0100 311.0000 1.0000
57.0200 333.0000 1.0000
57.0300 310.0000 1.0000
57.0400 312.0000 1.0000
57.0500 315.0000 1.0000
57.0600 326.0000 1.0000
57.0700 341.0000 1.0000
57.0800 320.0000 1.0000
57.0900 318.0000 1.0000
57.1000 310.0000 1.0000
57.1100 299.0000 1.0000
57.1200 291.0000 1.0000
57.1300 300.0000 1.0000
57.1400 329.0000 1.0000
57.1500 330.0000 1.0000
57.1600 313.0000 1.0000
57.1700 307.0000 1.0000
57.1800 305.0000 1.0000
57.1900 306.0000 1.0000
57.2000 321.0000 1.0000
57.2100 317.0000 1.0000
57.2200 306.0000 1.0000
57.2300 336.0000 1.0000
57.2400 311.0000 1.0000
57.2500 298.0000 1.0000
57.2600 312.0000 1.0000
57.2700 301.0000 1.0000
57.2800 297.0000 1.0000
57.2900 303.0000 1.0000
57.3000 299.0000 1.0000
57.3100 337.0000 1.0000
57.3200 305.0000 1.0000
57.3300 297.0000 1.0000
57.3400 309.0000 1.0000
57.3500 304.0000 1.0000
57.3600 333.0000 1.0000
57.3700 319.0000 1.0000
57.3800 339.0000 1.0000
57.3900 310.0000 1.0000
57.4000 325.0000 1.0000
57.4100 303.0000 1.0000
57.4200 312.0000 1.0000
57.4300 311.0000 1.0000
57.4400 364.0000 1.0000
57.4500 332.0000 1.0000
57.4600 324.0000 1.0000
57.4700 313.0000 1.0000
57.4800 348.0000 1.0000
57.4900 339.0000 1.0000
57.5000 291.0000 1.0000
57.5100 298.0000 1.0000
57.5200 315.0000 1.0000
57.5300 353.0000 1.0000
57.5400 340.0000 1.0000
57.5500 324.0000 1.0000
57.5600 309.0000 1.0000
57.5700 329.0000 1.0000
57.5800 316.0000 1.0000
57.5900 309.0000 1.0000
57.6000 334.0000 1.0000
57.6100 301.0000 1.0000
57.6200 318.0000 1.0000
57.6300 321.0000 1.0000
57.6400 323.0000 1.0000
57.6500 341.0000 1.0000
57.6600 331.0000 1.0000
57.6700 325.0000 1.0000
57.6800 318.0000 1.0000
57.6900 313.0000 1.0000
57.7000 341.0000 1.0000
57.7100 328.0000 1.0000
57.7200 316.0000 1.0000
57.7300 316.0000 1.0000
57.7400 314.0000 1.0000
57.7500 294.0000 1.0000
57.7600 327.0000 1.0000
57.7700 328.0000 1.0000
57.7800 320.0000 1.0000
57.7900 320.0000 1.0000
57.8000 310.0000 1.0000
57.8100 315.0000 1.0000
57.8200 320.0000 1.0000
57.8300 337.0000 1.0000
57.8400 308.0000 1.0000
57.8500 339.0000 1.0000
57.8600 305.0000 1.0000
57.8700 330.0000 1.0000
57.8800 308.0000 1.0000
57.8900 318.0000 1.0000
57.9000 335.0000 1.0000
57.9100 334.0000 1.0000
57.9200 313.0000 1.0000
57.9300 297.0000 1.0000
57.9400 319.0000 1.0000
57.9500 319.0000 1.0000
57.9600 298.0000 1.0000
57.9700 306.0000 1.0000
57.9800 306.0000 1.0000
57.9900 299.0000 1.0000
58.0000 309.0000 1.0000
58.0100 351.0000 1.0000
58.0200 326.0000 1.0000
58.0300 304.0000 1.0000
58.0400 308.0000 1.0000
58.0500 306.0000 1.0000
58.0600 286.0000 1.0000
58.0700 288.0000 1.0000
58.0800 281.0000 1.0000
58.0900 318.0000 1.0000
58.1000 316.0000 1.0000
58.1100 310.0000 1.0000
58.1200 333.0000 1.0000
58.1300 307.0000 1.0000
58.1400 322.0000 1.0000
58.1500 325.0000 1.0000
58.1600 334.0000 1.0000
58.1700 311.0000 1.0000
58.1800 282.0000 1.0000
58.1900 283.0000 1.0000
58.2000 334.0000 1.0000
58.2100 317.0000 1.0000
58.2200 325.0000 1.0000
58.2300 316.0000 1.0000
58.2400 282.0000 1.0000
58.2500 310.0000 1.0000
58.2600 301.0000 1.0000
58.2700 314.0000 1.0000
58.2800 299.0000 1.0000
58.2900 327.0000 1.0000
58.3000 338.0000 1.0000
58.3100 307.0000 1.0000
58.3200 299.0000 1.0000
58.3300 325.0000 1.0000
58.3400 311.0000 1.0000
58.3500 283.0000 1.0000
58.3600 297.0000 1.0000
58.3700 310.0000 1.0000
58.3800 303.0000 1.0000
58.3900 309.0000 1.0000
58.4000 306.0000 1.0000
58.4100 291.0000 1.0000
58.4200 295.0000 1.0000
58.4300 324.0000 1.0000
58.4400 320.0000 1.0000
58.4500 324.0000 1.0000
58.4600 315.0000 1.0000
58.4700 302.0000 1.0000
58.4800 313.0000 1.0000
58.4900 314.0000 1.0000
58.5000 319.0000 1.0000
58.5100 325.0000 1.0000
58.5200 332.0000 1.0000
58.5300 335.0000 1.0000
58.5400 311.0000 1.0000
58.5500 319.0000 1.0000
58.5600 301.0000 1.0000
58.5700 299.0000 1.0000
58.5800 302.0000 1.0000
58.5900 329.0000 1.0000
58.6000 332.0000 1.0000
58.6100 338.0000 1.0000
58.6200 338.0000 1.0000
58.6300 329.0000 1.0000
58.6400 342.0000 1.0000
58.6500 323.0000 1.0000
58.6600 308.0000 1.0000
58.6700 332.0000 1.0000
58.6800 309.0000 1.0000
58.6900 300.0000 1.0000
58.7000 313.0000 1.0000
58.7100 319.0000 1.0000
58.7200 316.0000 1.0000
58.7300 337.0000 1.0000
58.7400 293.0000 1.0000
58.7500 280.0000 1.0000
58.7600 289.0000 1.0000
58.7700 306.0000 1.0000
58.7800 318.0000 1.0000
58.7900 334.0000 1.0000
58.8000 303.0000 1.0000
58.8100 281.0000 1.0000
58.8200 334.0000 1.0000
58.8300 302.0000 1.0000
58.8400 325.0000 1.0000
58.8500 324.0000 1.0000
58.8600 317.0000 1.0000
58.8700 324.0000 1.0000
58.8800 283.0000 1.0000
58.8900 321.0000 1.0000
58.9000 320.0000 1.0000
58.9100 303.0000 1.0000
58.9200 312.0000 1.0000
58.9300 320.0000 1.0000
58.9400 323.0000 1.0000
58.9500 288.0000 1.0000
58.9600 318.0000 1.0000
58.9700 338.0000 1.0000
58.9800 328.0000 1.0000
58.9900 308.0000 1.0000
59.0000 315.0000 1.0000
59.0100 314.0000 1.0000
59.0200 302.0000 1.0000
59.0300 305.0000 1.0000
59.0400 318.0000 1.0000
59.0500 311.0000 1.0000
59.0600 317.0000 1.0000
59.0700 292.0000 1.0000
59.0800 299.0000 1.0000
59.0900 308.0000 1.0000
59.1000 323.0000 1.0000
59.1100 330.0000 1.0000
59.1200 286.0000 1.0000
59.1300 275.0000 1.0000
59.1400 316.0000 1.0000
59.1500 331.0000 1.0000
59.1600 308.0000 1.0000
59.1700 260.0000 1.0000
59.1800 323.0000 1.0000
59.1900 344.0000 1.0000
59.2000 302.0000 1.0000
59.2100 326.0000 1.0000
59.2200 293.0000 1.0000
59.2300 304.0000 1.0000
59.2400 302.0000 1.0000
59.2500 284.0000 1.0000
59.2600 292.0000 1.0000
59.2700 304.0000 1.0000
59.2800 282.0000 1.0000
59.2900 292.0000 1.0000
59.3000 283.0000 1.0000
59.3100 324.0000 1.0000
59.3200 293.0000 1.0000
59.3300 331.0000 1.0000
59.3400 317.0000 1.0000
59.3500 306.0000 1.0000
59.3600 294.0000 1.0000
59.3700 341.0000 1.0000
59.3800 299.0000 1.0000
59.3900 322.0000 1.0000
59.4000 300.0000 1.0000
59.4100 304.0000 1.0000
59.4200 286.0000 1.0000
59.4300 295.0000 1.0000
59.4400 317.0000 1.0000
59.4500 306.0000 1.0000
59.4600 283.0000 1.0000
59.4700 318.0000 1.0000
59.4800 325.0000 1.0000
59.4900 334.0000 1.0000
59.5000 303.0000 1.0000
59.5100 297.0000 1.0000
59.5200 290.0000 1.0000
59.5300 316.0000 1.0000
59.5400 325.0000 1.0000
59.5500 300.0000 1.0000
59.5600 281.0000 1.0000
59.5700 324.0000 1.0000
59.5800 293.0000 1.0000
59.5900 299.0000 1.0000
59.6000 314.0000 1.0000
59.6100 321.0000 1.0000
59.6200 322.0000 1.0000
59.6300 333.0000 1.0000
59.6400 297.0000 1.0000
59.6500 315.0000 1.0000
59.6600 290.0000 1.0000
59.6700 279.0000 1.0000
59.6800 310.0000 1.0000
59.6900 333.0000 1.0000
59.7000 320.0000 1.0000
59.7100 290.0000 1.0000
59.7200 295.0000 1.0000
59.7300 298.0000 1.0000
59.7400 296.0000 1.0000
59.7500 309.0000 1.0000
59.7600 306.0000 1.0000
59.7700 329.0000 1.0000
59.7800 312.0000 1.0000
59.7900 310.0000 1.0000
59.8000 295.0000 1.0000
59.8100 305.0000 1.0000
59.8200 295.0000 1.0000
59.8300 314.0000 1.0000
59.8400 329.0000 1.0000
59.8500 323.0000 1.0000
59.8600 313.0000 1.0000
59.8700 311.0000 1.0000
59.8800 287.0000 1.0000
59.8900 297.0000 1.0000
59.9000 312.0000 1.0000
59.9100 303.0000 1.0000
59.9200 311.0000 1.0000
59.9300 308.0000 1.0000
59.9400 297.0000 1.0000
59.9500 290.0000 1.0000
59.9600 325.0000 1.0000
59.9700 314.0000 1.0000
59.9800 303.0000 1.0000
59.9900 326.0000 1.0000
60.0000 320.0000 1.0000
60.0100 309.0000 1.0000
60.0200 328.0000 1.0000
60.0300 312.0000 1.0000
60.0400 338.0000 1.0000
60.0500 295.0000 1.0000
60.0600 292.0000 1.0000
60.0700 312.0000 1.0000
60.0800 341.0000 1.0000
60.0900 297.0000 1.0000
60.1000 304.0000 1.0000
60.1100 304.0000 1.0000
60.1200 294.0000 1.0000
60.1300 316.0000 1.0000
60.1400 304.0000 1.0000
60.1500 337.0000 1.0000
60.1600 334.0000 1.0000
60.1700 311.0000 1.0000
60.1800 315.0000 1.0000
60.1900 310.0000 1.0000
60.2000 306.0000 1.0000
60.2100 313.0000 1.0000
60.2200 293.0000 1.0000
60.2300 305.0000 1.0000
60.2400 293.0000 1.0000
60.2500 338.0000 1.0000
60.2600 314.0000 1.0000
60.2700 292.0000 1.0000
60.2800 327.0000 1.0000
60.2900 313.0000 1.0000
60.3000 305.0000 1.0000
60.3100 299.0000 1.0000
60.3200 301.0000 1.0000
60.3300 295.0000 1.0000
60.3400 320.0000 1.0000
60.3500 314.0000 1.0000
60.3600 292.0000 1.0000
60.3700 307.0000 1.0000
60.3800 344.0000 1.0000
60.3900 327.0000 1.0000
60.4000 342.0000 1.0000
60.4100 298.0000 1.0000
60.4200 309.0000 1.0000
60.4300 304.0000 1.0000
60.4400 296.0000 1.0000
60.4500 291.0000 1.0000
60.4600 282.0000 1.0000
60.4700 288.0000 1.0000
60.4800 301.0000 1.0000
60.4900 297.0000 1.0000
60.5000 321.0000 1.0000
60.5100 272.0000 1.0000
60.5200 293.0000 1.0000
60.5300 303.0000 1.0000
60.5400 276.0000 1.0000
60.5500 295.0000 1.0000
60.5600 303.0000 1.0000
60.5700 304.0000 1.0000
60.5800 296.0000 1.0000
60.5900 322.0000 1.0000
60.6000 323.0000 1.0000
60.6100 299.0000 1.0000
60.6200 326.0000 1.0000
60.6300 311.0000 1.0000
60.6400 306.0000 1.0000
60.6500 292.0000 1.0000
60.6600 322.0000 1.0000
60.6700 328.0000 1.0000
60.6800 330.0000 1.0000
60.6900 308.0000 1.0000
60.7000 336.0000 1.0000
60.7100 349.0000 1.0000
60.7200 315.0000 1.0000
60.7300 301.0000 1.0000
60.7400 319.0000 1.0000
60.7500 304.0000 1.0000
60.7600 345.0000 1.0000
60.7700 336.0000 1.0000
60.7800 320.0000 1.0000
60.7900 331.0000 1.0000
60.8000 299.0000 1.0000
60.8100 291.0000 1.0000
60.8200 303.0000 1.0000
60.8300 328.0000 1.0000
60.8400 330.0000 1.0000
60.8500 342.0000 1.0000
60.8600 341.0000 1.0000
60.8700 334.0000 1.0000
60.8800 323.0000 1.0000
60.8900 291.0000 1.0000
60.9000 320.0000 1.0000
60.9100 340.0000 1.0000
60.9200 324.0000 1.0000
60.9300 334.0000 1.0000
60.9400 343.0000 1.0000
60.9500 319.0000 1.0000
60.9600 320.0000 1.0000
60.9700 314.0000 1.0000
60.9800 351.0000 1.0000
60.9900 328.0000 1.0000
61.0000 299.0000 1.0000
61.0100 321.0000 1.0000
61.0200 354.0000 1.0000
61.0300 316.0000 1.0000
61.0400 349.0000 1.0000
61.0500 337.0000 1.0000
61.0600 328.0000 1.0000
61.0700 325.0000 1.0000
61.0800 317.0000 1.0000
61.0900 299.0000 1.0000
61.1000 340.0000 1.0000
61.1100 358.0000 1.0000
61.1200 341.0000 1.0000
61.1300 343.0000 1.0000
61.1400 351.0000 1.0000
61.1500 323.0000 1.0000
61.1600 343.0000 1.0000
61.1700 346.0000 1.0000
61.1800 352.0000 1.0000
61.1900 328.0000 1.0000
61.2000 332.0000 1.0000
61.2100 378.0000 1.0000
61.2200 382.0000 1.0000
61.2300 393.0000 1.0000
61.2400 372.0000 1.0000
61.2500 386.0000 1.0000
61.2600 413.0000 1.0000
61.2700 393.0000 1.0000
61.2800 445.0000 1.0000
61.2900 397.0000 1.0000
61.3000 402.0000 1.0000
61.3100 409.0000 1.0000
61.3200 446.0000 1.0000
61.3300 436.0000 1.0000
61.3400 450.0000 1.0000
61.3500 465.0000 1.0000
61.3600 432.0000 1.0000
61.3700 449.0000 1.0000
61.3800 460.0000 1.0000
61.3900 477.0000 1.0000
61.4000 510.0000 1.0000
61.4100 539.0000 1.0000
61.4200 514.0000 1.0000
61.4300 561.0000 1.0000
61.4400 561.0000 1.0000
61.4500 553.0000 1.0000
61.4600 606.0000 1.0000
61.4700 579.0000 1.0000
61.4800 573.0000 1.0000
61.4900 643.0000 1.0000
61.5000 634.0000 1.0000
61.5100 633.0000 1.0000
61.5200 623.0000 1.0000
61.5300 626.0000 1.0000
61.5400 659.0000 1.0000
61.5500 634.0000 1.0000
61.5600 654.0000 1.0000
61.5700 676.0000 1.0000
61.5800 652.0000 1.0000
61.5900 636.0000 1.0000
61.6000 633.0000 1.0000
61.6100 562.0000 1.0000
61.6200 613.0000 1.0000
61.6300 576.0000 1.0000
61.6400 588.0000 1.0000
61.6500 607.0000 1.0000
61.6600 608.0000 1.0000
61.6700 576.0000 1.0000
61.6800 570.0000 1.0000
61.6900 564.0000 1.0000
61.7000 574.0000 1.0000
61.7100 560.0000 1.0000
61.7200 512.0000 1.0000
61.7300 568.0000 1.0000
61.7400 555.0000 1.0000
61.7500 534.0000 1.0000
61.7600 493.0000 1.0000
61.7700 522.0000 1.0000
61.7800 476.0000 1.0000
61.7900 469.0000 1.0000
61.8000 451.0000 1.0000
61.8100 483.0000 1.0000
61.8200 478.0000 1.0000
61.8300 429.0000 1.0000
61.8400 445.0000 1.0000
61.8500 465.0000 1.0000
61.8600 428.0000 1.0000
61.8700 415.0000 1.0000
61.8800 384.0000 1.0000
61.8900 407.0000 1.0000
61.9000 400.0000 1.0000
61.9100 405.0000 1.0000
61.9200 386.0000 1.0000
61.9300 405.0000 1.0000
61.9400 387.0000 1.0000
61.9500 378.0000 1.0000
61.9600 369.0000 1.0000
61.9700 372.0000 1.0000
61.9800 388.0000 1.0000
61.9900 356.0000 1.0000
62.0000 367.0000 1.0000
62.0100 350.0000 1.0000
62.0200 356.0000 1.0000
62.0300 364.0000 1.0000
62.0400 353.0000 1.0000
62.0500 357.0000 1.0000
62.0600 372.0000 1.0000
62.0700 375.0000 1.0000
62.0800 357.0000 1.0000
62.0900 354.0000 1.0000
62.1000 356.0000 1.0000
62.1100 367.0000 1.0000
62.1200 352.0000 1.0000
62.1300 368.0000 1.0000
62.1400 356.0000 1.0000
62.1500 338.0000 1.0000
62.1600 380.0000 1.0000
62.1700 341.0000 1.0000
62.1800 354.0000 1.0000
62.1900 339.0000 1.0000
62.2000 375.0000 1.0000
62.2100 348.0000 1.0000
62.2200 350.0000 1.0000
62.2300 367.0000 1.0000
62.2400 316.0000 1.0000
62.2500 329.0000 1.0000
62.2600 345.0000 1.0000
62.2700 353.0000 1.0000
62.2800 358.0000 1.0000
62.2900 353.0000 1.0000
62.3000 337.0000 1.0000
62.3100 340.0000 1.0000
62.3200 338.0000 1.0000
62.3300 351.0000 1.0000
62.3400 365.0000 1.0000
62.3500 341.0000 1.0000
62.3600 352.0000 1.0000
62.3700 336.0000 1.0000
62.3800 366.0000 1.0000
62.3900 362.0000 1.0000
62.4000 377.0000 1.0000
62.4100 334.0000 1.0000
62.4200 355.0000 1.0000
62.4300 344.0000 1.0000
62.4400 319.0000 1.0000
62.4500 350.0000 1.0000
62.4600 378.0000 1.0000
62.4700 332.0000 1.0000
62.4800 343.0000 1.0000
62.4900 364.0000 1.0000
62.5000 346.0000 1.0000
62.5100 348.0000 1.0000
62.5200 335.0000 1.0000
62.5300 305.0000 1.0000
62.5400 346.0000 1.0000
62.5500 366.0000 1.0000
62.5600 315.0000 1.0000
62.5700 304.0000 1.0000
62.5800 358.0000 1.0000
62.5900 323.0000 1.0000
62.6000 297.0000 1.0000
62.6100 309.0000 1.0000
62.6200 326.0000 1.0000
62.6300 304.0000 1.0000
62.6400 340.0000 1.0000
62.6500 312.0000 1.0000
62.6600 336.0000 1.0000
62.6700 326.0000 1.0000
62.6800 337.0000 1.0000
62.6900 333.0000 1.0000
62.7000 355.0000 1.0000
62.7100 300.0000 1.0000
62.7200 316.0000 1.0000
62.7300 332.0000 1.0000
62.7400 336.0000 1.0000
62.7500 310.0000 1.0000
62.7600 308.0000 1.0000
62.7700 316.0000 1.0000
62.7800 329.0000 1.0000
62.7900 307.0000 1.0000
62.8000 304.0000 1.0000
62.8100 304.0000 1.0000
62.8200 299.0000 1.0000
62.8300 315.0000 1.0000
62.8400 310.0000 1.0000
62.8500 294.0000 1.0000
62.8600 319.0000 1.0000
62.8700 300.0000 1.0000
62.8800 308.0000 1.0000
62.8900 280.0000 1.0000
62.9000 354.0000 1.0000
62.9100 341.0000 1.0000
62.9200 324.0000 1.0000
62.9300 328.0000 1.0000
62.9400 294.0000 1.0000
62.9500 310.0000 1.0000
62.9600 314.0000 1.0000
62.9700 302.0000 1.0000
62.9800 307.0000 1.0000
62.9900 320.0000 1.0000
63.0000 300.0000 1.0000
63.0100 330.0000 1.0000
63.0200 305.0000 1.0000
63.0300 300.0000 1.0000
63.0400 325.0000 1.0000
63.0500 323.0000 1.0000
63.0600 296.0000 1.0000
63.0700 300.0000 1.0000
63.0800 313.0000 1.0000
63.0900 305.0000 1.0000
63.1000 324.0000 1.0000
63.1100 302.0000 1.0000
63.1200 309.0000 1.0000
63.1300 301.0000 1.0000
63.1400 303.0000 1.0000
63.1500 307.0000 1.0000
63.1600 312.0000 1.0000
63.1700 318.0000 1.0000
63.1800 310.0000 1.0000
63.1900 328.0000 1.0000
63.2000 328.0000 1.0000
63.2100 288.0000 1.0000
63.2200 341.0000 1.0000
63.2300 327.0000 1.0000
63.2400 304.0000 1.0000
63.2500 319.0000 1.0000
63.2600 330.0000 1.0000
63.2700 301.0000 1.0000
63.2800 297.0000 1.0000
63.2900 308.0000 1.0000
63.3000 296.0000 1.0000
63.3100 319.0000 1.0000
63.3200 290.0000 1.0000
63.3300 314.0000 1.0000
63.3400 323.0000 1.0000
63.3500 295.0000 1.0000
63.3600 320.0000 1.0000
63.3700 310.0000 1.0000
63.3800 312.0000 1.0000
63.3900 317.0000 1.0000
63.4000 310.0000 1.0000
63.4100 314.0000 1.0000
63.4200 317.0000 1.0000
63.4300 308.0000 1.0000
63.4400 323.0000 1.0000
63.4500 292.0000 1.0000
63.4600 281.0000 1.0000
63.4700 274.0000 1.0000
63.4800 325.0000 1.0000
63.4900 303.0000 1.0000
63.5000 299.0000 1.0000
63.5100 345.0000 1.0000
63.5200 331.0000 1.0000
63.5300 327.0000 1.0000
63.5400 331.0000 1.0000
63.5500 313.0000 1.0000
63.5600 322.0000 1.0000
63.5700 309.0000 1.0000
63.5800 328.0000 1.0000
63.5900 332.0000 1.0000
63.6000 323.0000 1.0000
63.6100 333.0000 1.0000
63.6200 328.0000 1.0000
63.6300 313.0000 1.0000
63.6400 354.0000 1.0000
63.6500 338.0000 1.0000
63.6600 354.0000 1.0000
63.6700 328.0000 1.0000
63.6800 333.0000 1.0000
63.6900 343.0000 1.0000
63.7000 346.0000 1.0000
63.7100 323.0000 1.0000
63.7200 329.0000 1.0000
63.7300 332.0000 1.0000
63.7400 367.0000 1.0000
63.7500 340.0000 1.0000
63.7600 347.0000 1.0000
63.7700 356.0000 1.0000
63.7800 346.0000 1.0000
63.7900 365.0000 1.0000
63.8000 366.0000 1.0000
63.8100 367.0000 1.0000
63.8200 395.0000 1.0000
63.8300 380.0000 1.0000
63.8400 400.0000 1.0000
63.8500 392.0000 1.0000
63.8600 402.0000 1.0000
63.8700 449.0000 1.0000
63.8800 409.0000 1.0000
63.8900 394.0000 1.0000
63.9000 394.0000 1.0000
63.9100 430.0000 1.0000
63.9200 425.0000 1.0000
63.9300 400.0000 1.0000
63.9400 431.0000 1.0000
63.9500 391.0000 1.0000
63.9600 399.0000 1.0000
63.9700 395.0000 1.0000
63.9800 435.0000 1.0000
63.9900 403.0000 1.0000
64.0000 398.0000 1.0000
64.0100 400.0000 1.0000
64.0200 419.0000 1.0000
64.0300 381.0000 1.0000
64.0400 378.0000 1.0000
64.0500 405.0000 1.0000
64.0600 395.0000 1.0000
64.0700 382.0000 1.0000
64.0800 404.0000 1.0000
64.0900 381.0000 1.0000
64.1000 394.0000 1.0000
64.1100 375.0000 1.0000
64.1200 390.0000 1.0000
64.1300 376.0000 1.0000
64.1400 370.0000 1.0000
64.1500 399.0000 1.0000
64.1600 383.0000 1.0000
64.1700 372.0000 1.0000
64.1800 339.0000 1.0000
64.1900 362.0000 1.0000
64.2000 342.0000 1.0000
64.2100 396.0000 1.0000
64.2200 343.0000 1.0000
64.2300 342.0000 1.0000
64.2400 334.0000 1.0000
64.2500 360.0000 1.0000
64.2600 358.0000 1.0000
64.2700 299.0000 1.0000
64.2800 329.0000 1.0000
64.2900 362.0000 1.0000
64.3000 354.0000 1.0000
64.3100 339.0000 1.0000
64.3200 323.0000 1.0000
64.3300 333.0000 1.0000
64.3400 336.0000 1.0000
64.3500 326.0000 1.0000
64.3600 332.0000 1.0000
64.3700 337.0000 1.0000
64.3800 341.0000 1.0000
64.3900 326.0000 1.0000
64.4000 352.0000 1.0000
64.4100 345.0000 1.0000
64.4200 337.0000 1.0000
64.4300 336.0000 1.0000
64.4400 329.0000 1.0000
64.4500 319.0000 1.0000
64.4600 338.0000 1.0000
64.4700 323.0000 1.0000
64.4800 341.0000 1.0000
64.4900 319.0000 1.0000
64.5000 319.0000 1.0000
64.5100 325.0000 1.0000
64.5200 325.0000 1.0000
64.5300 327.0000 1.0000
64.5400 323.0000 1.0000
64.5500 331.0000 1.0000
64.5600 339.0000 1.0000
64.5700 320.0000 1.0000
64.5800 321.0000 1.0000
64.5900 307.0000 1.0000
64.6000 301.0000 1.0000
64.6100 297.0000 1.0000
64.6200 320.0000 1.0000
64.6300 331.0000 1.0000
64.6400 320.0000 1.0000
64.6500 308.0000 1.0000
64.6600 296.0000 1.0000
64.6700 340.0000 1.0000
64.6800 302.0000 1.0000
64.6900 350.0000 1.0000
64.7000 333.0000 1.0000
64.7100 348.0000 1.0000
64.7200 337.0000 1.0000
64.7300 330.0000 1.0000
64.7400 292.0000 1.0000
64.7500 323.0000 1.0000
64.7600 314.0000 1.0000
64.7700 341.0000 1.0000
64.7800 357.0000 1.0000
64.7900 339.0000 1.0000
64.8000 328.0000 1.0000
64.8100 337.0000 1.0000
64.8200 365.0000 1.0000
64.8300 305.0000 1.0000
64.8400 315.0000 1.0000
64.8500 356.0000 1.0000
64.8600 310.0000 1.0000
64.8700 321.0000 1.0000
64.8800 338.0000 1.0000
64.8900 333.0000 1.0000
64.9000 328.0000 1.0000
64.9100 332.0000 1.0000
64.9200 368.0000 1.0000
64.9300 331.0000 1.0000
64.9400 352.0000 1.0000
64.9500 359.0000 1.0000
64.9600 373.0000 1.0000
64.9700 357.0000 1.0000
64.9800 324.0000 1.0000
64.9900 327.0000 1.0000
65.0000 316.0000 1.0000
65.0100 329.0000 1.0000
65.0200 333.0000 1.0000
65.0300 346.0000 1.0000
65.0400 353.0000 1.0000
65.0500 331.0000 1.0000
65.0600 356.0000 1.0000
65.0700 336.0000 1.0000
65.0800 348.0000 1.0000
65.0900 408.0000 1.0000
65.1000 338.0000 1.0000
65.1100 340.0000 1.0000
65.1200 357.0000 1.0000
65.1300 371.0000 1.0000
65.1400 391.0000 1.0000
65.1500 397.0000 1.0000
65.1600 367.0000 1.0000
65.1700 385.0000 1.0000
65.1800 359.0000 1.0000
65.1900 419.0000 1.0000
65.2000 402.0000 1.0000
65.2100 390.0000 1.0000
65.2200 395.0000 1.0000
65.2300 405.0000 1.0000
65.2400 415.0000 1.0000
65.2500 440.0000 1.0000
65.2600 439.0000 1.0000
65.2700 439.0000 1.0000
65.2800 466.0000 1.0000
65.2900 466.0000 1.0000
65.3000 466.0000 1.0000
65.3100 510.0000 1.0000
65.3200 545.0000 1.0000
65.3300 558.0000 1.0000
65.3400 543.0000 1.0000
65.3500 579.0000 1.0000
65.3600 593.0000 1.0000
65.3700 630.0000 1.0000
65.3800 626.0000 1.0000
65.3900 637.0000 1.0000
65.4000 722.0000 1.0000
65.4100 725.0000 1.0000
65.4200 712.0000 1.0000
65.4300 741.0000 1.0000
65.4400 823.0000 1.0000
65.4500 828.0000 1.0000
65.4600 921.0000 1.0000
65.4700 938.0000 1.0000
65.4800 988.0000 1.0000
65.4900 940.0000 1.0000
65.5000 1002.0000 1.0000
65.5100 990.0000 1.0000
65.5200 1039.0000 1.0000
65.5300 1098.0000 1.0000
65.5400 1061.0000 1.0000
65.5500 1120.0000 1.0000
65.5600 1091.0000 1.0000
65.5700 1100.0000 1.0000
65.5800 1085.0000 1.0000
65.5900 1042.0000 1.0000
65.6000 1031.0000 1.0000
65.6100 1029.0000 1.0000
65.6200 1044.0000 1.0000
65.6300 984.0000 1.0000
65.6400 946.0000 1.0000
65.6500 964.0000 1.0000
65.6600 884.0000 1.0000
65.6700 909.0000 1.0000
65.6800 875.0000 1.0000
65.6900 868.0000 1.0000
65.7000 839.0000 1.0000
65.7100 832.0000 1.0000
65.7200 882.0000 1.0000
65.7300 785.0000 1.0000
65.7400 812.0000 1.0000
65.7500 800.0000 1.0000
65.7600 788.0000 1.0000
65.7700 728.0000 1.0000
65.7800 731.0000 1.0000
65.7900 665.0000 1.0000
65.8000 644.0000 1.0000
65.8100 645.0000 1.0000
65.8200 605.0000 1.0000
65.8300 587.0000 1.0000
65.8400 577.0000 1.0000
65.8500 546.0000 1.0000
65.8600 546.0000 1.0000
65.8700 539.0000 1.0000
65.8800 508.0000 1.0000
65.8900 483.0000 1.0000
65.9000 433.0000 1.0000
65.9100 451.0000 1.0000
65.9200 450.0000 1.0000
65.9300 455.0000 1.0000
65.9400 412.0000 1.0000
65.9500 431.0000 1.0000
65.9600 389.0000 1.0000
65.9700 416.0000 1.0000
65.9800 391.0000 1.0000
65.9900 398.0000 1.0000
66.0000 391.0000 1.0000
66.0100 435.0000 1.0000
66.0200 409.0000 1.0000
66.0300 366.0000 1.0000
66.0400 360.0000 1.0000
66.0500 357.0000 1.0000
66.0600 347.0000 1.0000
66.0700 335.0000 1.0000
66.0800 363.0000 1.0000
66.0900 337.0000 1.0000
66.1000 373.0000 1.0000
66.1100 369.0000 1.0000
66.1200 331.0000 1.0000
66.1300 350.0000 1.0000
66.1400 332.0000 1.0000
66.1500 339.0000 1.0000
66.1600 321.0000 1.0000
66.1700 337.0000 1.0000
66.1800 327.0000 1.0000
66.1900 331.0000 1.0000
66.2000 319.0000 1.0000
66.2100 325.0000 1.0000
66.2200 296.0000 1.0000
66.2300 322.0000 1.0000
66.2400 315.0000 1.0000
66.2500 283.0000 1.0000
66.2600 294.0000 1.0000
66.2700 310.0000 1.0000
66.2800 283.0000 1.0000
66.2900 328.0000 1.0000
66.3000 304.0000 1.0000
66.3100 301.0000 1.0000
66.3200 301.0000 1.0000
66.3300 318.0000 1.0000
66.3400 333.0000 1.0000
66.3500 304.0000 1.0000
66.3600 312.0000 1.0000
66.3700 301.0000 1.0000
66.3800 300.0000 1.0000
66.3900 314.0000 1.0000
66.4000 315.0000 1.0000
66.4100 315.0000 1.0000
66.4200 315.0000 1.0000
66.4300 292.0000 1.0000
66.4400 292.0000 1.0000
66.4500 325.0000 1.0000
66.4600 305.0000 1.0000
66.4700 317.0000 1.0000
66.4800 286.0000 1.0000
66.4900 284.0000 1.0000
66.5000 304.0000 1.0000
66.5100 303.0000 1.0000
66.5200 281.0000 1.0000
66.5300 289.0000 1.0000
66.5400 302.0000 1.0000
66.5500 288.0000 1.0000
66.5600 291.0000 1.0000
66.5700 305.0000 1.0000
66.5800 295.0000 1.0000
66.5900 310.0000 1.0000
66.6000 292.0000 1.0000
66.6100 314.0000 1.0000
66.6200 329.0000 1.0000
66.6300 297.0000 1.0000
66.6400 307.0000 1.0000
66.6500 290.0000 1.0000
66.6600 301.0000 1.0000
66.6700 274.0000 1.0000
66.6800 306.0000 1.0000
66.6900 275.0000 1.0000
66.7000 286.0000 1.0000
66.7100 305.0000 1.0000
66.7200 304.0000 1.0000
66.7300 302.0000 1.0000
66.7400 277.0000 1.0000
66.7500 289.0000 1.0000
66.7600 309.0000 1.0000
66.7700 304.0000 1.0000
66.7800 300.0000 1.0000
66.7900 291.0000 1.0000
66.8000 311.0000 1.0000
66.8100 271.0000 1.0000
66.8200 310.0000 1.0000
66.8300 301.0000 1.0000
66.8400 280.0000 1.0000
66.8500 268.0000 1.0000
66.8600 280.0000 1.0000
66.8700 287.0000 1.0000
66.8800 283.0000 1.0000
66.8900 308.0000 1.0000
66.9000 311.0000 1.0000
66.9100 274.0000 1.0000
66.9200 279.0000 1.0000
66.9300 278.0000 1.0000
66.9400 307.0000 1.0000
66.9500 281.0000 1.0000
66.9600 309.0000 1.0000
66.9700 311.0000 1.0000
66.9800 260.0000 1.0000
66.9900 289.0000 1.0000
67.0000 297.0000 1.0000
67.0100 278.0000 1.0000
67.0200 280.0000 1.0000
67.0300 293.0000 1.0000
67.0400 292.0000 1.0000
67.0500 264.0000 1.0000
67.0600 277.0000 1.0000
67.0700 302.0000 1.0000
67.0800 284.0000 1.0000
67.0900 296.0000 1.0000
67.1000 279.0000 1.0000
67.1100 264.0000 1.0000
67.1200 283.0000 1.0000
67.1300 290.0000 1.0000
67.1400 286.0000 1.0000
67.1500 292.0000 1.0000
67.1600 282.0000 1.0000
67.1700 295.0000 1.0000
67.1800 280.0000 1.0000
67.1900 269.0000 1.0000
67.2000 274.0000 1.0000
67.2100 305.0000 1.0000
67.2200 297.0000 1.0000
67.2300 272.0000 1.0000
67.2400 310.0000 1.0000
67.2500 282.0000 1.0000
67.2600 286.0000 1.0000
67.2700 290.0000 1.0000
67.2800 295.0000 1.0000
67.2900 309.0000 1.0000
67.3000 278.0000 1.0000
67.3100 286.0000 1.0000
67.3200 291.0000 1.0000
67.3300 307.0000 1.0000
67.3400 306.0000 1.0000
67.3500 287.0000 1.0000
67.3600 279.0000 1.0000
67.3700 287.0000 1.0000
67.3800 269.0000 1.0000
67.3900 275.0000 1.0000
67.4000 284.0000 1.0000
67.4100 276.0000 1.0000
67.4200 304.0000 1.0000
67.4300 287.0000 1.0000
67.4400 297.0000 1.0000
67.4500 275.0000 1.0000
67.4600 291.0000 1.0000
67.4700 269.0000 1.0000
67.4800 272.0000 1.0000
67.4900 314.0000 1.0000
67.5000 294.0000 1.0000
67.5100 268.0000 1.0000
67.5200 273.0000 1.0000
67.5300 280.0000 1.0000
67.5400 287.0000 1.0000
67.5500 283.0000 1.0000
67.5600 294.0000 1.0000
67.5700 282.0000 1.0000
67.5800 280.0000 1.0000
67.5900 261.0000 1.0000
67.6000 278.0000 1.0000
67.6100 282.0000 1.0000
67.6200 252.0000 1.0000
67.6300 277.0000 1.0000
67.6400 292.0000 1.0000
67.6500 287.0000 1.0000
67.6600 275.0000 1.0000
67.6700 279.0000 1.0000
67.6800 279.0000 1.0000
67.6900 282.0000 1.0000
67.7000 274.0000 1.0000
67.7100 260.0000 1.0000
67.7200 269.0000 1.0000
67.7300 300.0000 1.0000
67.7400 281.0000 1.0000
67.7500 269.0000 1.0000
67.7600 255.0000 1.0000
67.7700 262.0000 1.0000
67.7800 245.0000 1.0000
67.7900 283.0000 1.0000
67.8000 289.0000 1.0000
67.8100 286.0000 1.0000
67.8200 291.0000 1.0000
67.8300 303.0000 1.0000
67.8400 262.0000 1.0000
67.8500 258.0000 1.0000
67.8600 286.0000 1.0000
67.8700 290.0000 1.0000
67.8800 281.0000 1.0000
67.8900 294.0000 1.0000
67.9000 276.0000 1.0000
67.9100 296.0000 1.0000
67.9200 283.0000 1.0000
67.9300 289.0000 1.0000
67.9400 265.0000 1.0000
67.9500 290.0000 1.0000
67.9600 294.0000 1.0000
67.9700 271.0000 1.0000
67.9800 260.0000 1.0000
67.9900 295.0000 1.0000
68.0000 262.0000 1.0000
68.0100 253.0000 1.0000
68.0200 276.0000 1.0000
68.0300 260.0000 1.0000
68.0400 266.0000 1.0000
68.0500 299.0000 1.0000
68.0600 299.0000 1.0000
68.0700 298.0000 1.0000
68.0800 307.0000 1.0000
68.0900 277.0000 1.0000
68.1000 255.0000 1.0000
68.1100 296.0000 1.0000
68.1200 315.0000 1.0000
68.1300 294.0000 1.0000
68.1400 291.0000 1.0000
68.1500 276.0000 1.0000
68.1600 256.0000 1.0000
68.1700 285.0000 1.0000
68.1800 274.0000 1.0000
68.1900 278.0000 1.0000
68.2000 274.0000 1.0000
68.2100 276.0000 1.0000
68.2200 258.0000 1.0000
68.2300 248.0000 1.0000
68.2400 276.0000 1.0000
68.2500 296.0000 1.0000
68.2600 298.0000 1.0000
68.2700 283.0000 1.0000
68.2800 264.0000 1.0000
68.2900 274.0000 1.0000
68.3000 292.0000 1.0000
68.3100 284.0000 1.0000
68.3200 274.0000 1.0000
68.3300 282.0000 1.0000
68.3400 261.0000 1.0000
68.3500 286.0000 1.0000
68.3600 277.0000 1.0000
68.3700 278.0000 1.0000
68.3800 242.0000 1.0000
68.3900 264.0000 1.0000
68.4000 292.0000 1.0000
68.4100 282.0000 1.0000
68.4200 242.0000 1.0000
68.4300 255.0000 1.0000
68.4400 259.0000 1.0000
68.4500 280.0000 1.0000
68.4600 278.0000 1.0000
68.4700 257.0000 1.0000
68.4800 242.0000 1.0000
68.4900 285.0000 1.0000
68.5000 283.0000 1.0000
68.5100 281.0000 1.0000
68.5200 283.0000 1.0000
68.5300 281.0000 1.0000
68.5400 265.0000 1.0000
68.5500 268.0000 1.0000
68.5600 269.0000 1.0000
68.5700 276.0000 1.0000
68.5800 286.0000 1.0000
68.5900 280.0000 1.0000
68.6000 285.0000 1.0000
68.6100 277.0000 1.0000
68.6200 297.0000 1.0000
68.6300 282.0000 1.0000
68.6400 275.0000 1.0000
68.6500 296.0000 1.0000
68.6600 283.0000 1.0000
68.6700 274.0000 1.0000
68.6800 274.0000 1.0000
68.6900 292.0000 1.0000
68.7000 294.0000 1.0000
68.7100 287.0000 1.0000
68.7200 280.0000 1.0000
68.7300 290.0000 1.0000
68.7400 296.0000 1.0000
68.7500 305.0000 1.0000
68.7600 278.0000 1.0000
68.7700 276.0000 1.0000
68.7800 272.0000 1.0000
68.7900 256.0000 1.0000
68.8000 293.0000 1.0000
68.8100 284.0000 1.0000
68.8200 284.0000 1.0000
68.8300 286.0000 1.0000
68.8400 274.0000 1.0000
68.8500 286.0000 1.0000
68.8600 271.0000 1.0000
68.8700 267.0000 1.0000
68.8800 298.0000 1.0000
68.8900 296.0000 1.0000
68.9000 271.0000 1.0000
68.9100 276.0000 1.0000
68.9200 308.0000 1.0000
68.9300 261.0000 1.0000
68.9400 275.0000 1.0000
68.9500 271.0000 1.0000
68.9600 264.0000 1.0000
68.9700 271.0000 1.0000
68.9800 268.0000 1.0000
68.9900 274.0000 1.0000
69.0000 301.0000 1.0000
69.0100 296.0000 1.0000
69.0200 255.0000 1.0000
69.0300 279.0000 1.0000
69.0400 266.0000 1.0000
69.0500 302.0000 1.0000
69.0600 291.0000 1.0000
69.0700 274.0000 1.0000
69.0800 284.0000 1.0000
69.0900 288.0000 1.0000
69.1000 295.0000 1.0000
69.1100 279.0000 1.0000
69.1200 276.0000 1.0000
69.1300 280.0000 1.0000
69.1400 262.0000 1.0000
69.1500 274.0000 1.0000
69.1600 235.0000 1.0000
69.1700 255.0000 1.0000
69.1800 264.0000 1.0000
69.1900 277.0000 1.0000
69.2000 286.0000 1.0000
69.2100 285.0000 1.0000
69.2200 296.0000 1.0000
69.2300 294.0000 1.0000
69.2400 243.0000 1.0000
69.2500 234.0000 1.0000
69.2600 276.0000 1.0000
69.2700 271.0000 1.0000
69.2800 256.0000 1.0000
69.2900 269.0000 1.0000
69.3000 266.0000 1.0000
69.3100 280.0000 1.0000
69.3200 252.0000 1.0000
69.3300 292.0000 1.0000
69.3400 314.0000 1.0000
69.3500 281.0000 1.0000
69.3600 280.0000 1.0000
69.3700 291.0000 1.0000
69.3800 273.0000 1.0000
69.3900 288.0000 1.0000
69.4000 257.0000 1.0000
69.4100 277.0000 1.0000
69.4200 284.0000 1.0000
69.4300 262.0000 1.0000
69.4400 274.0000 1.0000
69.4500 253.0000 1.0000
69.4600 287.0000 1.0000
69.4700 302.0000 1.0000
69.4800 277.0000 1.0000
69.4900 271.0000 1.0000
69.5000 259.0000 1.0000
69.5100 243.0000 1.0000
69.5200 257.0000 1.0000
69.5300 260.0000 1.0000
69.5400 290.0000 1.0000
69.5500 277.0000 1.0000
69.5600 262.0000 1.0000
69.5700 253.0000 1.0000
69.5800 262.0000 1.0000
69.5900 292.0000 1.0000
69.6000 262.0000 1.0000
69.6100 257.0000 1.0000
69.6200 280.0000 1.0000
69.6300 277.0000 1.0000
69.6400 281.0000 1.0000
69.6500 274.0000 1.0000
69.6600 265.0000 1.0000
69.6700 268.0000 1.0000
69.6800 258.0000 1.0000
69.6900 254.0000 1.0000
69.7000 268.0000 1.0000
69.7100 290.0000 1.0000
69.7200 248.0000 1.0000
69.7300 245.0000 1.0000
69.7400 262.0000 1.0000
69.7500 254.0000 1.0000
69.7600 272.0000 1.0000
69.7700 254.0000 1.0000
69.7800 267.0000 1.0000
69.7900 269.0000 1.0000
69.8000 267.0000 1.0000
69.8100 271.0000 1.0000
69.8200 253.0000 1.0000
69.8300 234.0000 1.0000
69.8400 253.0000 1.0000
69.8500 253.0000 1.0000
69.8600 269.0000 1.0000
69.8700 260.0000 1.0000
69.8800 252.0000 1.0000
69.8900 253.0000 1.0000
69.9000 283.0000 1.0000
69.9100 283.0000 1.0000
69.9200 280.0000 1.0000
69.9300 289.0000 1.0000
69.9400 283.0000 1.0000
69.9500 267.0000 1.0000
69.9600 274.0000 1.0000
69.9700 268.0000 1.0000
69.9800 250.0000 1.0000
69.9900 247.0000 1.0000
70.0000 270.0000 1.0000
*RAS_INT_END
*RAS_TEMPERATURE_START
*RAS_TEMPERATURE_END
*RAS_DATA_END
