*RAS_DATA_START
*RAS_HEADER_START
*DISP_FMT_X "%.2f"
*DISP_FMT_Y "%.0f"
*DISP_FULLSCALE "16470.0000000000"
*DISP_LINE_COLOR "255.0000000000"
*DISP_LINE_STYLE "0.0000000000"
*DISP_LINE_WIDTH "0.2500000000"
*DISP_NOTE "測定データ-5"
*DISP_OFFSET_Y "0.0000000000"
*DISP_PEAKSEARCH_UNIT_Y "cps"
*DISP_RANGE_BOTTOM "0.0000000000"
*DISP_RANGE_LEFT "20.0000000000"
*DISP_RANGE_LOGCUTOFF "0.0100000000"
*DISP_RANGE_RIGHT "70.0000000000"
*DISP_RANGE_TOP "16470.0000000000"
*DISP_SCALE_MODE_Y "0.0000000000"
*DISP_TAB_NAME "2θ/θ"
*DISP_TITLE_Y "強度"
*DISP_UNIT_Y "cps"
*DISP_WINDOW_NAME "MSG_MACROENGINE"
*FILE_COMMENT " "
*FILE_MD5 ""
*FILE_MEMO " "
*FILE_OPERATOR "Administrator"
*FILE_SAMPLE " "
*FILE_TYPE "RAS_RAW"
*FILE_USERGROUP "システムマネージャ"
*FILE_VERSION "1.0000000000"
*HW_ATTACHMENT_ID "ATT0025"
*HW_ATTACHMENT_NAME "標準|Standard"
*HW_COUNTER_ID-0 "CUT0025"
*HW_COUNTER_ID-1 "CUT0020"
*HW_COUNTER_ID-2 "CUT0020"
*HW_COUNTER_ID-3 "CSL0021"
*HW_COUNTER_ID-4 "CMC0021"
*HW_COUNTER_NAME-0 "D/teX Ultra|D/teX Ultra"
*HW_COUNTER_NAME-1 "None|None"
*HW_COUNTER_NAME-2 "None|None"
*HW_COUNTER_NAME-3 "BBM|BBM"
*HW_COUNTER_NAME-4 "検出器モノクロメータ|Detector monochromator"
*HW_COUNTER_SELECT_NAME "D/teX Ultra|D/teX Ultra"
*HW_GONIOMETER_ID "GON0023"
*HW_GONIOMETER_NAME "SmartLab|SmartLab"
*HW_GONIOMETER_RADIUS-0 "90.0"
*HW_GONIOMETER_RADIUS-1 "114.0"
*HW_GONIOMETER_RADIUS-2 "190.0"
*HW_GONIOMETER_RADIUS-3 "300.0"
*HW_GONIOMETER_RADIUS-4 "187.0"
*HW_GONIOMETER_RADIUS-5 "300.0"
*HW_GONIOMETER_RADIUS-6 "113.0"
*HW_GONIOMETER_RADIUS-7 "331.0"
*HW_I_OPT_ID-0 "CBO0021"
*HW_I_OPT_ID-1 "ICR0023"
*HW_I_OPT_ID-2 "ISL0021"
*HW_I_OPT_ID-3 "ISO0021"
*HW_I_OPT_ID-4 "IAD0021"
*HW_I_OPT_ID-5 "IPR0001"
*HW_I_OPT_NAME-0 "CBOユニット|CBO unit"
*HW_I_OPT_NAME-1 "標準入射光学ユニット|Standard incident optical unit"
*HW_I_OPT_NAME-2 "標準入射スリットボックス|Standard incident slit box"
*HW_I_OPT_NAME-3 "入射平行スリット|Incident parallel slit"
*HW_I_OPT_NAME-4 "長手制限スリット|Length limiting slit"
*HW_I_OPT_NAME-5 "None|None"
*HW_R_ATTENUATER_AUTOMODE "0"
*HW_R_OPT_ID-0 "RSS0021"
*HW_R_OPT_ID-1 "RCR0023"
*HW_R_OPT_ID-2 "RSO0021"
*HW_R_OPT_ID-3 "RRS0021"
*HW_R_OPT_ID-4 "ATN0021"
*HW_R_OPT_ID-5 "RFL0021"
*HW_R_OPT_ID-6 "RAD0021"
*HW_R_OPT_NAME-0 "標準受光スリットボックス1|Standard receiving slit box # 1"
*HW_R_OPT_NAME-1 "標準受光光学ユニット1|Standard receiving unit # 1"
*HW_R_OPT_NAME-2 "標準受光光学ユニット2|Standard receiving optical unit # 2"
*HW_R_OPT_NAME-3 "標準受光スリットボックス2|Standard receiving slit box # 2"
*HW_R_OPT_NAME-4 "標準アッテネータ|Standard Attenuator"
*HW_R_OPT_NAME-5 "Cu Kβ|Cu K-beta"
*HW_R_OPT_NAME-6 "調整用受光スリット|Alignment receiving slit"
*HW_SAMPLE_HOLDER_ID "SMP0023"
*HW_SAMPLE_HOLDER_NAME "標準Zステージ|Standard Z stage"
*HW_XG_CURRENT_MAX "50"
*HW_XG_CURRENT_MIN "2"
*HW_XG_CURRENT_RESOLUTION "1"
*HW_XG_CURRENT_UNIT "mA"
*HW_XG_FOCUS "1mm x 10mm"
*HW_XG_FOCUS_TYPE "Normal"
*HW_XG_ID ""
*HW_XG_NAME "3kW 封入管(ID:1200)|3kW Sealed tube(ID:1200)"
*HW_XG_TARGET_ATOMIC_NUMBER "29.0000000000"
*HW_XG_TARGET_NAME "Cu"
*HW_XG_TYPE "Hermetic"
*HW_XG_VOLTAGE_MAX "60"
*HW_XG_VOLTAGE_MIN "20"
*HW_XG_VOLTAGE_RESOLUTION "1"
*HW_XG_VOLTAGE_UNIT "kV"
*HW_XG_WATT_MAX "1.500"
*HW_XG_WATT_UNIT "kW"
*HW_XG_WAVE_LENGTH_ALPHA1 "1.540593"
*HW_XG_WAVE_LENGTH_ALPHA2 "1.544414"
*HW_XG_WAVE_LENGTH_BETA "1.392250"
*MEAS_COND_AXIS_NAME-0 "2θ/θ"
*MEAS_COND_AXIS_NAME-1 "2θ"
*MEAS_COND_AXIS_NAME-2 "ω"
*MEAS_COND_AXIS_NAME-3 "Z"
*MEAS_COND_AXIS_NAME-4 "2θ/ω"
*MEAS_COND_AXIS_NAME-5 "θs"
*MEAS_COND_AXIS_NAME-6 "θd"
*MEAS_COND_AXIS_NAME-7 "Ts"
*MEAS_COND_AXIS_NAME-8 "CBO選択スリット"
*MEAS_COND_AXIS_NAME-9 "M"
*MEAS_COND_AXIS_NAME-10 "入射平行スリット"
*MEAS_COND_AXIS_NAME-11 "入射スリット"
*MEAS_COND_AXIS_NAME-12 ""
*MEAS_COND_AXIS_NAME-13 "Zs"
*MEAS_COND_AXIS_NAME-14 "入射光学素子"
*MEAS_COND_AXIS_NAME-15 "長手制限スリット"
*MEAS_COND_AXIS_NAME-16 "センタースリット"
*MEAS_COND_AXIS_NAME-17 "フィルター"
*MEAS_COND_AXIS_NAME-18 "受光スリット1"
*MEAS_COND_AXIS_NAME-19 "受光スリット2"
*MEAS_COND_AXIS_NAME-20 "受光光学素子"
*MEAS_COND_AXIS_NAME-21 "受光平行スリット"
*MEAS_COND_AXIS_NAME-22 "調整用受光スリット"
*MEAS_COND_AXIS_NAME-23 ""
*MEAS_COND_AXIS_NAME-24 ""
*MEAS_COND_AXIS_NAME-25 "Zd"
*MEAS_COND_AXIS_NAME-26 "アッテネータ"
*MEAS_COND_AXIS_NAME-27 "検出器モノクロメータ"
*MEAS_COND_AXIS_NAME-28 "モノクロメータスリット"
*MEAS_COND_AXIS_NAME-29 "プライマリビーム"
*MEAS_COND_AXIS_NAME-30 "PHA"
*MEAS_COND_AXIS_NAME_INTERNAL-0 "TwoThetaTheta"
*MEAS_COND_AXIS_NAME_INTERNAL-1 "TwoTheta"
*MEAS_COND_AXIS_NAME_INTERNAL-2 "Omega"
*MEAS_COND_AXIS_NAME_INTERNAL-3 "Z"
*MEAS_COND_AXIS_NAME_INTERNAL-4 "TwoThetaOmega"
*MEAS_COND_AXIS_NAME_INTERNAL-5 "ThetaS"
*MEAS_COND_AXIS_NAME_INTERNAL-6 "ThetaD"
*MEAS_COND_AXIS_NAME_INTERNAL-7 "Ts"
*MEAS_COND_AXIS_NAME_INTERNAL-8 "CBO"
*MEAS_COND_AXIS_NAME_INTERNAL-9 "CBO-M"
*MEAS_COND_AXIS_NAME_INTERNAL-10 "IncidentSollerSlit"
*MEAS_COND_AXIS_NAME_INTERNAL-11 "IncidentSlitBox"
*MEAS_COND_AXIS_NAME_INTERNAL-12 "IncidentSlitBox-_Axis"
*MEAS_COND_AXIS_NAME_INTERNAL-13 "Zs"
*MEAS_COND_AXIS_NAME_INTERNAL-14 "IncidentMonochromator"
*MEAS_COND_AXIS_NAME_INTERNAL-15 "IncidentAxdSlit"
*MEAS_COND_AXIS_NAME_INTERNAL-16 "CenterSlit"
*MEAS_COND_AXIS_NAME_INTERNAL-17 "Filter"
*MEAS_COND_AXIS_NAME_INTERNAL-18 "ReceivingSlitBox1"
*MEAS_COND_AXIS_NAME_INTERNAL-19 "ReceivingSlitBox2"
*MEAS_COND_AXIS_NAME_INTERNAL-20 "ReceivingOptics"
*MEAS_COND_AXIS_NAME_INTERNAL-21 "ReceivingSollerSlit"
*MEAS_COND_AXIS_NAME_INTERNAL-22 "ReceivingAxdSlit"
*MEAS_COND_AXIS_NAME_INTERNAL-23 "ReceivingSlitBox1-_Axis"
*MEAS_COND_AXIS_NAME_INTERNAL-24 "ReceivingSlitBox2-_Axis"
*MEAS_COND_AXIS_NAME_INTERNAL-25 "ReceivingSlitBox2-Zd"
*MEAS_COND_AXIS_NAME_INTERNAL-26 "Attenuator"
*MEAS_COND_AXIS_NAME_INTERNAL-27 "CounterMonochromator"
*MEAS_COND_AXIS_NAME_INTERNAL-28 "CounterSlit"
*MEAS_COND_AXIS_NAME_INTERNAL-29 "IncidentPrimary"
*MEAS_COND_AXIS_NAME_INTERNAL-30 "PHA"
*MEAS_COND_AXIS_NAME_MAGICNO-0 "83951616.0000000000"
*MEAS_COND_AXIS_NAME_MAGICNO-1 "268632064.0000000000"
*MEAS_COND_AXIS_NAME_MAGICNO-2 "268500992.0000000000"
*MEAS_COND_AXIS_NAME_MAGICNO-3 "285278208.0000000000"
*MEAS_COND_AXIS_NAME_MAGICNO-4 "83951616.0000000000"
*MEAS_COND_AXIS_NAME_MAGICNO-5 "131072.0000000000"
*MEAS_COND_AXIS_NAME_MAGICNO-6 "131072.0000000000"
*MEAS_COND_AXIS_NAME_MAGICNO-7 "318898176.0000000000"
*MEAS_COND_AXIS_NAME_MAGICNO-8 "20971521.0000000000"
*MEAS_COND_AXIS_NAME_MAGICNO-9 "285343744.0000000000"
*MEAS_COND_AXIS_NAME_MAGICNO-10 "20971521.0000000000"
*MEAS_COND_AXIS_NAME_MAGICNO-11 "22020097.0000000000"
*MEAS_COND_AXIS_NAME_MAGICNO-12 "25165824.0000000000"
*MEAS_COND_AXIS_NAME_MAGICNO-13 "318898176.0000000000"
*MEAS_COND_AXIS_NAME_MAGICNO-14 "1.0000000000"
*MEAS_COND_AXIS_NAME_MAGICNO-15 "20971521.0000000000"
*MEAS_COND_AXIS_NAME_MAGICNO-16 "20971521.0000000000"
*MEAS_COND_AXIS_NAME_MAGICNO-17 "20971521.0000000000"
*MEAS_COND_AXIS_NAME_MAGICNO-18 "23068673.0000000000"
*MEAS_COND_AXIS_NAME_MAGICNO-19 "23068673.0000000000"
*MEAS_COND_AXIS_NAME_MAGICNO-20 "20971521.0000000000"
*MEAS_COND_AXIS_NAME_MAGICNO-21 "20971521.0000000000"
*MEAS_COND_AXIS_NAME_MAGICNO-22 "20971521.0000000000"
*MEAS_COND_AXIS_NAME_MAGICNO-23 "25165824.0000000000"
*MEAS_COND_AXIS_NAME_MAGICNO-24 "25165824.0000000000"
*MEAS_COND_AXIS_NAME_MAGICNO-25 "285343744.0000000000"
*MEAS_COND_AXIS_NAME_MAGICNO-26 "17301505.0000000000"
*MEAS_COND_AXIS_NAME_MAGICNO-27 "20971521.0000000000"
*MEAS_COND_AXIS_NAME_MAGICNO-28 "20971521.0000000000"
*MEAS_COND_AXIS_NAME_MAGICNO-29 "20971521.0000000000"
*MEAS_COND_AXIS_NAME_MAGICNO-30 "0.0000000000"
*MEAS_COND_AXIS_OFFSET-0 "-"
*MEAS_COND_AXIS_OFFSET-1 "-0.0801000000"
*MEAS_COND_AXIS_OFFSET-2 "0.2338000000"
*MEAS_COND_AXIS_OFFSET-3 "-"
*MEAS_COND_AXIS_OFFSET-4 "-"
*MEAS_COND_AXIS_OFFSET-5 "0.2338000000"
*MEAS_COND_AXIS_OFFSET-6 "-0.3139000000"
*MEAS_COND_AXIS_OFFSET-7 "-"
*MEAS_COND_AXIS_OFFSET-8 "-"
*MEAS_COND_AXIS_OFFSET-9 "-"
*MEAS_COND_AXIS_OFFSET-10 "-"
*MEAS_COND_AXIS_OFFSET-11 "-"
*MEAS_COND_AXIS_OFFSET-12 "-"
*MEAS_COND_AXIS_OFFSET-13 "-"
*MEAS_COND_AXIS_OFFSET-14 "-"
*MEAS_COND_AXIS_OFFSET-15 "-"
*MEAS_COND_AXIS_OFFSET-16 "-"
*MEAS_COND_AXIS_OFFSET-17 "-"
*MEAS_COND_AXIS_OFFSET-18 "-"
*MEAS_COND_AXIS_OFFSET-19 "-"
*MEAS_COND_AXIS_OFFSET-20 "-"
*MEAS_COND_AXIS_OFFSET-21 "-"
*MEAS_COND_AXIS_OFFSET-22 "-"
*MEAS_COND_AXIS_OFFSET-23 "-"
*MEAS_COND_AXIS_OFFSET-24 "-"
*MEAS_COND_AXIS_OFFSET-25 "-"
*MEAS_COND_AXIS_OFFSET-26 "-"
*MEAS_COND_AXIS_OFFSET-27 "-"
*MEAS_COND_AXIS_OFFSET-28 "-"
*MEAS_COND_AXIS_OFFSET-29 "-"
*MEAS_COND_AXIS_OFFSET-30 "-"
*MEAS_COND_AXIS_POSITION-0 "0.0000000000"
*MEAS_COND_AXIS_POSITION-1 "0.0000000000"
*MEAS_COND_AXIS_POSITION-2 "0.0000000000"
*MEAS_COND_AXIS_POSITION-3 "-2.9583600000"
*MEAS_COND_AXIS_POSITION-4 "0.0000000000"
*MEAS_COND_AXIS_POSITION-5 "0.0000000000"
*MEAS_COND_AXIS_POSITION-6 "0.0000000000"
*MEAS_COND_AXIS_POSITION-7 "-0.4278800000"
*MEAS_COND_AXIS_POSITION-8 "BB"
*MEAS_COND_AXIS_POSITION-9 "0.0000000000"
*MEAS_COND_AXIS_POSITION-10 "Soller_slit_5.0deg"
*MEAS_COND_AXIS_POSITION-11 "2/3deg"
*MEAS_COND_AXIS_POSITION-12 "2.2088000000"
*MEAS_COND_AXIS_POSITION-13 "-1.0609400000"
*MEAS_COND_AXIS_POSITION-14 "0.0000000000"
*MEAS_COND_AXIS_POSITION-15 "10.0mm"
*MEAS_COND_AXIS_POSITION-16 "None"
*MEAS_COND_AXIS_POSITION-17 "Cu_K-beta"
*MEAS_COND_AXIS_POSITION-18 "13.000mm"
*MEAS_COND_AXIS_POSITION-19 "13.000mm"
*MEAS_COND_AXIS_POSITION-20 "No_unit"
*MEAS_COND_AXIS_POSITION-21 "Soller_slit_5.0deg"
*MEAS_COND_AXIS_POSITION-22 "None"
*MEAS_COND_AXIS_POSITION-23 "13.0000000000"
*MEAS_COND_AXIS_POSITION-24 "13.0000000000"
*MEAS_COND_AXIS_POSITION-25 "0.0081300000"
*MEAS_COND_AXIS_POSITION-26 "Open"
*MEAS_COND_AXIS_POSITION-27 "None"
*MEAS_COND_AXIS_POSITION-28 "None"
*MEAS_COND_AXIS_POSITION-29 "None"
*MEAS_COND_AXIS_POSITION-30 "38.0000000000"
*MEAS_COND_AXIS_UNIT-0 "deg"
*MEAS_COND_AXIS_UNIT-1 "deg"
*MEAS_COND_AXIS_UNIT-2 "deg"
*MEAS_COND_AXIS_UNIT-3 "mm"
*MEAS_COND_AXIS_UNIT-4 "deg"
*MEAS_COND_AXIS_UNIT-5 "deg"
*MEAS_COND_AXIS_UNIT-6 "deg"
*MEAS_COND_AXIS_UNIT-7 "mm"
*MEAS_COND_AXIS_UNIT-8 ""
*MEAS_COND_AXIS_UNIT-9 "pulse"
*MEAS_COND_AXIS_UNIT-10 ""
*MEAS_COND_AXIS_UNIT-11 ""
*MEAS_COND_AXIS_UNIT-12 "mm"
*MEAS_COND_AXIS_UNIT-13 "mm"
*MEAS_COND_AXIS_UNIT-14 ""
*MEAS_COND_AXIS_UNIT-15 ""
*MEAS_COND_AXIS_UNIT-16 ""
*MEAS_COND_AXIS_UNIT-17 ""
*MEAS_COND_AXIS_UNIT-18 ""
*MEAS_COND_AXIS_UNIT-19 ""
*MEAS_COND_AXIS_UNIT-20 ""
*MEAS_COND_AXIS_UNIT-21 ""
*MEAS_COND_AXIS_UNIT-22 ""
*MEAS_COND_AXIS_UNIT-23 "mm"
*MEAS_COND_AXIS_UNIT-24 "mm"
*MEAS_COND_AXIS_UNIT-25 "mm"
*MEAS_COND_AXIS_UNIT-26 ""
*MEAS_COND_AXIS_UNIT-27 ""
*MEAS_COND_AXIS_UNIT-28 ""
*MEAS_COND_AXIS_UNIT-29 ""
*MEAS_COND_AXIS_UNIT-30 "div"
*MEAS_COND_COUNTER_CNTLOSS_CORR "0.0000000000"
*MEAS_COND_COUNTER_PHABASE "38.0000000000"
*MEAS_COND_COUNTER_PHAWINDOW "16.0000000000"
*MEAS_COND_COUNTER_PHA_UNIT "div"
*MEAS_COND_COUNTER_TAUDIFF "30.0000000000"
*MEAS_COND_COUNTER_TAUINT "0.0000000000"
*MEAS_COND_IRRADIATION_MODE "OFF"
*MEAS_COND_IRRADIATION_WIDTH ""
*MEAS_COND_OPT_ATTR "集中法"
*MEAS_COND_OPT_NAME "@集中法"
*MEAS_COND_UNSYMMETRIC_MODE "OFF"
*MEAS_COND_XG_CURRENT "30.0000000000"
*MEAS_COND_XG_VOLTAGE "40.0000000000"
*MEAS_COND_XG_WAVE_TYPE "Ka"
*MEAS_DATA_COUNT "5001.0000000000"
*MEAS_SCAN_AXIS_X "2θ/θ"
*MEAS_SCAN_AXIS_X_INTERNAL "TwoThetaTheta"
*MEAS_SCAN_END_TIME "08/06/22 14:57:20"
*MEAS_SCAN_MODE "CONTINUOUS"
*MEAS_SCAN_MONITOR "0"
*MEAS_SCAN_RESOLUTION_X "0.0002"
*MEAS_SCAN_SPEED "2.5"
*MEAS_SCAN_SPEED_UNIT "deg/min"
*MEAS_SCAN_START "20.0000000000"
*MEAS_SCAN_START_TIME "08/06/22 14:35:56"
*MEAS_SCAN_STEP "0.0100000000"
*MEAS_SCAN_STOP "70.0000000000"
*MEAS_SCAN_UNIT_X "deg"
*MEAS_SCAN_UNIT_Y "counts"
*RAS_HEADER_END
*RAS_INT_START
20.0000 942.0000 1.0000
20.0100 894.0000 1.0000
20.0200 882.0000 1.0000
20.0300 961.0000 1.0000
20.0400 959.0000 1.0000
20.0500 939.0000 1.0000
20.0600 909.0000 1.0000
20.0700 942.0000 1.0000
20.0800 899.0000 1.0000
20.0900 948.0000 1.0000
20.1000 903.0000 1.0000
20.1100 948.0000 1.0000
20.1200 900.0000 1.0000
20.1300 905.0000 1.0000
20.1400 894.0000 1.0000
20.1500 924.0000 1.0000
20.1600 961.0000 1.0000
20.1700 907.0000 1.0000
20.1800 909.0000 1.0000
20.1900 934.0000 1.0000
20.2000 925.0000 1.0000
20.2100 899.0000 1.0000
20.2200 909.0000 1.0000
20.2300 919.0000 1.0000
20.2400 976.0000 1.0000
20.2500 933.0000 1.0000
20.2600 985.0000 1.0000
20.2700 873.0000 1.0000
20.2800 931.0000 1.0000
20.2900 896.0000 1.0000
20.3000 929.0000 1.0000
20.3100 948.0000 1.0000
20.3200 893.0000 1.0000
20.3300 923.0000 1.0000
20.3400 929.0000 1.0000
20.3500 987.0000 1.0000
20.3600 953.0000 1.0000
20.3700 946.0000 1.0000
20.3800 924.0000 1.0000
20.3900 912.0000 1.0000
20.4000 931.0000 1.0000
20.4100 948.0000 1.0000
20.4200 950.0000 1.0000
20.4300 860.0000 1.0000
20.4400 917.0000 1.0000
20.4500 946.0000 1.0000
20.4600 882.0000 1.0000
20.4700 888.0000 1.0000
20.4800 909.0000 1.0000
20.4900 932.0000 1.0000
20.5000 916.0000 1.0000
20.5100 926.0000 1.0000
20.5200 928.0000 1.0000
20.5300 921.0000 1.0000
20.5400 909.0000 1.0000
20.5500 919.0000 1.0000
20.5600 885.0000 1.0000
20.5700 900.0000 1.0000
20.5800 938.0000 1.0000
20.5900 903.0000 1.0000
20.6000 864.0000 1.0000
20.6100 880.0000 1.0000
20.6200 930.0000 1.0000
20.6300 904.0000 1.0000
20.6400 952.0000 1.0000
20.6500 954.0000 1.0000
20.6600 897.0000 1.0000
20.6700 942.0000 1.0000
20.6800 929.0000 1.0000
20.6900 898.0000 1.0000
20.7000 891.0000 1.0000
20.7100 869.0000 1.0000
20.7200 898.0000 1.0000
20.7300 904.0000 1.0000
20.7400 878.0000 1.0000
20.7500 878.0000 1.0000
20.7600 929.0000 1.0000
20.7700 910.0000 1.0000
20.7800 940.0000 1.0000
20.7900 921.0000 1.0000
20.8000 897.0000 1.0000
20.8100 923.0000 1.0000
20.8200 928.0000 1.0000
20.8300 940.0000 1.0000
20.8400 945.0000 1.0000
20.8500 899.0000 1.0000
20.8600 886.0000 1.0000
20.8700 875.0000 1.0000
20.8800 895.0000 1.0000
20.8900 921.0000 1.0000
20.9000 935.0000 1.0000
20.9100 946.0000 1.0000
20.9200 955.0000 1.0000
20.9300 933.0000 1.0000
20.9400 889.0000 1.0000
20.9500 881.0000 1.0000
20.9600 973.0000 1.0000
20.9700 933.0000 1.0000
20.9800 922.0000 1.0000
20.9900 925.0000 1.0000
21.0000 920.0000 1.0000
21.0100 909.0000 1.0000
21.0200 902.0000 1.0000
21.0300 990.0000 1.0000
21.0400 946.0000 1.0000
21.0500 937.0000 1.0000
21.0600 919.0000 1.0000
21.0700 905.0000 1.0000
21.0800 928.0000 1.0000
21.0900 937.0000 1.0000
21.1000 900.0000 1.0000
21.1100 915.0000 1.0000
21.1200 916.0000 1.0000
21.1300 902.0000 1.0000
21.1400 884.0000 1.0000
21.1500 917.0000 1.0000
21.1600 908.0000 1.0000
21.1700 879.0000 1.0000
21.1800 875.0000 1.0000
21.1900 897.0000 1.0000
21.2000 968.0000 1.0000
21.2100 959.0000 1.0000
21.2200 926.0000 1.0000
21.2300 909.0000 1.0000
21.2400 927.0000 1.0000
21.2500 948.0000 1.0000
21.2600 900.0000 1.0000
21.2700 888.0000 1.0000
21.2800 952.0000 1.0000
21.2900 967.0000 1.0000
21.3000 940.0000 1.0000
21.3100 920.0000 1.0000
21.3200 872.0000 1.0000
21.3300 920.0000 1.0000
21.3400 911.0000 1.0000
21.3500 902.0000 1.0000
21.3600 911.0000 1.0000
21.3700 885.0000 1.0000
21.3800 899.0000 1.0000
21.3900 871.0000 1.0000
21.4000 940.0000 1.0000
21.4100 914.0000 1.0000
21.4200 948.0000 1.0000
21.4300 950.0000 1.0000
21.4400 924.0000 1.0000
21.4500 917.0000 1.0000
21.4600 897.0000 1.0000
21.4700 868.0000 1.0000
21.4800 867.0000 1.0000
21.4900 885.0000 1.0000
21.5000 895.0000 1.0000
21.5100 967.0000 1.0000
21.5200 985.0000 1.0000
21.5300 913.0000 1.0000
21.5400 914.0000 1.0000
21.5500 912.0000 1.0000
21.5600 908.0000 1.0000
21.5700 891.0000 1.0000
21.5800 873.0000 1.0000
21.5900 910.0000 1.0000
21.6000 946.0000 1.0000
21.6100 981.0000 1.0000
21.6200 874.0000 1.0000
21.6300 947.0000 1.0000
21.6400 879.0000 1.0000
21.6500 886.0000 1.0000
21.6600 883.0000 1.0000
21.6700 909.0000 1.0000
21.6800 876.0000 1.0000
21.6900 927.0000 1.0000
21.7000 861.0000 1.0000
21.7100 916.0000 1.0000
21.7200 904.0000 1.0000
21.7300 933.0000 1.0000
21.7400 944.0000 1.0000
21.7500 892.0000 1.0000
21.7600 910.0000 1.0000
21.7700 922.0000 1.0000
21.7800 904.0000 1.0000
21.7900 918.0000 1.0000
21.8000 896.0000 1.0000
21.8100 958.0000 1.0000
21.8200 953.0000 1.0000
21.8300 953.0000 1.0000
21.8400 908.0000 1.0000
21.8500 898.0000 1.0000
21.8600 888.0000 1.0000
21.8700 931.0000 1.0000
21.8800 925.0000 1.0000
21.8900 907.0000 1.0000
21.9000 856.0000 1.0000
21.9100 844.0000 1.0000
21.9200 888.0000 1.0000
21.9300 949.0000 1.0000
21.9400 886.0000 1.0000
21.9500 915.0000 1.0000
21.9600 890.0000 1.0000
21.9700 909.0000 1.0000
21.9800 950.0000 1.0000
21.9900 915.0000 1.0000
22.0000 946.0000 1.0000
22.0100 920.0000 1.0000
22.0200 931.0000 1.0000
22.0300 922.0000 1.0000
22.0400 853.0000 1.0000
22.0500 916.0000 1.0000
22.0600 942.0000 1.0000
22.0700 902.0000 1.0000
22.0800 923.0000 1.0000
22.0900 928.0000 1.0000
22.1000 901.0000 1.0000
22.1100 959.0000 1.0000
22.1200 946.0000 1.0000
22.1300 943.0000 1.0000
22.1400 927.0000 1.0000
22.1500 944.0000 1.0000
22.1600 892.0000 1.0000
22.1700 887.0000 1.0000
22.1800 904.0000 1.0000
22.1900 895.0000 1.0000
22.2000 854.0000 1.0000
22.2100 899.0000 1.0000
22.2200 871.0000 1.0000
22.2300 857.0000 1.0000
22.2400 943.0000 1.0000
22.2500 914.0000 1.0000
22.2600 905.0000 1.0000
22.2700 872.0000 1.0000
22.2800 889.0000 1.0000
22.2900 876.0000 1.0000
22.3000 911.0000 1.0000
22.3100 945.0000 1.0000
22.3200 885.0000 1.0000
22.3300 885.0000 1.0000
22.3400 848.0000 1.0000
22.3500 869.0000 1.0000
22.3600 876.0000 1.0000
22.3700 902.0000 1.0000
22.3800 910.0000 1.0000
22.3900 885.0000 1.0000
22.4000 905.0000 1.0000
22.4100 907.0000 1.0000
22.4200 888.0000 1.0000
22.4300 925.0000 1.0000
22.4400 895.0000 1.0000
22.4500 918.0000 1.0000
22.4600 884.0000 1.0000
22.4700 889.0000 1.0000
22.4800 863.0000 1.0000
22.4900 918.0000 1.0000
22.5000 875.0000 1.0000
22.5100 884.0000 1.0000
22.5200 906.0000 1.0000
22.5300 941.0000 1.0000
22.5400 922.0000 1.0000
22.5500 898.0000 1.0000
22.5600 874.0000 1.0000
22.5700 930.0000 1.0000
22.5800 892.0000 1.0000
22.5900 897.0000 1.0000
22.6000 927.0000 1.0000
22.6100 927.0000 1.0000
22.6200 930.0000 1.0000
22.6300 933.0000 1.0000
22.6400 895.0000 1.0000
22.6500 849.0000 1.0000
22.6600 897.0000 1.0000
22.6700 944.0000 1.0000
22.6800 873.0000 1.0000
22.6900 887.0000 1.0000
22.7000 889.0000 1.0000
22.7100 939.0000 1.0000
22.7200 877.0000 1.0000
22.7300 894.0000 1.0000
22.7400 883.0000 1.0000
22.7500 894.0000 1.0000
22.7600 907.0000 1.0000
22.7700 899.0000 1.0000
22.7800 900.0000 1.0000
22.7900 860.0000 1.0000
22.8000 861.0000 1.0000
22.8100 885.0000 1.0000
22.8200 885.0000 1.0000
22.8300 879.0000 1.0000
22.8400 872.0000 1.0000
22.8500 880.0000 1.0000
22.8600 879.0000 1.0000
22.8700 919.0000 1.0000
22.8800 889.0000 1.0000
22.8900 856.0000 1.0000
22.9000 893.0000 1.0000
22.9100 867.0000 1.0000
22.9200 872.0000 1.0000
22.9300 912.0000 1.0000
22.9400 917.0000 1.0000
22.9500 876.0000 1.0000
22.9600 935.0000 1.0000
22.9700 911.0000 1.0000
22.9800 930.0000 1.0000
22.9900 901.0000 1.0000
23.0000 890.0000 1.0000
23.0100 858.0000 1.0000
23.0200 823.0000 1.0000
23.0300 881.0000 1.0000
23.0400 902.0000 1.0000
23.0500 898.0000 1.0000
23.0600 925.0000 1.0000
23.0700 873.0000 1.0000
23.0800 883.0000 1.0000
23.0900 892.0000 1.0000
23.1000 934.0000 1.0000
23.1100 913.0000 1.0000
23.1200 881.0000 1.0000
23.1300 884.0000 1.0000
23.1400 849.0000 1.0000
23.1500 865.0000 1.0000
23.1600 909.0000 1.0000
23.1700 886.0000 1.0000
23.1800 892.0000 1.0000
23.1900 914.0000 1.0000
23.2000 919.0000 1.0000
23.2100 874.0000 1.0000
23.2200 915.0000 1.0000
23.2300 884.0000 1.0000
23.2400 899.0000 1.0000
23.2500 877.0000 1.0000
23.2600 917.0000 1.0000
23.2700 893.0000 1.0000
23.2800 880.0000 1.0000
23.2900 870.0000 1.0000
23.3000 868.0000 1.0000
23.3100 868.0000 1.0000
23.3200 893.0000 1.0000
23.3300 880.0000 1.0000
23.3400 867.0000 1.0000
23.3500 860.0000 1.0000
23.3600 903.0000 1.0000
23.3700 886.0000 1.0000
23.3800 862.0000 1.0000
23.3900 866.0000 1.0000
23.4000 891.0000 1.0000
23.4100 920.0000 1.0000
23.4200 940.0000 1.0000
23.4300 917.0000 1.0000
23.4400 899.0000 1.0000
23.4500 874.0000 1.0000
23.4600 886.0000 1.0000
23.4700 904.0000 1.0000
23.4800 884.0000 1.0000
23.4900 887.0000 1.0000
23.5000 876.0000 1.0000
23.5100 892.0000 1.0000
23.5200 835.0000 1.0000
23.5300 900.0000 1.0000
23.5400 945.0000 1.0000
23.5500 888.0000 1.0000
23.5600 869.0000 1.0000
23.5700 873.0000 1.0000
23.5800 869.0000 1.0000
23.5900 870.0000 1.0000
23.6000 875.0000 1.0000
23.6100 856.0000 1.0000
23.6200 869.0000 1.0000
23.6300 847.0000 1.0000
23.6400 939.0000 1.0000
23.6500 925.0000 1.0000
23.6600 901.0000 1.0000
23.6700 884.0000 1.0000
23.6800 869.0000 1.0000
23.6900 884.0000 1.0000
23.7000 904.0000 1.0000
23.7100 906.0000 1.0000
23.7200 927.0000 1.0000
23.7300 870.0000 1.0000
23.7400 913.0000 1.0000
23.7500 886.0000 1.0000
23.7600 923.0000 1.0000
23.7700 876.0000 1.0000
23.7800 916.0000 1.0000
23.7900 876.0000 1.0000
23.8000 909.0000 1.0000
23.8100 910.0000 1.0000
23.8200 914.0000 1.0000
23.8300 902.0000 1.0000
23.8400 928.0000 1.0000
23.8500 885.0000 1.0000
23.8600 940.0000 1.0000
23.8700 929.0000 1.0000
23.8800 913.0000 1.0000
23.8900 948.0000 1.0000
23.9000 872.0000 1.0000
23.9100 946.0000 1.0000
23.9200 885.0000 1.0000
23.9300 859.0000 1.0000
23.9400 911.0000 1.0000
23.9500 890.0000 1.0000
23.9600 946.0000 1.0000
23.9700 928.0000 1.0000
23.9800 882.0000 1.0000
23.9900 955.0000 1.0000
24.0000 922.0000 1.0000
24.0100 925.0000 1.0000
24.0200 948.0000 1.0000
24.0300 969.0000 1.0000
24.0400 964.0000 1.0000
24.0500 932.0000 1.0000
24.0600 928.0000 1.0000
24.0700 970.0000 1.0000
24.0800 926.0000 1.0000
24.0900 993.0000 1.0000
24.1000 974.0000 1.0000
24.1100 993.0000 1.0000
24.1200 932.0000 1.0000
24.1300 983.0000 1.0000
24.1400 970.0000 1.0000
24.1500 941.0000 1.0000
24.1600 922.0000 1.0000
24.1700 921.0000 1.0000
24.1800 939.0000 1.0000
24.1900 897.0000 1.0000
24.2000 933.0000 1.0000
24.2100 873.0000 1.0000
24.2200 889.0000 1.0000
24.2300 917.0000 1.0000
24.2400 903.0000 1.0000
24.2500 872.0000 1.0000
24.2600 930.0000 1.0000
24.2700 902.0000 1.0000
24.2800 866.0000 1.0000
24.2900 852.0000 1.0000
24.3000 878.0000 1.0000
24.3100 889.0000 1.0000
24.3200 880.0000 1.0000
24.3300 881.0000 1.0000
24.3400 895.0000 1.0000
24.3500 858.0000 1.0000
24.3600 838.0000 1.0000
24.3700 866.0000 1.0000
24.3800 913.0000 1.0000
24.3900 928.0000 1.0000
24.4000 900.0000 1.0000
24.4100 939.0000 1.0000
24.4200 880.0000 1.0000
24.4300 927.0000 1.0000
24.4400 856.0000 1.0000
24.4500 917.0000 1.0000
24.4600 880.0000 1.0000
24.4700 883.0000 1.0000
24.4800 898.0000 1.0000
24.4900 874.0000 1.0000
24.5000 866.0000 1.0000
24.5100 887.0000 1.0000
24.5200 894.0000 1.0000
24.5300 836.0000 1.0000
24.5400 859.0000 1.0000
24.5500 849.0000 1.0000
24.5600 872.0000 1.0000
24.5700 883.0000 1.0000
24.5800 887.0000 1.0000
24.5900 819.0000 1.0000
24.6000 851.0000 1.0000
24.6100 859.0000 1.0000
24.6200 847.0000 1.0000
24.6300 904.0000 1.0000
24.6400 854.0000 1.0000
24.6500 862.0000 1.0000
24.6600 845.0000 1.0000
24.6700 884.0000 1.0000
24.6800 871.0000 1.0000
24.6900 890.0000 1.0000
24.7000 879.0000 1.0000
24.7100 897.0000 1.0000
24.7200 880.0000 1.0000
24.7300 894.0000 1.0000
24.7400 909.0000 1.0000
24.7500 889.0000 1.0000
24.7600 866.0000 1.0000
24.7700 893.0000 1.0000
24.7800 884.0000 1.0000
24.7900 904.0000 1.0000
24.8000 881.0000 1.0000
24.8100 888.0000 1.0000
24.8200 839.0000 1.0000
24.8300 890.0000 1.0000
24.8400 883.0000 1.0000
24.8500 855.0000 1.0000
24.8600 877.0000 1.0000
24.8700 856.0000 1.0000
24.8800 864.0000 1.0000
24.8900 854.0000 1.0000
24.9000 862.0000 1.0000
24.9100 826.0000 1.0000
24.9200 856.0000 1.0000
24.9300 869.0000 1.0000
24.9400 837.0000 1.0000
24.9500 877.0000 1.0000
24.9600 823.0000 1.0000
24.9700 841.0000 1.0000
24.9800 840.0000 1.0000
24.9900 859.0000 1.0000
25.0000 881.0000 1.0000
25.0100 908.0000 1.0000
25.0200 789.0000 1.0000
25.0300 838.0000 1.0000
25.0400 832.0000 1.0000
25.0500 819.0000 1.0000
25.0600 879.0000 1.0000
25.0700 810.0000 1.0000
25.0800 873.0000 1.0000
25.0900 840.0000 1.0000
25.1000 884.0000 1.0000
25.1100 890.0000 1.0000
25.1200 868.0000 1.0000
25.1300 847.0000 1.0000
25.1400 863.0000 1.0000
25.1500 896.0000 1.0000
25.1600 874.0000 1.0000
25.1700 838.0000 1.0000
25.1800 832.0000 1.0000
25.1900 884.0000 1.0000
25.2000 899.0000 1.0000
25.2100 821.0000 1.0000
25.2200 806.0000 1.0000
25.2300 828.0000 1.0000
25.2400 869.0000 1.0000
25.2500 893.0000 1.0000
25.2600 913.0000 1.0000
25.2700 809.0000 1.0000
25.2800 853.0000 1.0000
25.2900 856.0000 1.0000
25.3000 854.0000 1.0000
25.3100 870.0000 1.0000
25.3200 856.0000 1.0000
25.3300 873.0000 1.0000
25.3400 829.0000 1.0000
25.3500 841.0000 1.0000
25.3600 855.0000 1.0000
25.3700 855.0000 1.0000
25.3800 855.0000 1.0000
25.3900 860.0000 1.0000
25.4000 836.0000 1.0000
25.4100 856.0000 1.0000
25.4200 900.0000 1.0000
25.4300 897.0000 1.0000
25.4400 858.0000 1.0000
25.4500 883.0000 1.0000
25.4600 853.0000 1.0000
25.4700 905.0000 1.0000
25.4800 871.0000 1.0000
25.4900 837.0000 1.0000
25.5000 822.0000 1.0000
25.5100 854.0000 1.0000
25.5200 863.0000 1.0000
25.5300 900.0000 1.0000
25.5400 846.0000 1.0000
25.5500 894.0000 1.0000
25.5600 874.0000 1.0000
25.5700 854.0000 1.0000
25.5800 873.0000 1.0000
25.5900 854.0000 1.0000
25.6000 890.0000 1.0000
25.6100 964.0000 1.0000
25.6200 845.0000 1.0000
25.6300 868.0000 1.0000
25.6400 870.0000 1.0000
25.6500 840.0000 1.0000
25.6600 886.0000 1.0000
25.6700 871.0000 1.0000
25.6800 841.0000 1.0000
25.6900 899.0000 1.0000
25.7000 919.0000 1.0000
25.7100 900.0000 1.0000
25.7200 836.0000 1.0000
25.7300 880.0000 1.0000
25.7400 902.0000 1.0000
25.7500 905.0000 1.0000
25.7600 920.0000 1.0000
25.7700 900.0000 1.0000
25.7800 928.0000 1.0000
25.7900 875.0000 1.0000
25.8000 879.0000 1.0000
25.8100 935.0000 1.0000
25.8200 875.0000 1.0000
25.8300 857.0000 1.0000
25.8400 909.0000 1.0000
25.8500 940.0000 1.0000
25.8600 868.0000 1.0000
25.8700 923.0000 1.0000
25.8800 880.0000 1.0000
25.8900 892.0000 1.0000
25.9000 892.0000 1.0000
25.9100 896.0000 1.0000
25.9200 886.0000 1.0000
25.9300 928.0000 1.0000
25.9400 939.0000 1.0000
25.9500 927.0000 1.0000
25.9600 918.0000 1.0000
25.9700 954.0000 1.0000
25.9800 951.0000 1.0000
25.9900 932.0000 1.0000
26.0000 1020.0000 1.0000
26.0100 971.0000 1.0000
26.0200 995.0000 1.0000
26.0300 1007.0000 1.0000
26.0400 964.0000 1.0000
26.0500 1011.0000 1.0000
26.0600 1004.0000 1.0000
26.0700 1011.0000 1.0000
26.0800 1009.0000 1.0000
26.0900 979.0000 1.0000
26.1000 1012.0000 1.0000
26.1100 1039.0000 1.0000
26.1200 1133.0000 1.0000
26.1300 1100.0000 1.0000
26.1400 1110.0000 1.0000
26.1500 1223.0000 1.0000
26.1600 1176.0000 1.0000
26.1700 1222.0000 1.0000
26.1800 1235.0000 1.0000
26.1900 1272.0000 1.0000
26.2000 1276.0000 1.0000
26.2100 1288.0000 1.0000
26.2200 1387.0000 1.0000
26.2300 1436.0000 1.0000
26.2400 1463.0000 1.0000
26.2500 1474.0000 1.0000
26.2600 1507.0000 1.0000
26.2700 1583.0000 1.0000
26.2800 1635.0000 1.0000
26.2900 1709.0000 1.0000
26.3000 1778.0000 1.0000
26.3100 1927.0000 1.0000
26.3200 2019.0000 1.0000
26.3300 2081.0000 1.0000
26.3400 2181.0000 1.0000
26.3500 2450.0000 1.0000
26.3600 2502.0000 1.0000
26.3700 2608.0000 1.0000
26.3800 2798.0000 1.0000
26.3900 2945.0000 1.0000
26.4000 3032.0000 1.0000
26.4100 3094.0000 1.0000
26.4200 3229.0000 1.0000
26.4300 3294.0000 1.0000
26.4400 3210.0000 1.0000
26.4500 3114.0000 1.0000
26.4600 3016.0000 1.0000
26.4700 2971.0000 1.0000
26.4800 2834.0000 1.0000
26.4900 2762.0000 1.0000
26.5000 2590.0000 1.0000
26.5100 2407.0000 1.0000
26.5200 2411.0000 1.0000
26.5300 2213.0000 1.0000
26.5400 2070.0000 1.0000
26.5500 1987.0000 1.0000
26.5600 1890.0000 1.0000
26.5700 1792.0000 1.0000
26.5800 1747.0000 1.0000
26.5900 1595.0000 1.0000
26.6000 1518.0000 1.0000
26.6100 1453.0000 1.0000
26.6200 1440.0000 1.0000
26.6300 1387.0000 1.0000
26.6400 1363.0000 1.0000
26.6500 1257.0000 1.0000
26.6600 1220.0000 1.0000
26.6700 1198.0000 1.0000
26.6800 1181.0000 1.0000
26.6900 1152.0000 1.0000
26.7000 1124.0000 1.0000
26.7100 1086.0000 1.0000
26.7200 1074.0000 1.0000
26.7300 1140.0000 1.0000
26.7400 1087.0000 1.0000
26.7500 1036.0000 1.0000
26.7600 1057.0000 1.0000
26.7700 1002.0000 1.0000
26.7800 968.0000 1.0000
26.7900 1021.0000 1.0000
26.8000 1021.0000 1.0000
26.8100 1002.0000 1.0000
26.8200 951.0000 1.0000
26.8300 968.0000 1.0000
26.8400 944.0000 1.0000
26.8500 987.0000 1.0000
26.8600 975.0000 1.0000
26.8700 962.0000 1.0000
26.8800 944.0000 1.0000
26.8900 915.0000 1.0000
26.9000 920.0000 1.0000
26.9100 931.0000 1.0000
26.9200 949.0000 1.0000
26.9300 869.0000 1.0000
26.9400 872.0000 1.0000
26.9500 928.0000 1.0000
26.9600 901.0000 1.0000
26.9700 839.0000 1.0000
26.9800 849.0000 1.0000
26.9900 888.0000 1.0000
27.0000 820.0000 1.0000
27.0100 836.0000 1.0000
27.0200 829.0000 1.0000
27.0300 870.0000 1.0000
27.0400 852.0000 1.0000
27.0500 881.0000 1.0000
27.0600 860.0000 1.0000
27.0700 910.0000 1.0000
27.0800 813.0000 1.0000
27.0900 809.0000 1.0000
27.1000 853.0000 1.0000
27.1100 855.0000 1.0000
27.1200 880.0000 1.0000
27.1300 833.0000 1.0000
27.1400 801.0000 1.0000
27.1500 842.0000 1.0000
27.1600 821.0000 1.0000
27.1700 818.0000 1.0000
27.1800 831.0000 1.0000
27.1900 787.0000 1.0000
27.2000 836.0000 1.0000
27.2100 854.0000 1.0000
27.2200 869.0000 1.0000
27.2300 784.0000 1.0000
27.2400 814.0000 1.0000
27.2500 850.0000 1.0000
27.2600 851.0000 1.0000
27.2700 792.0000 1.0000
27.2800 805.0000 1.0000
27.2900 857.0000 1.0000
27.3000 811.0000 1.0000
27.3100 871.0000 1.0000
27.3200 818.0000 1.0000
27.3300 833.0000 1.0000
27.3400 819.0000 1.0000
27.3500 807.0000 1.0000
27.3600 770.0000 1.0000
27.3700 810.0000 1.0000
27.3800 801.0000 1.0000
27.3900 780.0000 1.0000
27.4000 791.0000 1.0000
27.4100 775.0000 1.0000
27.4200 749.0000 1.0000
27.4300 799.0000 1.0000
27.4400 837.0000 1.0000
27.4500 823.0000 1.0000
27.4600 802.0000 1.0000
27.4700 776.0000 1.0000
27.4800 837.0000 1.0000
27.4900 813.0000 1.0000
27.5000 828.0000 1.0000
27.5100 810.0000 1.0000
27.5200 778.0000 1.0000
27.5300 813.0000 1.0000
27.5400 793.0000 1.0000
27.5500 753.0000 1.0000
27.5600 734.0000 1.0000
27.5700 789.0000 1.0000
27.5800 795.0000 1.0000
27.5900 774.0000 1.0000
27.6000 760.0000 1.0000
27.6100 771.0000 1.0000
27.6200 794.0000 1.0000
27.6300 801.0000 1.0000
27.6400 768.0000 1.0000
27.6500 781.0000 1.0000
27.6600 807.0000 1.0000
27.6700 761.0000 1.0000
27.6800 823.0000 1.0000
27.6900 784.0000 1.0000
27.7000 787.0000 1.0000
27.7100 758.0000 1.0000
27.7200 780.0000 1.0000
27.7300 793.0000 1.0000
27.7400 763.0000 1.0000
27.7500 754.0000 1.0000
27.7600 711.0000 1.0000
27.7700 762.0000 1.0000
27.7800 779.0000 1.0000
27.7900 774.0000 1.0000
27.8000 760.0000 1.0000
27.8100 759.0000 1.0000
27.8200 762.0000 1.0000
27.8300 784.0000 1.0000
27.8400 784.0000 1.0000
27.8500 762.0000 1.0000
27.8600 749.0000 1.0000
27.8700 805.0000 1.0000
27.8800 783.0000 1.0000
27.8900 739.0000 1.0000
27.9000 776.0000 1.0000
27.9100 781.0000 1.0000
27.9200 737.0000 1.0000
27.9300 757.0000 1.0000
27.9400 772.0000 1.0000
27.9500 777.0000 1.0000
27.9600 823.0000 1.0000
27.9700 753.0000 1.0000
27.9800 782.0000 1.0000
27.9900 777.0000 1.0000
28.0000 776.0000 1.0000
28.0100 779.0000 1.0000
28.0200 729.0000 1.0000
28.0300 731.0000 1.0000
28.0400 756.0000 1.0000
28.0500 773.0000 1.0000
28.0600 804.0000 1.0000
28.0700 786.0000 1.0000
28.0800 761.0000 1.0000
28.0900 768.0000 1.0000
28.1000 736.0000 1.0000
28.1100 776.0000 1.0000
28.1200 781.0000 1.0000
28.1300 772.0000 1.0000
28.1400 735.0000 1.0000
28.1500 803.0000 1.0000
28.1600 742.0000 1.0000
28.1700 765.0000 1.0000
28.1800 746.0000 1.0000
28.1900 759.0000 1.0000
28.2000 720.0000 1.0000
28.2100 779.0000 1.0000
28.2200 781.0000 1.0000
28.2300 751.0000 1.0000
28.2400 790.0000 1.0000
28.2500 820.0000 1.0000
28.2600 803.0000 1.0000
28.2700 742.0000 1.0000
28.2800 726.0000 1.0000
28.2900 738.0000 1.0000
28.3000 753.0000 1.0000
28.3100 770.0000 1.0000
28.3200 765.0000 1.0000
28.3300 757.0000 1.0000
28.3400 736.0000 1.0000
28.3500 716.0000 1.0000
28.3600 734.0000 1.0000
28.3700 782.0000 1.0000
28.3800 775.0000 1.0000
28.3900 785.0000 1.0000
28.4000 747.0000 1.0000
28.4100 707.0000 1.0000
28.4200 710.0000 1.0000
28.4300 766.0000 1.0000
28.4400 754.0000 1.0000
28.4500 785.0000 1.0000
28.4600 743.0000 1.0000
28.4700 742.0000 1.0000
28.4800 728.0000 1.0000
28.4900 739.0000 1.0000
28.5000 745.0000 1.0000
28.5100 758.0000 1.0000
28.5200 766.0000 1.0000
28.5300 778.0000 1.0000
28.5400 728.0000 1.0000
28.5500 769.0000 1.0000
28.5600 737.0000 1.0000
28.5700 766.0000 1.0000
28.5800 708.0000 1.0000
28.5900 738.0000 1.0000
28.6000 726.0000 1.0000
28.6100 789.0000 1.0000
28.6200 730.0000 1.0000
28.6300 731.0000 1.0000
28.6400 772.0000 1.0000
28.6500 679.0000 1.0000
28.6600 725.0000 1.0000
28.6700 733.0000 1.0000
28.6800 741.0000 1.0000
28.6900 735.0000 1.0000
28.7000 736.0000 1.0000
28.7100 711.0000 1.0000
28.7200 716.0000 1.0000
28.7300 756.0000 1.0000
28.7400 762.0000 1.0000
28.7500 751.0000 1.0000
28.7600 718.0000 1.0000
28.7700 766.0000 1.0000
28.7800 753.0000 1.0000
28.7900 723.0000 1.0000
28.8000 718.0000 1.0000
28.8100 756.0000 1.0000
28.8200 760.0000 1.0000
28.8300 724.0000 1.0000
28.8400 744.0000 1.0000
28.8500 748.0000 1.0000
28.8600 762.0000 1.0000
28.8700 736.0000 1.0000
28.8800 745.0000 1.0000
28.8900 749.0000 1.0000
28.9000 739.0000 1.0000
28.9100 737.0000 1.0000
28.9200 731.0000 1.0000
28.9300 722.0000 1.0000
28.9400 722.0000 1.0000
28.9500 743.0000 1.0000
28.9600 745.0000 1.0000
28.9700 716.0000 1.0000
28.9800 695.0000 1.0000
28.9900 730.0000 1.0000
29.0000 725.0000 1.0000
29.0100 730.0000 1.0000
29.0200 739.0000 1.0000
29.0300 700.0000 1.0000
29.0400 771.0000 1.0000
29.0500 748.0000 1.0000
29.0600 750.0000 1.0000
29.0700 727.0000 1.0000
29.0800 712.0000 1.0000
29.0900 702.0000 1.0000
29.1000 708.0000 1.0000
29.1100 721.0000 1.0000
29.1200 707.0000 1.0000
29.1300 710.0000 1.0000
29.1400 735.0000 1.0000
29.1500 719.0000 1.0000
29.1600 713.0000 1.0000
29.1700 745.0000 1.0000
29.1800 706.0000 1.0000
29.1900 728.0000 1.0000
29.2000 726.0000 1.0000
29.2100 680.0000 1.0000
29.2200 707.0000 1.0000
29.2300 720.0000 1.0000
29.2400 687.0000 1.0000
29.2500 689.0000 1.0000
29.2600 708.0000 1.0000
29.2700 688.0000 1.0000
29.2800 715.0000 1.0000
29.2900 698.0000 1.0000
29.3000 694.0000 1.0000
29.3100 722.0000 1.0000
29.3200 747.0000 1.0000
29.3300 710.0000 1.0000
29.3400 729.0000 1.0000
29.3500 729.0000 1.0000
29.3600 753.0000 1.0000
29.3700 695.0000 1.0000
29.3800 692.0000 1.0000
29.3900 706.0000 1.0000
29.4000 716.0000 1.0000
29.4100 713.0000 1.0000
29.4200 714.0000 1.0000
29.4300 688.0000 1.0000
29.4400 708.0000 1.0000
29.4500 669.0000 1.0000
29.4600 705.0000 1.0000
29.4700 708.0000 1.0000
29.4800 693.0000 1.0000
29.4900 728.0000 1.0000
29.5000 762.0000 1.0000
29.5100 720.0000 1.0000
29.5200 682.0000 1.0000
29.5300 726.0000 1.0000
29.5400 724.0000 1.0000
29.5500 707.0000 1.0000
29.5600 697.0000 1.0000
29.5700 710.0000 1.0000
29.5800 696.0000 1.0000
29.5900 694.0000 1.0000
29.6000 684.0000 1.0000
29.6100 775.0000 1.0000
29.6200 712.0000 1.0000
29.6300 725.0000 1.0000
29.6400 748.0000 1.0000
29.6500 713.0000 1.0000
29.6600 695.0000 1.0000
29.6700 735.0000 1.0000
29.6800 727.0000 1.0000
29.6900 722.0000 1.0000
29.7000 683.0000 1.0000
29.7100 684.0000 1.0000
29.7200 716.0000 1.0000
29.7300 708.0000 1.0000
29.7400 730.0000 1.0000
29.7500 744.0000 1.0000
29.7600 699.0000 1.0000
29.7700 705.0000 1.0000
29.7800 708.0000 1.0000
29.7900 720.0000 1.0000
29.8000 738.0000 1.0000
29.8100 749.0000 1.0000
29.8200 685.0000 1.0000
29.8300 723.0000 1.0000
29.8400 694.0000 1.0000
29.8500 714.0000 1.0000
29.8600 681.0000 1.0000
29.8700 722.0000 1.0000
29.8800 663.0000 1.0000
29.8900 710.0000 1.0000
29.9000 690.0000 1.0000
29.9100 701.0000 1.0000
29.9200 711.0000 1.0000
29.9300 675.0000 1.0000
29.9400 725.0000 1.0000
29.9500 700.0000 1.0000
29.9600 688.0000 1.0000
29.9700 753.0000 1.0000
29.9800 716.0000 1.0000
29.9900 727.0000 1.0000
30.0000 719.0000 1.0000
30.0100 686.0000 1.0000
30.0200 713.0000 1.0000
30.0300 663.0000 1.0000
30.0400 688.0000 1.0000
30.0500 740.0000 1.0000
30.0600 692.0000 1.0000
30.0700 701.0000 1.0000
30.0800 721.0000 1.0000
30.0900 693.0000 1.0000
30.1000 701.0000 1.0000
30.1100 682.0000 1.0000
30.1200 706.0000 1.0000
30.1300 717.0000 1.0000
30.1400 708.0000 1.0000
30.1500 713.0000 1.0000
30.1600 710.0000 1.0000
30.1700 768.0000 1.0000
30.1800 731.0000 1.0000
30.1900 726.0000 1.0000
30.2000 719.0000 1.0000
30.2100 708.0000 1.0000
30.2200 682.0000 1.0000
30.2300 694.0000 1.0000
30.2400 686.0000 1.0000
30.2500 721.0000 1.0000
30.2600 711.0000 1.0000
30.2700 708.0000 1.0000
30.2800 702.0000 1.0000
30.2900 702.0000 1.0000
30.3000 697.0000 1.0000
30.3100 668.0000 1.0000
30.3200 720.0000 1.0000
30.3300 731.0000 1.0000
30.3400 707.0000 1.0000
30.3500 694.0000 1.0000
30.3600 639.0000 1.0000
30.3700 644.0000 1.0000
30.3800 735.0000 1.0000
30.3900 661.0000 1.0000
30.4000 662.0000 1.0000
30.4100 671.0000 1.0000
30.4200 679.0000 1.0000
30.4300 690.0000 1.0000
30.4400 699.0000 1.0000
30.4500 666.0000 1.0000
30.4600 703.0000 1.0000
30.4700 676.0000 1.0000
30.4800 684.0000 1.0000
30.4900 692.0000 1.0000
30.5000 648.0000 1.0000
30.5100 694.0000 1.0000
30.5200 704.0000 1.0000
30.5300 661.0000 1.0000
30.5400 729.0000 1.0000
30.5500 683.0000 1.0000
30.5600 662.0000 1.0000
30.5700 675.0000 1.0000
30.5800 692.0000 1.0000
30.5900 666.0000 1.0000
30.6000 700.0000 1.0000
30.6100 688.0000 1.0000
30.6200 712.0000 1.0000
30.6300 712.0000 1.0000
30.6400 702.0000 1.0000
30.6500 681.0000 1.0000
30.6600 649.0000 1.0000
30.6700 701.0000 1.0000
30.6800 670.0000 1.0000
30.6900 711.0000 1.0000
30.7000 630.0000 1.0000
30.7100 617.0000 1.0000
30.7200 659.0000 1.0000
30.7300 701.0000 1.0000
30.7400 695.0000 1.0000
30.7500 745.0000 1.0000
30.7600 717.0000 1.0000
30.7700 667.0000 1.0000
30.7800 677.0000 1.0000
30.7900 702.0000 1.0000
30.8000 676.0000 1.0000
30.8100 663.0000 1.0000
30.8200 673.0000 1.0000
30.8300 658.0000 1.0000
30.8400 656.0000 1.0000
30.8500 691.0000 1.0000
30.8600 673.0000 1.0000
30.8700 653.0000 1.0000
30.8800 685.0000 1.0000
30.8900 683.0000 1.0000
30.9000 659.0000 1.0000
30.9100 653.0000 1.0000
30.9200 679.0000 1.0000
30.9300 681.0000 1.0000
30.9400 672.0000 1.0000
30.9500 664.0000 1.0000
30.9600 664.0000 1.0000
30.9700 677.0000 1.0000
30.9800 673.0000 1.0000
30.9900 691.0000 1.0000
31.0000 717.0000 1.0000
31.0100 677.0000 1.0000
31.0200 696.0000 1.0000
31.0300 718.0000 1.0000
31.0400 730.0000 1.0000
31.0500 668.0000 1.0000
31.0600 694.0000 1.0000
31.0700 704.0000 1.0000
31.0800 681.0000 1.0000
31.0900 676.0000 1.0000
31.1000 684.0000 1.0000
31.1100 689.0000 1.0000
31.1200 688.0000 1.0000
31.1300 653.0000 1.0000
31.1400 708.0000 1.0000
31.1500 676.0000 1.0000
31.1600 673.0000 1.0000
31.1700 685.0000 1.0000
31.1800 653.0000 1.0000
31.1900 704.0000 1.0000
31.2000 680.0000 1.0000
31.2100 694.0000 1.0000
31.2200 672.0000 1.0000
31.2300 667.0000 1.0000
31.2400 686.0000 1.0000
31.2500 694.0000 1.0000
31.2600 657.0000 1.0000
31.2700 672.0000 1.0000
31.2800 652.0000 1.0000
31.2900 659.0000 1.0000
31.3000 634.0000 1.0000
31.3100 668.0000 1.0000
31.3200 637.0000 1.0000
31.3300 665.0000 1.0000
31.3400 708.0000 1.0000
31.3500 666.0000 1.0000
31.3600 663.0000 1.0000
31.3700 689.0000 1.0000
31.3800 677.0000 1.0000
31.3900 660.0000 1.0000
31.4000 660.0000 1.0000
31.4100 643.0000 1.0000
31.4200 642.0000 1.0000
31.4300 679.0000 1.0000
31.4400 618.0000 1.0000
31.4500 669.0000 1.0000
31.4600 636.0000 1.0000
31.4700 664.0000 1.0000
31.4800 698.0000 1.0000
31.4900 701.0000 1.0000
31.5000 652.0000 1.0000
31.5100 654.0000 1.0000
31.5200 677.0000 1.0000
31.5300 650.0000 1.0000
31.5400 686.0000 1.0000
31.5500 660.0000 1.0000
31.5600 670.0000 1.0000
31.5700 681.0000 1.0000
31.5800 616.0000 1.0000
31.5900 667.0000 1.0000
31.6000 658.0000 1.0000
31.6100 632.0000 1.0000
31.6200 666.0000 1.0000
31.6300 631.0000 1.0000
31.6400 647.0000 1.0000
31.6500 646.0000 1.0000
31.6600 627.0000 1.0000
31.6700 653.0000 1.0000
31.6800 627.0000 1.0000
31.6900 671.0000 1.0000
31.7000 686.0000 1.0000
31.7100 645.0000 1.0000
31.7200 649.0000 1.0000
31.7300 677.0000 1.0000
31.7400 677.0000 1.0000
31.7500 646.0000 1.0000
31.7600 667.0000 1.0000
31.7700 642.0000 1.0000
31.7800 640.0000 1.0000
31.7900 629.0000 1.0000
31.8000 686.0000 1.0000
31.8100 694.0000 1.0000
31.8200 652.0000 1.0000
31.8300 650.0000 1.0000
31.8400 681.0000 1.0000
31.8500 663.0000 1.0000
31.8600 690.0000 1.0000
31.8700 645.0000 1.0000
31.8800 637.0000 1.0000
31.8900 610.0000 1.0000
31.9000 620.0000 1.0000
31.9100 659.0000 1.0000
31.9200 639.0000 1.0000
31.9300 681.0000 1.0000
31.9400 641.0000 1.0000
31.9500 643.0000 1.0000
31.9600 622.0000 1.0000
31.9700 637.0000 1.0000
31.9800 643.0000 1.0000
31.9900 639.0000 1.0000
32.0000 662.0000 1.0000
32.0100 687.0000 1.0000
32.0200 626.0000 1.0000
32.0300 653.0000 1.0000
32.0400 640.0000 1.0000
32.0500 655.0000 1.0000
32.0600 644.0000 1.0000
32.0700 640.0000 1.0000
32.0800 634.0000 1.0000
32.0900 641.0000 1.0000
32.1000 635.0000 1.0000
32.1100 615.0000 1.0000
32.1200 640.0000 1.0000
32.1300 657.0000 1.0000
32.1400 623.0000 1.0000
32.1500 626.0000 1.0000
32.1600 627.0000 1.0000
32.1700 613.0000 1.0000
32.1800 653.0000 1.0000
32.1900 640.0000 1.0000
32.2000 602.0000 1.0000
32.2100 642.0000 1.0000
32.2200 660.0000 1.0000
32.2300 654.0000 1.0000
32.2400 624.0000 1.0000
32.2500 616.0000 1.0000
32.2600 638.0000 1.0000
32.2700 618.0000 1.0000
32.2800 614.0000 1.0000
32.2900 647.0000 1.0000
32.3000 624.0000 1.0000
32.3100 636.0000 1.0000
32.3200 639.0000 1.0000
32.3300 623.0000 1.0000
32.3400 636.0000 1.0000
32.3500 647.0000 1.0000
32.3600 637.0000 1.0000
32.3700 645.0000 1.0000
32.3800 649.0000 1.0000
32.3900 612.0000 1.0000
32.4000 620.0000 1.0000
32.4100 611.0000 1.0000
32.4200 622.0000 1.0000
32.4300 614.0000 1.0000
32.4400 637.0000 1.0000
32.4500 636.0000 1.0000
32.4600 629.0000 1.0000
32.4700 615.0000 1.0000
32.4800 622.0000 1.0000
32.4900 694.0000 1.0000
32.5000 631.0000 1.0000
32.5100 614.0000 1.0000
32.5200 610.0000 1.0000
32.5300 660.0000 1.0000
32.5400 681.0000 1.0000
32.5500 671.0000 1.0000
32.5600 637.0000 1.0000
32.5700 650.0000 1.0000
32.5800 615.0000 1.0000
32.5900 663.0000 1.0000
32.6000 652.0000 1.0000
32.6100 619.0000 1.0000
32.6200 638.0000 1.0000
32.6300 638.0000 1.0000
32.6400 662.0000 1.0000
32.6500 603.0000 1.0000
32.6600 647.0000 1.0000
32.6700 610.0000 1.0000
32.6800 663.0000 1.0000
32.6900 639.0000 1.0000
32.7000 645.0000 1.0000
32.7100 656.0000 1.0000
32.7200 695.0000 1.0000
32.7300 621.0000 1.0000
32.7400 640.0000 1.0000
32.7500 691.0000 1.0000
32.7600 666.0000 1.0000
32.7700 656.0000 1.0000
32.7800 644.0000 1.0000
32.7900 666.0000 1.0000
32.8000 671.0000 1.0000
32.8100 642.0000 1.0000
32.8200 639.0000 1.0000
32.8300 662.0000 1.0000
32.8400 692.0000 1.0000
32.8500 662.0000 1.0000
32.8600 643.0000 1.0000
32.8700 651.0000 1.0000
32.8800 623.0000 1.0000
32.8900 675.0000 1.0000
32.9000 730.0000 1.0000
32.9100 708.0000 1.0000
32.9200 717.0000 1.0000
32.9300 707.0000 1.0000
32.9400 701.0000 1.0000
32.9500 714.0000 1.0000
32.9600 685.0000 1.0000
32.9700 741.0000 1.0000
32.9800 749.0000 1.0000
32.9900 706.0000 1.0000
33.0000 770.0000 1.0000
33.0100 743.0000 1.0000
33.0200 747.0000 1.0000
33.0300 775.0000 1.0000
33.0400 773.0000 1.0000
33.0500 825.0000 1.0000
33.0600 836.0000 1.0000
33.0700 877.0000 1.0000
33.0800 787.0000 1.0000
33.0900 860.0000 1.0000
33.1000 822.0000 1.0000
33.1100 857.0000 1.0000
33.1200 825.0000 1.0000
33.1300 802.0000 1.0000
33.1400 816.0000 1.0000
33.1500 809.0000 1.0000
33.1600 773.0000 1.0000
33.1700 777.0000 1.0000
33.1800 783.0000 1.0000
33.1900 779.0000 1.0000
33.2000 764.0000 1.0000
33.2100 766.0000 1.0000
33.2200 786.0000 1.0000
33.2300 731.0000 1.0000
33.2400 755.0000 1.0000
33.2500 756.0000 1.0000
33.2600 724.0000 1.0000
33.2700 753.0000 1.0000
33.2800 728.0000 1.0000
33.2900 711.0000 1.0000
33.3000 701.0000 1.0000
33.3100 690.0000 1.0000
33.3200 721.0000 1.0000
33.3300 772.0000 1.0000
33.3400 767.0000 1.0000
33.3500 784.0000 1.0000
33.3600 760.0000 1.0000
33.3700 794.0000 1.0000
33.3800 763.0000 1.0000
33.3900 791.0000 1.0000
33.4000 809.0000 1.0000
33.4100 810.0000 1.0000
33.4200 774.0000 1.0000
33.4300 824.0000 1.0000
33.4400 850.0000 1.0000
33.4500 845.0000 1.0000
33.4600 853.0000 1.0000
33.4700 830.0000 1.0000
33.4800 941.0000 1.0000
33.4900 941.0000 1.0000
33.5000 957.0000 1.0000
33.5100 975.0000 1.0000
33.5200 1032.0000 1.0000
33.5300 1036.0000 1.0000
33.5400 1139.0000 1.0000
33.5500 1157.0000 1.0000
33.5600 1189.0000 1.0000
33.5700 1255.0000 1.0000
33.5800 1299.0000 1.0000
33.5900 1361.0000 1.0000
33.6000 1468.0000 1.0000
33.6100 1478.0000 1.0000
33.6200 1494.0000 1.0000
33.6300 1495.0000 1.0000
33.6400 1512.0000 1.0000
33.6500 1522.0000 1.0000
33.6600 1505.0000 1.0000
33.6700 1454.0000 1.0000
33.6800 1424.0000 1.0000
33.6900 1400.0000 1.0000
33.7000 1393.0000 1.0000
33.7100 1317.0000 1.0000
33.7200 1247.0000 1.0000
33.7300 1240.0000 1.0000
33.7400 1237.0000 1.0000
33.7500 1162.0000 1.0000
33.7600 1128.0000 1.0000
33.7700 1075.0000 1.0000
33.7800 1051.0000 1.0000
33.7900 981.0000 1.0000
33.8000 949.0000 1.0000
33.8100 895.0000 1.0000
33.8200 885.0000 1.0000
33.8300 845.0000 1.0000
33.8400 784.0000 1.0000
33.8500 821.0000 1.0000
33.8600 789.0000 1.0000
33.8700 765.0000 1.0000
33.8800 838.0000 1.0000
33.8900 826.0000 1.0000
33.9000 779.0000 1.0000
33.9100 748.0000 1.0000
33.9200 741.0000 1.0000
33.9300 749.0000 1.0000
33.9400 731.0000 1.0000
33.9500 698.0000 1.0000
33.9600 739.0000 1.0000
33.9700 718.0000 1.0000
33.9800 644.0000 1.0000
33.9900 659.0000 1.0000
34.0000 661.0000 1.0000
34.0100 643.0000 1.0000
34.0200 658.0000 1.0000
34.0300 662.0000 1.0000
34.0400 645.0000 1.0000
34.0500 613.0000 1.0000
34.0600 664.0000 1.0000
34.0700 674.0000 1.0000
34.0800 635.0000 1.0000
34.0900 677.0000 1.0000
34.1000 614.0000 1.0000
34.1100 630.0000 1.0000
34.1200 664.0000 1.0000
34.1300 648.0000 1.0000
34.1400 650.0000 1.0000
34.1500 614.0000 1.0000
34.1600 637.0000 1.0000
34.1700 607.0000 1.0000
34.1800 591.0000 1.0000
34.1900 631.0000 1.0000
34.2000 662.0000 1.0000
34.2100 609.0000 1.0000
34.2200 553.0000 1.0000
34.2300 588.0000 1.0000
34.2400 568.0000 1.0000
34.2500 600.0000 1.0000
34.2600 631.0000 1.0000
34.2700 600.0000 1.0000
34.2800 567.0000 1.0000
34.2900 578.0000 1.0000
34.3000 633.0000 1.0000
34.3100 592.0000 1.0000
34.3200 600.0000 1.0000
34.3300 559.0000 1.0000
34.3400 603.0000 1.0000
34.3500 594.0000 1.0000
34.3600 608.0000 1.0000
34.3700 613.0000 1.0000
34.3800 607.0000 1.0000
34.3900 605.0000 1.0000
34.4000 585.0000 1.0000
34.4100 563.0000 1.0000
34.4200 565.0000 1.0000
34.4300 570.0000 1.0000
34.4400 568.0000 1.0000
34.4500 572.0000 1.0000
34.4600 594.0000 1.0000
34.4700 577.0000 1.0000
34.4800 564.0000 1.0000
34.4900 560.0000 1.0000
34.5000 594.0000 1.0000
34.5100 556.0000 1.0000
34.5200 546.0000 1.0000
34.5300 588.0000 1.0000
34.5400 552.0000 1.0000
34.5500 552.0000 1.0000
34.5600 562.0000 1.0000
34.5700 565.0000 1.0000
34.5800 563.0000 1.0000
34.5900 592.0000 1.0000
34.6000 546.0000 1.0000
34.6100 551.0000 1.0000
34.6200 573.0000 1.0000
34.6300 538.0000 1.0000
34.6400 548.0000 1.0000
34.6500 542.0000 1.0000
34.6600 579.0000 1.0000
34.6700 578.0000 1.0000
34.6800 572.0000 1.0000
34.6900 561.0000 1.0000
34.7000 556.0000 1.0000
34.7100 598.0000 1.0000
34.7200 533.0000 1.0000
34.7300 533.0000 1.0000
34.7400 535.0000 1.0000
34.7500 573.0000 1.0000
34.7600 566.0000 1.0000
34.7700 563.0000 1.0000
34.7800 583.0000 1.0000
34.7900 576.0000 1.0000
34.8000 552.0000 1.0000
34.8100 571.0000 1.0000
34.8200 548.0000 1.0000
34.8300 566.0000 1.0000
34.8400 549.0000 1.0000
34.8500 557.0000 1.0000
34.8600 554.0000 1.0000
34.8700 567.0000 1.0000
34.8800 569.0000 1.0000
34.8900 568.0000 1.0000
34.9000 529.0000 1.0000
34.9100 536.0000 1.0000
34.9200 543.0000 1.0000
34.9300 607.0000 1.0000
34.9400 577.0000 1.0000
34.9500 568.0000 1.0000
34.9600 544.0000 1.0000
34.9700 559.0000 1.0000
34.9800 542.0000 1.0000
34.9900 526.0000 1.0000
35.0000 548.0000 1.0000
35.0100 567.0000 1.0000
35.0200 554.0000 1.0000
35.0300 533.0000 1.0000
35.0400 543.0000 1.0000
35.0500 550.0000 1.0000
35.0600 559.0000 1.0000
35.0700 533.0000 1.0000
35.0800 553.0000 1.0000
35.0900 559.0000 1.0000
35.1000 563.0000 1.0000
35.1100 536.0000 1.0000
35.1200 545.0000 1.0000
35.1300 540.0000 1.0000
35.1400 571.0000 1.0000
35.1500 551.0000 1.0000
35.1600 522.0000 1.0000
35.1700 528.0000 1.0000
35.1800 548.0000 1.0000
35.1900 538.0000 1.0000
35.2000 554.0000 1.0000
35.2100 540.0000 1.0000
35.2200 549.0000 1.0000
35.2300 546.0000 1.0000
35.2400 570.0000 1.0000
35.2500 556.0000 1.0000
35.2600 619.0000 1.0000
35.2700 588.0000 1.0000
35.2800 606.0000 1.0000
35.2900 572.0000 1.0000
35.3000 592.0000 1.0000
35.3100 566.0000 1.0000
35.3200 564.0000 1.0000
35.3300 582.0000 1.0000
35.3400 567.0000 1.0000
35.3500 626.0000 1.0000
35.3600 599.0000 1.0000
35.3700 605.0000 1.0000
35.3800 641.0000 1.0000
35.3900 627.0000 1.0000
35.4000 668.0000 1.0000
35.4100 657.0000 1.0000
35.4200 633.0000 1.0000
35.4300 649.0000 1.0000
35.4400 668.0000 1.0000
35.4500 670.0000 1.0000
35.4600 659.0000 1.0000
35.4700 693.0000 1.0000
35.4800 739.0000 1.0000
35.4900 767.0000 1.0000
35.5000 739.0000 1.0000
35.5100 792.0000 1.0000
35.5200 831.0000 1.0000
35.5300 829.0000 1.0000
35.5400 814.0000 1.0000
35.5500 825.0000 1.0000
35.5600 811.0000 1.0000
35.5700 853.0000 1.0000
35.5800 815.0000 1.0000
35.5900 860.0000 1.0000
35.6000 831.0000 1.0000
35.6100 820.0000 1.0000
35.6200 756.0000 1.0000
35.6300 762.0000 1.0000
35.6400 746.0000 1.0000
35.6500 710.0000 1.0000
35.6600 755.0000 1.0000
35.6700 733.0000 1.0000
35.6800 648.0000 1.0000
35.6900 673.0000 1.0000
35.7000 674.0000 1.0000
35.7100 665.0000 1.0000
35.7200 649.0000 1.0000
35.7300 615.0000 1.0000
35.7400 609.0000 1.0000
35.7500 593.0000 1.0000
35.7600 591.0000 1.0000
35.7700 555.0000 1.0000
35.7800 574.0000 1.0000
35.7900 585.0000 1.0000
35.8000 558.0000 1.0000
35.8100 562.0000 1.0000
35.8200 560.0000 1.0000
35.8300 557.0000 1.0000
35.8400 522.0000 1.0000
35.8500 527.0000 1.0000
35.8600 523.0000 1.0000
35.8700 527.0000 1.0000
35.8800 510.0000 1.0000
35.8900 547.0000 1.0000
35.9000 551.0000 1.0000
35.9100 542.0000 1.0000
35.9200 524.0000 1.0000
35.9300 524.0000 1.0000
35.9400 530.0000 1.0000
35.9500 523.0000 1.0000
35.9600 532.0000 1.0000
35.9700 526.0000 1.0000
35.9800 541.0000 1.0000
35.9900 531.0000 1.0000
36.0000 540.0000 1.0000
36.0100 515.0000 1.0000
36.0200 502.0000 1.0000
36.0300 530.0000 1.0000
36.0400 525.0000 1.0000
36.0500 529.0000 1.0000
36.0600 529.0000 1.0000
36.0700 507.0000 1.0000
36.0800 527.0000 1.0000
36.0900 552.0000 1.0000
36.1000 519.0000 1.0000
36.1100 524.0000 1.0000
36.1200 508.0000 1.0000
36.1300 492.0000 1.0000
36.1400 519.0000 1.0000
36.1500 535.0000 1.0000
36.1600 484.0000 1.0000
36.1700 500.0000 1.0000
36.1800 503.0000 1.0000
36.1900 497.0000 1.0000
36.2000 521.0000 1.0000
36.2100 529.0000 1.0000
36.2200 541.0000 1.0000
36.2300 500.0000 1.0000
36.2400 481.0000 1.0000
36.2500 516.0000 1.0000
36.2600 540.0000 1.0000
36.2700 545.0000 1.0000
36.2800 497.0000 1.0000
36.2900 489.0000 1.0000
36.3000 504.0000 1.0000
36.3100 505.0000 1.0000
36.3200 538.0000 1.0000
36.3300 512.0000 1.0000
36.3400 535.0000 1.0000
36.3500 521.0000 1.0000
36.3600 499.0000 1.0000
36.3700 525.0000 1.0000
36.3800 546.0000 1.0000
36.3900 483.0000 1.0000
36.4000 514.0000 1.0000
36.4100 491.0000 1.0000
36.4200 507.0000 1.0000
36.4300 518.0000 1.0000
36.4400 507.0000 1.0000
36.4500 482.0000 1.0000
36.4600 496.0000 1.0000
36.4700 490.0000 1.0000
36.4800 502.0000 1.0000
36.4900 502.0000 1.0000
36.5000 470.0000 1.0000
36.5100 519.0000 1.0000
36.5200 498.0000 1.0000
36.5300 527.0000 1.0000
36.5400 521.0000 1.0000
36.5500 494.0000 1.0000
36.5600 524.0000 1.0000
36.5700 536.0000 1.0000
36.5800 515.0000 1.0000
36.5900 494.0000 1.0000
36.6000 493.0000 1.0000
36.6100 498.0000 1.0000
36.6200 492.0000 1.0000
36.6300 484.0000 1.0000
36.6400 522.0000 1.0000
36.6500 487.0000 1.0000
36.6600 520.0000 1.0000
36.6700 529.0000 1.0000
36.6800 535.0000 1.0000
36.6900 565.0000 1.0000
36.7000 496.0000 1.0000
36.7100 495.0000 1.0000
36.7200 494.0000 1.0000
36.7300 511.0000 1.0000
36.7400 505.0000 1.0000
36.7500 484.0000 1.0000
36.7600 501.0000 1.0000
36.7700 496.0000 1.0000
36.7800 496.0000 1.0000
36.7900 505.0000 1.0000
36.8000 485.0000 1.0000
36.8100 510.0000 1.0000
36.8200 523.0000 1.0000
36.8300 537.0000 1.0000
36.8400 510.0000 1.0000
36.8500 498.0000 1.0000
36.8600 499.0000 1.0000
36.8700 491.0000 1.0000
36.8800 526.0000 1.0000
36.8900 502.0000 1.0000
36.9000 504.0000 1.0000
36.9100 506.0000 1.0000
36.9200 521.0000 1.0000
36.9300 539.0000 1.0000
36.9400 491.0000 1.0000
36.9500 499.0000 1.0000
36.9600 495.0000 1.0000
36.9700 514.0000 1.0000
36.9800 509.0000 1.0000
36.9900 500.0000 1.0000
37.0000 514.0000 1.0000
37.0100 462.0000 1.0000
37.0200 504.0000 1.0000
37.0300 514.0000 1.0000
37.0400 461.0000 1.0000
37.0500 549.0000 1.0000
37.0600 512.0000 1.0000
37.0700 533.0000 1.0000
37.0800 516.0000 1.0000
37.0900 532.0000 1.0000
37.1000 524.0000 1.0000
37.1100 540.0000 1.0000
37.1200 499.0000 1.0000
37.1300 513.0000 1.0000
37.1400 505.0000 1.0000
37.1500 522.0000 1.0000
37.1600 499.0000 1.0000
37.1700 522.0000 1.0000
37.1800 503.0000 1.0000
37.1900 510.0000 1.0000
37.2000 523.0000 1.0000
37.2100 535.0000 1.0000
37.2200 571.0000 1.0000
37.2300 537.0000 1.0000
37.2400 544.0000 1.0000
37.2500 566.0000 1.0000
37.2600 573.0000 1.0000
37.2700 539.0000 1.0000
37.2800 586.0000 1.0000
37.2900 552.0000 1.0000
37.3000 565.0000 1.0000
37.3100 583.0000 1.0000
37.3200 577.0000 1.0000
37.3300 578.0000 1.0000
37.3400 583.0000 1.0000
37.3500 627.0000 1.0000
37.3600 638.0000 1.0000
37.3700 670.0000 1.0000
37.3800 644.0000 1.0000
37.3900 649.0000 1.0000
37.4000 700.0000 1.0000
37.4100 716.0000 1.0000
37.4200 772.0000 1.0000
37.4300 768.0000 1.0000
37.4400 756.0000 1.0000
37.4500 843.0000 1.0000
37.4600 863.0000 1.0000
37.4700 876.0000 1.0000
37.4800 918.0000 1.0000
37.4900 996.0000 1.0000
37.5000 1002.0000 1.0000
37.5100 1014.0000 1.0000
37.5200 1096.0000 1.0000
37.5300 1178.0000 1.0000
37.5400 1164.0000 1.0000
37.5500 1289.0000 1.0000
37.5600 1369.0000 1.0000
37.5700 1475.0000 1.0000
37.5800 1541.0000 1.0000
37.5900 1740.0000 1.0000
37.6000 1781.0000 1.0000
37.6100 1948.0000 1.0000
37.6200 2073.0000 1.0000
37.6300 2134.0000 1.0000
37.6400 2212.0000 1.0000
37.6500 2307.0000 1.0000
37.6600 2483.0000 1.0000
37.6700 2533.0000 1.0000
37.6800 2520.0000 1.0000
37.6900 2517.0000 1.0000
37.7000 2587.0000 1.0000
37.7100 2607.0000 1.0000
37.7200 2559.0000 1.0000
37.7300 2508.0000 1.0000
37.7400 2514.0000 1.0000
37.7500 2463.0000 1.0000
37.7600 2298.0000 1.0000
37.7700 2224.0000 1.0000
37.7800 2149.0000 1.0000
37.7900 2067.0000 1.0000
37.8000 1913.0000 1.0000
37.8100 1822.0000 1.0000
37.8200 1726.0000 1.0000
37.8300 1676.0000 1.0000
37.8400 1511.0000 1.0000
37.8500 1457.0000 1.0000
37.8600 1367.0000 1.0000
37.8700 1273.0000 1.0000
37.8800 1203.0000 1.0000
37.8900 1170.0000 1.0000
37.9000 1045.0000 1.0000
37.9100 996.0000 1.0000
37.9200 910.0000 1.0000
37.9300 896.0000 1.0000
37.9400 897.0000 1.0000
37.9500 823.0000 1.0000
37.9600 795.0000 1.0000
37.9700 788.0000 1.0000
37.9800 765.0000 1.0000
37.9900 734.0000 1.0000
38.0000 724.0000 1.0000
38.0100 675.0000 1.0000
38.0200 682.0000 1.0000
38.0300 634.0000 1.0000
38.0400 591.0000 1.0000
38.0500 613.0000 1.0000
38.0600 613.0000 1.0000
38.0700 617.0000 1.0000
38.0800 599.0000 1.0000
38.0900 529.0000 1.0000
38.1000 579.0000 1.0000
38.1100 552.0000 1.0000
38.1200 532.0000 1.0000
38.1300 522.0000 1.0000
38.1400 535.0000 1.0000
38.1500 547.0000 1.0000
38.1600 489.0000 1.0000
38.1700 537.0000 1.0000
38.1800 494.0000 1.0000
38.1900 527.0000 1.0000
38.2000 502.0000 1.0000
38.2100 495.0000 1.0000
38.2200 508.0000 1.0000
38.2300 515.0000 1.0000
38.2400 493.0000 1.0000
38.2500 474.0000 1.0000
38.2600 520.0000 1.0000
38.2700 470.0000 1.0000
38.2800 477.0000 1.0000
38.2900 488.0000 1.0000
38.3000 497.0000 1.0000
38.3100 475.0000 1.0000
38.3200 501.0000 1.0000
38.3300 477.0000 1.0000
38.3400 452.0000 1.0000
38.3500 479.0000 1.0000
38.3600 481.0000 1.0000
38.3700 447.0000 1.0000
38.3800 456.0000 1.0000
38.3900 486.0000 1.0000
38.4000 475.0000 1.0000
38.4100 456.0000 1.0000
38.4200 474.0000 1.0000
38.4300 468.0000 1.0000
38.4400 490.0000 1.0000
38.4500 481.0000 1.0000
38.4600 463.0000 1.0000
38.4700 510.0000 1.0000
38.4800 460.0000 1.0000
38.4900 506.0000 1.0000
38.5000 468.0000 1.0000
38.5100 477.0000 1.0000
38.5200 431.0000 1.0000
38.5300 440.0000 1.0000
38.5400 454.0000 1.0000
38.5500 422.0000 1.0000
38.5600 430.0000 1.0000
38.5700 467.0000 1.0000
38.5800 438.0000 1.0000
38.5900 448.0000 1.0000
38.6000 474.0000 1.0000
38.6100 449.0000 1.0000
38.6200 481.0000 1.0000
38.6300 482.0000 1.0000
38.6400 439.0000 1.0000
38.6500 473.0000 1.0000
38.6600 510.0000 1.0000
38.6700 459.0000 1.0000
38.6800 458.0000 1.0000
38.6900 486.0000 1.0000
38.7000 477.0000 1.0000
38.7100 530.0000 1.0000
38.7200 504.0000 1.0000
38.7300 468.0000 1.0000
38.7400 437.0000 1.0000
38.7500 473.0000 1.0000
38.7600 500.0000 1.0000
38.7700 530.0000 1.0000
38.7800 484.0000 1.0000
38.7900 506.0000 1.0000
38.8000 463.0000 1.0000
38.8100 487.0000 1.0000
38.8200 487.0000 1.0000
38.8300 496.0000 1.0000
38.8400 448.0000 1.0000
38.8500 450.0000 1.0000
38.8600 464.0000 1.0000
38.8700 436.0000 1.0000
38.8800 489.0000 1.0000
38.8900 428.0000 1.0000
38.9000 452.0000 1.0000
38.9100 437.0000 1.0000
38.9200 454.0000 1.0000
38.9300 471.0000 1.0000
38.9400 461.0000 1.0000
38.9500 440.0000 1.0000
38.9600 458.0000 1.0000
38.9700 436.0000 1.0000
38.9800 467.0000 1.0000
38.9900 485.0000 1.0000
39.0000 448.0000 1.0000
39.0100 429.0000 1.0000
39.0200 463.0000 1.0000
39.0300 465.0000 1.0000
39.0400 459.0000 1.0000
39.0500 428.0000 1.0000
39.0600 424.0000 1.0000
39.0700 428.0000 1.0000
39.0800 456.0000 1.0000
39.0900 438.0000 1.0000
39.1000 426.0000 1.0000
39.1100 424.0000 1.0000
39.1200 440.0000 1.0000
39.1300 424.0000 1.0000
39.1400 413.0000 1.0000
39.1500 424.0000 1.0000
39.1600 453.0000 1.0000
39.1700 448.0000 1.0000
39.1800 430.0000 1.0000
39.1900 439.0000 1.0000
39.2000 423.0000 1.0000
39.2100 450.0000 1.0000
39.2200 463.0000 1.0000
39.2300 451.0000 1.0000
39.2400 442.0000 1.0000
39.2500 484.0000 1.0000
39.2600 447.0000 1.0000
39.2700 443.0000 1.0000
39.2800 446.0000 1.0000
39.2900 432.0000 1.0000
39.3000 425.0000 1.0000
39.3100 418.0000 1.0000
39.3200 440.0000 1.0000
39.3300 455.0000 1.0000
39.3400 433.0000 1.0000
39.3500 432.0000 1.0000
39.3600 435.0000 1.0000
39.3700 445.0000 1.0000
39.3800 462.0000 1.0000
39.3900 443.0000 1.0000
39.4000 441.0000 1.0000
39.4100 405.0000 1.0000
39.4200 409.0000 1.0000
39.4300 456.0000 1.0000
39.4400 420.0000 1.0000
39.4500 425.0000 1.0000
39.4600 422.0000 1.0000
39.4700 460.0000 1.0000
39.4800 435.0000 1.0000
39.4900 428.0000 1.0000
39.5000 430.0000 1.0000
39.5100 463.0000 1.0000
39.5200 416.0000 1.0000
39.5300 431.0000 1.0000
39.5400 433.0000 1.0000
39.5500 424.0000 1.0000
39.5600 436.0000 1.0000
39.5700 447.0000 1.0000
39.5800 424.0000 1.0000
39.5900 421.0000 1.0000
39.6000 436.0000 1.0000
39.6100 422.0000 1.0000
39.6200 436.0000 1.0000
39.6300 409.0000 1.0000
39.6400 414.0000 1.0000
39.6500 413.0000 1.0000
39.6600 414.0000 1.0000
39.6700 426.0000 1.0000
39.6800 441.0000 1.0000
39.6900 430.0000 1.0000
39.7000 428.0000 1.0000
39.7100 410.0000 1.0000
39.7200 426.0000 1.0000
39.7300 441.0000 1.0000
39.7400 456.0000 1.0000
39.7500 456.0000 1.0000
39.7600 457.0000 1.0000
39.7700 453.0000 1.0000
39.7800 423.0000 1.0000
39.7900 414.0000 1.0000
39.8000 397.0000 1.0000
39.8100 435.0000 1.0000
39.8200 386.0000 1.0000
39.8300 406.0000 1.0000
39.8400 399.0000 1.0000
39.8500 419.0000 1.0000
39.8600 403.0000 1.0000
39.8700 452.0000 1.0000
39.8800 418.0000 1.0000
39.8900 449.0000 1.0000
39.9000 424.0000 1.0000
39.9100 460.0000 1.0000
39.9200 404.0000 1.0000
39.9300 423.0000 1.0000
39.9400 458.0000 1.0000
39.9500 445.0000 1.0000
39.9600 420.0000 1.0000
39.9700 431.0000 1.0000
39.9800 451.0000 1.0000
39.9900 440.0000 1.0000
40.0000 394.0000 1.0000
40.0100 430.0000 1.0000
40.0200 428.0000 1.0000
40.0300 407.0000 1.0000
40.0400 381.0000 1.0000
40.0500 392.0000 1.0000
40.0600 473.0000 1.0000
40.0700 386.0000 1.0000
40.0800 437.0000 1.0000
40.0900 409.0000 1.0000
40.1000 399.0000 1.0000
40.1100 385.0000 1.0000
40.1200 433.0000 1.0000
40.1300 425.0000 1.0000
40.1400 419.0000 1.0000
40.1500 426.0000 1.0000
40.1600 413.0000 1.0000
40.1700 442.0000 1.0000
40.1800 414.0000 1.0000
40.1900 394.0000 1.0000
40.2000 465.0000 1.0000
40.2100 443.0000 1.0000
40.2200 404.0000 1.0000
40.2300 378.0000 1.0000
40.2400 387.0000 1.0000
40.2500 407.0000 1.0000
40.2600 421.0000 1.0000
40.2700 421.0000 1.0000
40.2800 391.0000 1.0000
40.2900 401.0000 1.0000
40.3000 406.0000 1.0000
40.3100 402.0000 1.0000
40.3200 418.0000 1.0000
40.3300 443.0000 1.0000
40.3400 434.0000 1.0000
40.3500 409.0000 1.0000
40.3600 405.0000 1.0000
40.3700 413.0000 1.0000
40.3800 411.0000 1.0000
40.3900 417.0000 1.0000
40.4000 405.0000 1.0000
40.4100 418.0000 1.0000
40.4200 422.0000 1.0000
40.4300 414.0000 1.0000
40.4400 399.0000 1.0000
40.4500 402.0000 1.0000
40.4600 412.0000 1.0000
40.4700 421.0000 1.0000
40.4800 398.0000 1.0000
40.4900 399.0000 1.0000
40.5000 424.0000 1.0000
40.5100 443.0000 1.0000
40.5200 414.0000 1.0000
40.5300 420.0000 1.0000
40.5400 429.0000 1.0000
40.5500 391.0000 1.0000
40.5600 387.0000 1.0000
40.5700 435.0000 1.0000
40.5800 441.0000 1.0000
40.5900 407.0000 1.0000
40.6000 381.0000 1.0000
40.6100 394.0000 1.0000
40.6200 417.0000 1.0000
40.6300 433.0000 1.0000
40.6400 395.0000 1.0000
40.6500 416.0000 1.0000
40.6600 409.0000 1.0000
40.6700 440.0000 1.0000
40.6800 440.0000 1.0000
40.6900 442.0000 1.0000
40.7000 413.0000 1.0000
40.7100 462.0000 1.0000
40.7200 456.0000 1.0000
40.7300 460.0000 1.0000
40.7400 452.0000 1.0000
40.7500 457.0000 1.0000
40.7600 470.0000 1.0000
40.7700 470.0000 1.0000
40.7800 470.0000 1.0000
40.7900 486.0000 1.0000
40.8000 450.0000 1.0000
40.8100 451.0000 1.0000
40.8200 429.0000 1.0000
40.8300 458.0000 1.0000
40.8400 450.0000 1.0000
40.8500 437.0000 1.0000
40.8600 456.0000 1.0000
40.8700 465.0000 1.0000
40.8800 424.0000 1.0000
40.8900 421.0000 1.0000
40.9000 427.0000 1.0000
40.9100 416.0000 1.0000
40.9200 438.0000 1.0000
40.9300 428.0000 1.0000
40.9400 391.0000 1.0000
40.9500 397.0000 1.0000
40.9600 426.0000 1.0000
40.9700 398.0000 1.0000
40.9800 427.0000 1.0000
40.9900 429.0000 1.0000
41.0000 418.0000 1.0000
41.0100 410.0000 1.0000
41.0200 418.0000 1.0000
41.0300 438.0000 1.0000
41.0400 443.0000 1.0000
41.0500 451.0000 1.0000
41.0600 403.0000 1.0000
41.0700 426.0000 1.0000
41.0800 422.0000 1.0000
41.0900 396.0000 1.0000
41.1000 374.0000 1.0000
41.1100 460.0000 1.0000
41.1200 420.0000 1.0000
41.1300 402.0000 1.0000
41.1400 411.0000 1.0000
41.1500 435.0000 1.0000
41.1600 394.0000 1.0000
41.1700 409.0000 1.0000
41.1800 424.0000 1.0000
41.1900 447.0000 1.0000
41.2000 431.0000 1.0000
41.2100 415.0000 1.0000
41.2200 384.0000 1.0000
41.2300 391.0000 1.0000
41.2400 409.0000 1.0000
41.2500 393.0000 1.0000
41.2600 404.0000 1.0000
41.2700 401.0000 1.0000
41.2800 390.0000 1.0000
41.2900 374.0000 1.0000
41.3000 421.0000 1.0000
41.3100 397.0000 1.0000
41.3200 395.0000 1.0000
41.3300 432.0000 1.0000
41.3400 428.0000 1.0000
41.3500 432.0000 1.0000
41.3600 413.0000 1.0000
41.3700 392.0000 1.0000
41.3800 395.0000 1.0000
41.3900 416.0000 1.0000
41.4000 411.0000 1.0000
41.4100 436.0000 1.0000
41.4200 421.0000 1.0000
41.4300 400.0000 1.0000
41.4400 418.0000 1.0000
41.4500 402.0000 1.0000
41.4600 442.0000 1.0000
41.4700 409.0000 1.0000
41.4800 393.0000 1.0000
41.4900 411.0000 1.0000
41.5000 409.0000 1.0000
41.5100 380.0000 1.0000
41.5200 410.0000 1.0000
41.5300 391.0000 1.0000
41.5400 425.0000 1.0000
41.5500 403.0000 1.0000
41.5600 419.0000 1.0000
41.5700 388.0000 1.0000
41.5800 424.0000 1.0000
41.5900 371.0000 1.0000
41.6000 373.0000 1.0000
41.6100 406.0000 1.0000
41.6200 401.0000 1.0000
41.6300 397.0000 1.0000
41.6400 388.0000 1.0000
41.6500 417.0000 1.0000
41.6600 424.0000 1.0000
41.6700 407.0000 1.0000
41.6800 388.0000 1.0000
41.6900 376.0000 1.0000
41.7000 388.0000 1.0000
41.7100 394.0000 1.0000
41.7200 390.0000 1.0000
41.7300 446.0000 1.0000
41.7400 417.0000 1.0000
41.7500 444.0000 1.0000
41.7600 406.0000 1.0000
41.7700 377.0000 1.0000
41.7800 412.0000 1.0000
41.7900 389.0000 1.0000
41.8000 359.0000 1.0000
41.8100 387.0000 1.0000
41.8200 384.0000 1.0000
41.8300 411.0000 1.0000
41.8400 398.0000 1.0000
41.8500 389.0000 1.0000
41.8600 380.0000 1.0000
41.8700 392.0000 1.0000
41.8800 407.0000 1.0000
41.8900 392.0000 1.0000
41.9000 409.0000 1.0000
41.9100 416.0000 1.0000
41.9200 401.0000 1.0000
41.9300 390.0000 1.0000
41.9400 397.0000 1.0000
41.9500 419.0000 1.0000
41.9600 444.0000 1.0000
41.9700 382.0000 1.0000
41.9800 420.0000 1.0000
41.9900 426.0000 1.0000
42.0000 398.0000 1.0000
42.0100 419.0000 1.0000
42.0200 403.0000 1.0000
42.0300 429.0000 1.0000
42.0400 413.0000 1.0000
42.0500 407.0000 1.0000
42.0600 414.0000 1.0000
42.0700 408.0000 1.0000
42.0800 382.0000 1.0000
42.0900 422.0000 1.0000
42.1000 408.0000 1.0000
42.1100 417.0000 1.0000
42.1200 387.0000 1.0000
42.1300 407.0000 1.0000
42.1400 424.0000 1.0000
42.1500 410.0000 1.0000
42.1600 397.0000 1.0000
42.1700 381.0000 1.0000
42.1800 420.0000 1.0000
42.1900 386.0000 1.0000
42.2000 403.0000 1.0000
42.2100 381.0000 1.0000
42.2200 433.0000 1.0000
42.2300 408.0000 1.0000
42.2400 367.0000 1.0000
42.2500 390.0000 1.0000
42.2600 451.0000 1.0000
42.2700 408.0000 1.0000
42.2800 400.0000 1.0000
42.2900 409.0000 1.0000
42.3000 451.0000 1.0000
42.3100 428.0000 1.0000
42.3200 429.0000 1.0000
42.3300 448.0000 1.0000
42.3400 424.0000 1.0000
42.3500 421.0000 1.0000
42.3600 447.0000 1.0000
42.3700 415.0000 1.0000
42.3800 449.0000 1.0000
42.3900 444.0000 1.0000
42.4000 434.0000 1.0000
42.4100 466.0000 1.0000
42.4200 446.0000 1.0000
42.4300 408.0000 1.0000
42.4400 460.0000 1.0000
42.4500 451.0000 1.0000
42.4600 441.0000 1.0000
42.4700 446.0000 1.0000
42.4800 440.0000 1.0000
42.4900 423.0000 1.0000
42.5000 428.0000 1.0000
42.5100 447.0000 1.0000
42.5200 439.0000 1.0000
42.5300 418.0000 1.0000
42.5400 384.0000 1.0000
42.5500 424.0000 1.0000
42.5600 386.0000 1.0000
42.5700 377.0000 1.0000
42.5800 382.0000 1.0000
42.5900 404.0000 1.0000
42.6000 449.0000 1.0000
42.6100 428.0000 1.0000
42.6200 424.0000 1.0000
42.6300 386.0000 1.0000
42.6400 391.0000 1.0000
42.6500 456.0000 1.0000
42.6600 422.0000 1.0000
42.6700 423.0000 1.0000
42.6800 411.0000 1.0000
42.6900 411.0000 1.0000
42.7000 396.0000 1.0000
42.7100 408.0000 1.0000
42.7200 394.0000 1.0000
42.7300 390.0000 1.0000
42.7400 418.0000 1.0000
42.7500 407.0000 1.0000
42.7600 408.0000 1.0000
42.7700 402.0000 1.0000
42.7800 432.0000 1.0000
42.7900 413.0000 1.0000
42.8000 403.0000 1.0000
42.8100 380.0000 1.0000
42.8200 386.0000 1.0000
42.8300 443.0000 1.0000
42.8400 395.0000 1.0000
42.8500 389.0000 1.0000
42.8600 386.0000 1.0000
42.8700 383.0000 1.0000
42.8800 388.0000 1.0000
42.8900 417.0000 1.0000
42.9000 404.0000 1.0000
42.9100 378.0000 1.0000
42.9200 376.0000 1.0000
42.9300 420.0000 1.0000
42.9400 389.0000 1.0000
42.9500 402.0000 1.0000
42.9600 394.0000 1.0000
42.9700 383.0000 1.0000
42.9800 419.0000 1.0000
42.9900 402.0000 1.0000
43.0000 378.0000 1.0000
43.0100 414.0000 1.0000
43.0200 404.0000 1.0000
43.0300 357.0000 1.0000
43.0400 368.0000 1.0000
43.0500 381.0000 1.0000
43.0600 412.0000 1.0000
43.0700 388.0000 1.0000
43.0800 397.0000 1.0000
43.0900 400.0000 1.0000
43.1000 394.0000 1.0000
43.1100 376.0000 1.0000
43.1200 382.0000 1.0000
43.1300 423.0000 1.0000
43.1400 396.0000 1.0000
43.1500 411.0000 1.0000
43.1600 394.0000 1.0000
43.1700 352.0000 1.0000
43.1800 396.0000 1.0000
43.1900 384.0000 1.0000
43.2000 402.0000 1.0000
43.2100 371.0000 1.0000
43.2200 403.0000 1.0000
43.2300 358.0000 1.0000
43.2400 374.0000 1.0000
43.2500 367.0000 1.0000
43.2600 392.0000 1.0000
43.2700 413.0000 1.0000
43.2800 441.0000 1.0000
43.2900 378.0000 1.0000
43.3000 365.0000 1.0000
43.3100 377.0000 1.0000
43.3200 389.0000 1.0000
43.3300 402.0000 1.0000
43.3400 421.0000 1.0000
43.3500 404.0000 1.0000
43.3600 409.0000 1.0000
43.3700 363.0000 1.0000
43.3800 400.0000 1.0000
43.3900 408.0000 1.0000
43.4000 401.0000 1.0000
43.4100 396.0000 1.0000
43.4200 395.0000 1.0000
43.4300 411.0000 1.0000
43.4400 400.0000 1.0000
43.4500 391.0000 1.0000
43.4600 366.0000 1.0000
43.4700 374.0000 1.0000
43.4800 390.0000 1.0000
43.4900 383.0000 1.0000
43.5000 387.0000 1.0000
43.5100 362.0000 1.0000
43.5200 393.0000 1.0000
43.5300 384.0000 1.0000
43.5400 365.0000 1.0000
43.5500 402.0000 1.0000
43.5600 410.0000 1.0000
43.5700 391.0000 1.0000
43.5800 386.0000 1.0000
43.5900 363.0000 1.0000
43.6000 393.0000 1.0000
43.6100 372.0000 1.0000
43.6200 392.0000 1.0000
43.6300 374.0000 1.0000
43.6400 350.0000 1.0000
43.6500 387.0000 1.0000
43.6600 396.0000 1.0000
43.6700 380.0000 1.0000
43.6800 372.0000 1.0000
43.6900 395.0000 1.0000
43.7000 401.0000 1.0000
43.7100 410.0000 1.0000
43.7200 421.0000 1.0000
43.7300 393.0000 1.0000
43.7400 435.0000 1.0000
43.7500 384.0000 1.0000
43.7600 395.0000 1.0000
43.7700 366.0000 1.0000
43.7800 396.0000 1.0000
43.7900 346.0000 1.0000
43.8000 344.0000 1.0000
43.8100 371.0000 1.0000
43.8200 356.0000 1.0000
43.8300 382.0000 1.0000
43.8400 367.0000 1.0000
43.8500 385.0000 1.0000
43.8600 371.0000 1.0000
43.8700 375.0000 1.0000
43.8800 373.0000 1.0000
43.8900 388.0000 1.0000
43.9000 392.0000 1.0000
43.9100 389.0000 1.0000
43.9200 386.0000 1.0000
43.9300 372.0000 1.0000
43.9400 386.0000 1.0000
43.9500 355.0000 1.0000
43.9600 413.0000 1.0000
43.9700 385.0000 1.0000
43.9800 383.0000 1.0000
43.9900 411.0000 1.0000
44.0000 389.0000 1.0000
44.0100 395.0000 1.0000
44.0200 410.0000 1.0000
44.0300 390.0000 1.0000
44.0400 386.0000 1.0000
44.0500 396.0000 1.0000
44.0600 382.0000 1.0000
44.0700 391.0000 1.0000
44.0800 409.0000 1.0000
44.0900 338.0000 1.0000
44.1000 372.0000 1.0000
44.1100 396.0000 1.0000
44.1200 383.0000 1.0000
44.1300 393.0000 1.0000
44.1400 403.0000 1.0000
44.1500 406.0000 1.0000
44.1600 374.0000 1.0000
44.1700 383.0000 1.0000
44.1800 412.0000 1.0000
44.1900 395.0000 1.0000
44.2000 377.0000 1.0000
44.2100 380.0000 1.0000
44.2200 388.0000 1.0000
44.2300 394.0000 1.0000
44.2400 384.0000 1.0000
44.2500 392.0000 1.0000
44.2600 400.0000 1.0000
44.2700 382.0000 1.0000
44.2800 397.0000 1.0000
44.2900 377.0000 1.0000
44.3000 386.0000 1.0000
44.3100 362.0000 1.0000
44.3200 385.0000 1.0000
44.3300 383.0000 1.0000
44.3400 415.0000 1.0000
44.3500 362.0000 1.0000
44.3600 375.0000 1.0000
44.3700 380.0000 1.0000
44.3800 392.0000 1.0000
44.3900 372.0000 1.0000
44.4000 380.0000 1.0000
44.4100 357.0000 1.0000
44.4200 384.0000 1.0000
44.4300 406.0000 1.0000
44.4400 384.0000 1.0000
44.4500 388.0000 1.0000
44.4600 395.0000 1.0000
44.4700 383.0000 1.0000
44.4800 382.0000 1.0000
44.4900 383.0000 1.0000
44.5000 376.0000 1.0000
44.5100 386.0000 1.0000
44.5200 393.0000 1.0000
44.5300 394.0000 1.0000
44.5400 364.0000 1.0000
44.5500 341.0000 1.0000
44.5600 360.0000 1.0000
44.5700 393.0000 1.0000
44.5800 392.0000 1.0000
44.5900 391.0000 1.0000
44.6000 399.0000 1.0000
44.6100 366.0000 1.0000
44.6200 402.0000 1.0000
44.6300 390.0000 1.0000
44.6400 351.0000 1.0000
44.6500 360.0000 1.0000
44.6600 366.0000 1.0000
44.6700 361.0000 1.0000
44.6800 357.0000 1.0000
44.6900 375.0000 1.0000
44.7000 366.0000 1.0000
44.7100 390.0000 1.0000
44.7200 377.0000 1.0000
44.7300 396.0000 1.0000
44.7400 389.0000 1.0000
44.7500 388.0000 1.0000
44.7600 396.0000 1.0000
44.7700 382.0000 1.0000
44.7800 378.0000 1.0000
44.7900 394.0000 1.0000
44.8000 382.0000 1.0000
44.8100 359.0000 1.0000
44.8200 376.0000 1.0000
44.8300 388.0000 1.0000
44.8400 392.0000 1.0000
44.8500 374.0000 1.0000
44.8600 352.0000 1.0000
44.8700 336.0000 1.0000
44.8800 388.0000 1.0000
44.8900 361.0000 1.0000
44.9000 349.0000 1.0000
44.9100 360.0000 1.0000
44.9200 389.0000 1.0000
44.9300 398.0000 1.0000
44.9400 378.0000 1.0000
44.9500 390.0000 1.0000
44.9600 397.0000 1.0000
44.9700 386.0000 1.0000
44.9800 359.0000 1.0000
44.9900 391.0000 1.0000
45.0000 386.0000 1.0000
45.0100 360.0000 1.0000
45.0200 359.0000 1.0000
45.0300 374.0000 1.0000
45.0400 359.0000 1.0000
45.0500 354.0000 1.0000
45.0600 355.0000 1.0000
45.0700 362.0000 1.0000
45.0800 385.0000 1.0000
45.0900 389.0000 1.0000
45.1000 383.0000 1.0000
45.1100 374.0000 1.0000
45.1200 366.0000 1.0000
45.1300 405.0000 1.0000
45.1400 382.0000 1.0000
45.1500 375.0000 1.0000
45.1600 358.0000 1.0000
45.1700 348.0000 1.0000
45.1800 381.0000 1.0000
45.1900 372.0000 1.0000
45.2000 380.0000 1.0000
45.2100 386.0000 1.0000
45.2200 370.0000 1.0000
45.2300 393.0000 1.0000
45.2400 350.0000 1.0000
45.2500 350.0000 1.0000
45.2600 347.0000 1.0000
45.2700 352.0000 1.0000
45.2800 363.0000 1.0000
45.2900 329.0000 1.0000
45.3000 374.0000 1.0000
45.3100 382.0000 1.0000
45.3200 391.0000 1.0000
45.3300 380.0000 1.0000
45.3400 343.0000 1.0000
45.3500 339.0000 1.0000
45.3600 368.0000 1.0000
45.3700 379.0000 1.0000
45.3800 367.0000 1.0000
45.3900 388.0000 1.0000
45.4000 361.0000 1.0000
45.4100 379.0000 1.0000
45.4200 369.0000 1.0000
45.4300 373.0000 1.0000
45.4400 370.0000 1.0000
45.4500 402.0000 1.0000
45.4600 347.0000 1.0000
45.4700 371.0000 1.0000
45.4800 368.0000 1.0000
45.4900 342.0000 1.0000
45.5000 392.0000 1.0000
45.5100 383.0000 1.0000
45.5200 377.0000 1.0000
45.5300 391.0000 1.0000
45.5400 373.0000 1.0000
45.5500 370.0000 1.0000
45.5600 362.0000 1.0000
45.5700 376.0000 1.0000
45.5800 373.0000 1.0000
45.5900 365.0000 1.0000
45.6000 340.0000 1.0000
45.6100 380.0000 1.0000
45.6200 373.0000 1.0000
45.6300 351.0000 1.0000
45.6400 351.0000 1.0000
45.6500 364.0000 1.0000
45.6600 359.0000 1.0000
45.6700 349.0000 1.0000
45.6800 357.0000 1.0000
45.6900 371.0000 1.0000
45.7000 356.0000 1.0000
45.7100 363.0000 1.0000
45.7200 372.0000 1.0000
45.7300 370.0000 1.0000
45.7400 350.0000 1.0000
45.7500 341.0000 1.0000
45.7600 328.0000 1.0000
45.7700 348.0000 1.0000
45.7800 387.0000 1.0000
45.7900 384.0000 1.0000
45.8000 389.0000 1.0000
45.8100 377.0000 1.0000
45.8200 373.0000 1.0000
45.8300 360.0000 1.0000
45.8400 372.0000 1.0000
45.8500 365.0000 1.0000
45.8600 366.0000 1.0000
45.8700 375.0000 1.0000
45.8800 337.0000 1.0000
45.8900 345.0000 1.0000
45.9000 356.0000 1.0000
45.9100 368.0000 1.0000
45.9200 376.0000 1.0000
45.9300 367.0000 1.0000
45.9400 374.0000 1.0000
45.9500 351.0000 1.0000
45.9600 339.0000 1.0000
45.9700 338.0000 1.0000
45.9800 369.0000 1.0000
45.9900 342.0000 1.0000
46.0000 349.0000 1.0000
46.0100 366.0000 1.0000
46.0200 362.0000 1.0000
46.0300 357.0000 1.0000
46.0400 352.0000 1.0000
46.0500 334.0000 1.0000
46.0600 359.0000 1.0000
46.0700 392.0000 1.0000
46.0800 379.0000 1.0000
46.0900 367.0000 1.0000
46.1000 340.0000 1.0000
46.1100 359.0000 1.0000
46.1200 360.0000 1.0000
46.1300 361.0000 1.0000
46.1400 356.0000 1.0000
46.1500 385.0000 1.0000
46.1600 386.0000 1.0000
46.1700 376.0000 1.0000
46.1800 382.0000 1.0000
46.1900 331.0000 1.0000
46.2000 342.0000 1.0000
46.2100 376.0000 1.0000
46.2200 425.0000 1.0000
46.2300 405.0000 1.0000
46.2400 380.0000 1.0000
46.2500 364.0000 1.0000
46.2600 379.0000 1.0000
46.2700 363.0000 1.0000
46.2800 354.0000 1.0000
46.2900 373.0000 1.0000
46.3000 387.0000 1.0000
46.3100 396.0000 1.0000
46.3200 371.0000 1.0000
46.3300 372.0000 1.0000
46.3400 381.0000 1.0000
46.3500 365.0000 1.0000
46.3600 364.0000 1.0000
46.3700 366.0000 1.0000
46.3800 358.0000 1.0000
46.3900 364.0000 1.0000
46.4000 351.0000 1.0000
46.4100 383.0000 1.0000
46.4200 390.0000 1.0000
46.4300 383.0000 1.0000
46.4400 393.0000 1.0000
46.4500 359.0000 1.0000
46.4600 357.0000 1.0000
46.4700 347.0000 1.0000
46.4800 345.0000 1.0000
46.4900 370.0000 1.0000
46.5000 337.0000 1.0000
46.5100 341.0000 1.0000
46.5200 373.0000 1.0000
46.5300 356.0000 1.0000
46.5400 377.0000 1.0000
46.5500 351.0000 1.0000
46.5600 369.0000 1.0000
46.5700 355.0000 1.0000
46.5800 350.0000 1.0000
46.5900 366.0000 1.0000
46.6000 358.0000 1.0000
46.6100 353.0000 1.0000
46.6200 371.0000 1.0000
46.6300 365.0000 1.0000
46.6400 353.0000 1.0000
46.6500 339.0000 1.0000
46.6600 341.0000 1.0000
46.6700 372.0000 1.0000
46.6800 366.0000 1.0000
46.6900 369.0000 1.0000
46.7000 342.0000 1.0000
46.7100 349.0000 1.0000
46.7200 358.0000 1.0000
46.7300 349.0000 1.0000
46.7400 372.0000 1.0000
46.7500 361.0000 1.0000
46.7600 354.0000 1.0000
46.7700 358.0000 1.0000
46.7800 356.0000 1.0000
46.7900 350.0000 1.0000
46.8000 338.0000 1.0000
46.8100 344.0000 1.0000
46.8200 336.0000 1.0000
46.8300 347.0000 1.0000
46.8400 353.0000 1.0000
46.8500 359.0000 1.0000
46.8600 370.0000 1.0000
46.8700 336.0000 1.0000
46.8800 347.0000 1.0000
46.8900 329.0000 1.0000
46.9000 369.0000 1.0000
46.9100 333.0000 1.0000
46.9200 337.0000 1.0000
46.9300 372.0000 1.0000
46.9400 392.0000 1.0000
46.9500 366.0000 1.0000
46.9600 357.0000 1.0000
46.9700 364.0000 1.0000
46.9800 378.0000 1.0000
46.9900 374.0000 1.0000
47.0000 341.0000 1.0000
47.0100 370.0000 1.0000
47.0200 335.0000 1.0000
47.0300 353.0000 1.0000
47.0400 343.0000 1.0000
47.0500 383.0000 1.0000
47.0600 344.0000 1.0000
47.0700 367.0000 1.0000
47.0800 340.0000 1.0000
47.0900 331.0000 1.0000
47.1000 350.0000 1.0000
47.1100 369.0000 1.0000
47.1200 343.0000 1.0000
47.1300 321.0000 1.0000
47.1400 356.0000 1.0000
47.1500 351.0000 1.0000
47.1600 371.0000 1.0000
47.1700 363.0000 1.0000
47.1800 363.0000 1.0000
47.1900 331.0000 1.0000
47.2000 374.0000 1.0000
47.2100 385.0000 1.0000
47.2200 363.0000 1.0000
47.2300 344.0000 1.0000
47.2400 329.0000 1.0000
47.2500 359.0000 1.0000
47.2600 369.0000 1.0000
47.2700 336.0000 1.0000
47.2800 346.0000 1.0000
47.2900 360.0000 1.0000
47.3000 337.0000 1.0000
47.3100 347.0000 1.0000
47.3200 367.0000 1.0000
47.3300 326.0000 1.0000
47.3400 326.0000 1.0000
47.3500 329.0000 1.0000
47.3600 366.0000 1.0000
47.3700 349.0000 1.0000
47.3800 352.0000 1.0000
47.3900 351.0000 1.0000
47.4000 338.0000 1.0000
47.4100 336.0000 1.0000
47.4200 334.0000 1.0000
47.4300 347.0000 1.0000
47.4400 366.0000 1.0000
47.4500 335.0000 1.0000
47.4600 347.0000 1.0000
47.4700 332.0000 1.0000
47.4800 351.0000 1.0000
47.4900 348.0000 1.0000
47.5000 361.0000 1.0000
47.5100 330.0000 1.0000
47.5200 385.0000 1.0000
47.5300 348.0000 1.0000
47.5400 333.0000 1.0000
47.5500 353.0000 1.0000
47.5600 351.0000 1.0000
47.5700 360.0000 1.0000
47.5800 325.0000 1.0000
47.5900 362.0000 1.0000
47.6000 357.0000 1.0000
47.6100 367.0000 1.0000
47.6200 337.0000 1.0000
47.6300 314.0000 1.0000
47.6400 365.0000 1.0000
47.6500 326.0000 1.0000
47.6600 352.0000 1.0000
47.6700 383.0000 1.0000
47.6800 365.0000 1.0000
47.6900 335.0000 1.0000
47.7000 347.0000 1.0000
47.7100 342.0000 1.0000
47.7200 338.0000 1.0000
47.7300 356.0000 1.0000
47.7400 365.0000 1.0000
47.7500 333.0000 1.0000
47.7600 322.0000 1.0000
47.7700 368.0000 1.0000
47.7800 353.0000 1.0000
47.7900 364.0000 1.0000
47.8000 349.0000 1.0000
47.8100 341.0000 1.0000
47.8200 325.0000 1.0000
47.8300 327.0000 1.0000
47.8400 334.0000 1.0000
47.8500 320.0000 1.0000
47.8600 361.0000 1.0000
47.8700 365.0000 1.0000
47.8800 352.0000 1.0000
47.8900 388.0000 1.0000
47.9000 350.0000 1.0000
47.9100 351.0000 1.0000
47.9200 303.0000 1.0000
47.9300 347.0000 1.0000
47.9400 354.0000 1.0000
47.9500 358.0000 1.0000
47.9600 360.0000 1.0000
47.9700 363.0000 1.0000
47.9800 351.0000 1.0000
47.9900 346.0000 1.0000
48.0000 357.0000 1.0000
48.0100 361.0000 1.0000
48.0200 355.0000 1.0000
48.0300 354.0000 1.0000
48.0400 352.0000 1.0000
48.0500 343.0000 1.0000
48.0600 323.0000 1.0000
48.0700 361.0000 1.0000
48.0800 341.0000 1.0000
48.0900 322.0000 1.0000
48.1000 344.0000 1.0000
48.1100 332.0000 1.0000
48.1200 345.0000 1.0000
48.1300 333.0000 1.0000
48.1400 339.0000 1.0000
48.1500 325.0000 1.0000
48.1600 319.0000 1.0000
48.1700 353.0000 1.0000
48.1800 364.0000 1.0000
48.1900 353.0000 1.0000
48.2000 378.0000 1.0000
48.2100 344.0000 1.0000
48.2200 334.0000 1.0000
48.2300 344.0000 1.0000
48.2400 322.0000 1.0000
48.2500 369.0000 1.0000
48.2600 366.0000 1.0000
48.2700 381.0000 1.0000
48.2800 333.0000 1.0000
48.2900 359.0000 1.0000
48.3000 374.0000 1.0000
48.3100 341.0000 1.0000
48.3200 327.0000 1.0000
48.3300 341.0000 1.0000
48.3400 348.0000 1.0000
48.3500 324.0000 1.0000
48.3600 350.0000 1.0000
48.3700 359.0000 1.0000
48.3800 335.0000 1.0000
48.3900 342.0000 1.0000
48.4000 356.0000 1.0000
48.4100 324.0000 1.0000
48.4200 364.0000 1.0000
48.4300 303.0000 1.0000
48.4400 333.0000 1.0000
48.4500 321.0000 1.0000
48.4600 339.0000 1.0000
48.4700 350.0000 1.0000
48.4800 381.0000 1.0000
48.4900 343.0000 1.0000
48.5000 345.0000 1.0000
48.5100 317.0000 1.0000
48.5200 301.0000 1.0000
48.5300 331.0000 1.0000
48.5400 330.0000 1.0000
48.5500 328.0000 1.0000
48.5600 353.0000 1.0000
48.5700 332.0000 1.0000
48.5800 304.0000 1.0000
48.5900 356.0000 1.0000
48.6000 325.0000 1.0000
48.6100 349.0000 1.0000
48.6200 348.0000 1.0000
48.6300 351.0000 1.0000
48.6400 339.0000 1.0000
48.6500 352.0000 1.0000
48.6600 365.0000 1.0000
48.6700 340.0000 1.0000
48.6800 329.0000 1.0000
48.6900 334.0000 1.0000
48.7000 354.0000 1.0000
48.7100 340.0000 1.0000
48.7200 343.0000 1.0000
48.7300 395.0000 1.0000
48.7400 338.0000 1.0000
48.7500 318.0000 1.0000
48.7600 325.0000 1.0000
48.7700 339.0000 1.0000
48.7800 325.0000 1.0000
48.7900 331.0000 1.0000
48.8000 339.0000 1.0000
48.8100 378.0000 1.0000
48.8200 352.0000 1.0000
48.8300 333.0000 1.0000
48.8400 333.0000 1.0000
48.8500 347.0000 1.0000
48.8600 345.0000 1.0000
48.8700 328.0000 1.0000
48.8800 312.0000 1.0000
48.8900 349.0000 1.0000
48.9000 333.0000 1.0000
48.9100 325.0000 1.0000
48.9200 309.0000 1.0000
48.9300 355.0000 1.0000
48.9400 321.0000 1.0000
48.9500 368.0000 1.0000
48.9600 357.0000 1.0000
48.9700 325.0000 1.0000
48.9800 314.0000 1.0000
48.9900 344.0000 1.0000
49.0000 355.0000 1.0000
49.0100 349.0000 1.0000
49.0200 356.0000 1.0000
49.0300 339.0000 1.0000
49.0400 332.0000 1.0000
49.0500 349.0000 1.0000
49.0600 325.0000 1.0000
49.0700 344.0000 1.0000
49.0800 356.0000 1.0000
49.0900 335.0000 1.0000
49.1000 322.0000 1.0000
49.1100 328.0000 1.0000
49.1200 347.0000 1.0000
49.1300 363.0000 1.0000
49.1400 349.0000 1.0000
49.1500 373.0000 1.0000
49.1600 370.0000 1.0000
49.1700 377.0000 1.0000
49.1800 344.0000 1.0000
49.1900 372.0000 1.0000
49.2000 383.0000 1.0000
49.2100 374.0000 1.0000
49.2200 355.0000 1.0000
49.2300 402.0000 1.0000
49.2400 390.0000 1.0000
49.2500 362.0000 1.0000
49.2600 357.0000 1.0000
49.2700 327.0000 1.0000
49.2800 363.0000 1.0000
49.2900 347.0000 1.0000
49.3000 361.0000 1.0000
49.3100 376.0000 1.0000
49.3200 353.0000 1.0000
49.3300 363.0000 1.0000
49.3400 394.0000 1.0000
49.3500 381.0000 1.0000
49.3600 349.0000 1.0000
49.3700 385.0000 1.0000
49.3800 373.0000 1.0000
49.3900 385.0000 1.0000
49.4000 413.0000 1.0000
49.4100 418.0000 1.0000
49.4200 381.0000 1.0000
49.4300 397.0000 1.0000
49.4400 394.0000 1.0000
49.4500 379.0000 1.0000
49.4600 393.0000 1.0000
49.4700 393.0000 1.0000
49.4800 375.0000 1.0000
49.4900 374.0000 1.0000
49.5000 366.0000 1.0000
49.5100 399.0000 1.0000
49.5200 365.0000 1.0000
49.5300 376.0000 1.0000
49.5400 404.0000 1.0000
49.5500 407.0000 1.0000
49.5600 367.0000 1.0000
49.5700 360.0000 1.0000
49.5800 391.0000 1.0000
49.5900 393.0000 1.0000
49.6000 368.0000 1.0000
49.6100 370.0000 1.0000
49.6200 356.0000 1.0000
49.6300 369.0000 1.0000
49.6400 380.0000 1.0000
49.6500 366.0000 1.0000
49.6600 375.0000 1.0000
49.6700 353.0000 1.0000
49.6800 356.0000 1.0000
49.6900 354.0000 1.0000
49.7000 395.0000 1.0000
49.7100 398.0000 1.0000
49.7200 356.0000 1.0000
49.7300 359.0000 1.0000
49.7400 364.0000 1.0000
49.7500 360.0000 1.0000
49.7600 346.0000 1.0000
49.7700 349.0000 1.0000
49.7800 372.0000 1.0000
49.7900 366.0000 1.0000
49.8000 365.0000 1.0000
49.8100 336.0000 1.0000
49.8200 340.0000 1.0000
49.8300 371.0000 1.0000
49.8400 357.0000 1.0000
49.8500 357.0000 1.0000
49.8600 338.0000 1.0000
49.8700 344.0000 1.0000
49.8800 355.0000 1.0000
49.8900 342.0000 1.0000
49.9000 331.0000 1.0000
49.9100 348.0000 1.0000
49.9200 346.0000 1.0000
49.9300 325.0000 1.0000
49.9400 371.0000 1.0000
49.9500 380.0000 1.0000
49.9600 372.0000 1.0000
49.9700 327.0000 1.0000
49.9800 341.0000 1.0000
49.9900 353.0000 1.0000
50.0000 382.0000 1.0000
50.0100 367.0000 1.0000
50.0200 356.0000 1.0000
50.0300 353.0000 1.0000
50.0400 355.0000 1.0000
50.0500 343.0000 1.0000
50.0600 348.0000 1.0000
50.0700 360.0000 1.0000
50.0800 367.0000 1.0000
50.0900 328.0000 1.0000
50.1000 319.0000 1.0000
50.1100 349.0000 1.0000
50.1200 351.0000 1.0000
50.1300 358.0000 1.0000
50.1400 361.0000 1.0000
50.1500 355.0000 1.0000
50.1600 344.0000 1.0000
50.1700 339.0000 1.0000
50.1800 347.0000 1.0000
50.1900 348.0000 1.0000
50.2000 348.0000 1.0000
50.2100 352.0000 1.0000
50.2200 347.0000 1.0000
50.2300 326.0000 1.0000
50.2400 325.0000 1.0000
50.2500 302.0000 1.0000
50.2600 327.0000 1.0000
50.2700 345.0000 1.0000
50.2800 346.0000 1.0000
50.2900 344.0000 1.0000
50.3000 354.0000 1.0000
50.3100 345.0000 1.0000
50.3200 348.0000 1.0000
50.3300 368.0000 1.0000
50.3400 357.0000 1.0000
50.3500 340.0000 1.0000
50.3600 365.0000 1.0000
50.3700 354.0000 1.0000
50.3800 372.0000 1.0000
50.3900 365.0000 1.0000
50.4000 375.0000 1.0000
50.4100 333.0000 1.0000
50.4200 342.0000 1.0000
50.4300 318.0000 1.0000
50.4400 344.0000 1.0000
50.4500 343.0000 1.0000
50.4600 353.0000 1.0000
50.4700 335.0000 1.0000
50.4800 337.0000 1.0000
50.4900 339.0000 1.0000
50.5000 352.0000 1.0000
50.5100 336.0000 1.0000
50.5200 350.0000 1.0000
50.5300 333.0000 1.0000
50.5400 345.0000 1.0000
50.5500 359.0000 1.0000
50.5600 342.0000 1.0000
50.5700 346.0000 1.0000
50.5800 366.0000 1.0000
50.5900 347.0000 1.0000
50.6000 344.0000 1.0000
50.6100 358.0000 1.0000
50.6200 357.0000 1.0000
50.6300 312.0000 1.0000
50.6400 339.0000 1.0000
50.6500 328.0000 1.0000
50.6600 352.0000 1.0000
50.6700 360.0000 1.0000
50.6800 370.0000 1.0000
50.6900 339.0000 1.0000
50.7000 341.0000 1.0000
50.7100 337.0000 1.0000
50.7200 357.0000 1.0000
50.7300 354.0000 1.0000
50.7400 328.0000 1.0000
50.7500 327.0000 1.0000
50.7600 360.0000 1.0000
50.7700 382.0000 1.0000
50.7800 352.0000 1.0000
50.7900 366.0000 1.0000
50.8000 346.0000 1.0000
50.8100 370.0000 1.0000
50.8200 342.0000 1.0000
50.8300 357.0000 1.0000
50.8400 368.0000 1.0000
50.8500 366.0000 1.0000
50.8600 338.0000 1.0000
50.8700 336.0000 1.0000
50.8800 356.0000 1.0000
50.8900 355.0000 1.0000
50.9000 374.0000 1.0000
50.9100 380.0000 1.0000
50.9200 361.0000 1.0000
50.9300 363.0000 1.0000
50.9400 383.0000 1.0000
50.9500 406.0000 1.0000
50.9600 377.0000 1.0000
50.9700 393.0000 1.0000
50.9800 377.0000 1.0000
50.9900 382.0000 1.0000
51.0000 391.0000 1.0000
51.0100 386.0000 1.0000
51.0200 386.0000 1.0000
51.0300 387.0000 1.0000
51.0400 374.0000 1.0000
51.0500 380.0000 1.0000
51.0600 409.0000 1.0000
51.0700 386.0000 1.0000
51.0800 421.0000 1.0000
51.0900 420.0000 1.0000
51.1000 380.0000 1.0000
51.1100 436.0000 1.0000
51.1200 430.0000 1.0000
51.1300 479.0000 1.0000
51.1400 420.0000 1.0000
51.1500 478.0000 1.0000
51.1600 484.0000 1.0000
51.1700 524.0000 1.0000
51.1800 515.0000 1.0000
51.1900 541.0000 1.0000
51.2000 538.0000 1.0000
51.2100 575.0000 1.0000
51.2200 545.0000 1.0000
51.2300 632.0000 1.0000
51.2400 588.0000 1.0000
51.2500 663.0000 1.0000
51.2600 665.0000 1.0000
51.2700 722.0000 1.0000
51.2800 725.0000 1.0000
51.2900 797.0000 1.0000
51.3000 825.0000 1.0000
51.3100 822.0000 1.0000
51.3200 893.0000 1.0000
51.3300 996.0000 1.0000
51.3400 1066.0000 1.0000
51.3500 1139.0000 1.0000
51.3600 1210.0000 1.0000
51.3700 1275.0000 1.0000
51.3800 1458.0000 1.0000
51.3900 1579.0000 1.0000
51.4000 1662.0000 1.0000
51.4100 1746.0000 1.0000
51.4200 1883.0000 1.0000
51.4300 2004.0000 1.0000
51.4400 2076.0000 1.0000
51.4500 2249.0000 1.0000
51.4600 2306.0000 1.0000
51.4700 2305.0000 1.0000
51.4800 2229.0000 1.0000
51.4900 2232.0000 1.0000
51.5000 2163.0000 1.0000
51.5100 2100.0000 1.0000
51.5200 2057.0000 1.0000
51.5300 1915.0000 1.0000
51.5400 1862.0000 1.0000
51.5500 1839.0000 1.0000
51.5600 1789.0000 1.0000
51.5700 1749.0000 1.0000
51.5800 1718.0000 1.0000
51.5900 1652.0000 1.0000
51.6000 1646.0000 1.0000
51.6100 1571.0000 1.0000
51.6200 1484.0000 1.0000
51.6300 1416.0000 1.0000
51.6400 1329.0000 1.0000
51.6500 1351.0000 1.0000
51.6600 1164.0000 1.0000
51.6700 1099.0000 1.0000
51.6800 1063.0000 1.0000
51.6900 1003.0000 1.0000
51.7000 883.0000 1.0000
51.7100 849.0000 1.0000
51.7200 791.0000 1.0000
51.7300 698.0000 1.0000
51.7400 721.0000 1.0000
51.7500 689.0000 1.0000
51.7600 659.0000 1.0000
51.7700 607.0000 1.0000
51.7800 579.0000 1.0000
51.7900 591.0000 1.0000
51.8000 570.0000 1.0000
51.8100 561.0000 1.0000
51.8200 540.0000 1.0000
51.8300 514.0000 1.0000
51.8400 502.0000 1.0000
51.8500 494.0000 1.0000
51.8600 475.0000 1.0000
51.8700 466.0000 1.0000
51.8800 479.0000 1.0000
51.8900 456.0000 1.0000
51.9000 453.0000 1.0000
51.9100 434.0000 1.0000
51.9200 458.0000 1.0000
51.9300 426.0000 1.0000
51.9400 428.0000 1.0000
51.9500 406.0000 1.0000
51.9600 374.0000 1.0000
51.9700 394.0000 1.0000
51.9800 408.0000 1.0000
51.9900 431.0000 1.0000
52.0000 422.0000 1.0000
52.0100 380.0000 1.0000
52.0200 410.0000 1.0000
52.0300 380.0000 1.0000
52.0400 356.0000 1.0000
52.0500 368.0000 1.0000
52.0600 393.0000 1.0000
52.0700 393.0000 1.0000
52.0800 369.0000 1.0000
52.0900 355.0000 1.0000
52.1000 350.0000 1.0000
52.1100 378.0000 1.0000
52.1200 398.0000 1.0000
52.1300 359.0000 1.0000
52.1400 370.0000 1.0000
52.1500 396.0000 1.0000
52.1600 391.0000 1.0000
52.1700 377.0000 1.0000
52.1800 381.0000 1.0000
52.1900 347.0000 1.0000
52.2000 360.0000 1.0000
52.2100 359.0000 1.0000
52.2200 367.0000 1.0000
52.2300 364.0000 1.0000
52.2400 368.0000 1.0000
52.2500 384.0000 1.0000
52.2600 337.0000 1.0000
52.2700 356.0000 1.0000
52.2800 359.0000 1.0000
52.2900 312.0000 1.0000
52.3000 351.0000 1.0000
52.3100 364.0000 1.0000
52.3200 346.0000 1.0000
52.3300 338.0000 1.0000
52.3400 331.0000 1.0000
52.3500 312.0000 1.0000
52.3600 339.0000 1.0000
52.3700 371.0000 1.0000
52.3800 363.0000 1.0000
52.3900 358.0000 1.0000
52.4000 327.0000 1.0000
52.4100 333.0000 1.0000
52.4200 342.0000 1.0000
52.4300 337.0000 1.0000
52.4400 354.0000 1.0000
52.4500 341.0000 1.0000
52.4600 363.0000 1.0000
52.4700 352.0000 1.0000
52.4800 337.0000 1.0000
52.4900 356.0000 1.0000
52.5000 354.0000 1.0000
52.5100 357.0000 1.0000
52.5200 369.0000 1.0000
52.5300 322.0000 1.0000
52.5400 304.0000 1.0000
52.5500 330.0000 1.0000
52.5600 330.0000 1.0000
52.5700 345.0000 1.0000
52.5800 354.0000 1.0000
52.5900 341.0000 1.0000
52.6000 362.0000 1.0000
52.6100 337.0000 1.0000
52.6200 373.0000 1.0000
52.6300 338.0000 1.0000
52.6400 361.0000 1.0000
52.6500 347.0000 1.0000
52.6600 328.0000 1.0000
52.6700 327.0000 1.0000
52.6800 348.0000 1.0000
52.6900 342.0000 1.0000
52.7000 349.0000 1.0000
52.7100 331.0000 1.0000
52.7200 359.0000 1.0000
52.7300 339.0000 1.0000
52.7400 332.0000 1.0000
52.7500 337.0000 1.0000
52.7600 330.0000 1.0000
52.7700 342.0000 1.0000
52.7800 330.0000 1.0000
52.7900 347.0000 1.0000
52.8000 341.0000 1.0000
52.8100 340.0000 1.0000
52.8200 336.0000 1.0000
52.8300 364.0000 1.0000
52.8400 326.0000 1.0000
52.8500 327.0000 1.0000
52.8600 341.0000 1.0000
52.8700 343.0000 1.0000
52.8800 320.0000 1.0000
52.8900 358.0000 1.0000
52.9000 349.0000 1.0000
52.9100 307.0000 1.0000
52.9200 334.0000 1.0000
52.9300 345.0000 1.0000
52.9400 346.0000 1.0000
52.9500 346.0000 1.0000
52.9600 314.0000 1.0000
52.9700 355.0000 1.0000
52.9800 308.0000 1.0000
52.9900 327.0000 1.0000
53.0000 383.0000 1.0000
53.0100 324.0000 1.0000
53.0200 304.0000 1.0000
53.0300 343.0000 1.0000
53.0400 313.0000 1.0000
53.0500 340.0000 1.0000
53.0600 347.0000 1.0000
53.0700 309.0000 1.0000
53.0800 332.0000 1.0000
53.0900 305.0000 1.0000
53.1000 365.0000 1.0000
53.1100 356.0000 1.0000
53.1200 349.0000 1.0000
53.1300 323.0000 1.0000
53.1400 319.0000 1.0000
53.1500 339.0000 1.0000
53.1600 311.0000 1.0000
53.1700 331.0000 1.0000
53.1800 323.0000 1.0000
53.1900 317.0000 1.0000
53.2000 338.0000 1.0000
53.2100 329.0000 1.0000
53.2200 318.0000 1.0000
53.2300 323.0000 1.0000
53.2400 352.0000 1.0000
53.2500 336.0000 1.0000
53.2600 326.0000 1.0000
53.2700 332.0000 1.0000
53.2800 362.0000 1.0000
53.2900 340.0000 1.0000
53.3000 339.0000 1.0000
53.3100 339.0000 1.0000
53.3200 308.0000 1.0000
53.3300 338.0000 1.0000
53.3400 335.0000 1.0000
53.3500 358.0000 1.0000
53.3600 332.0000 1.0000
53.3700 322.0000 1.0000
53.3800 349.0000 1.0000
53.3900 323.0000 1.0000
53.4000 346.0000 1.0000
53.4100 328.0000 1.0000
53.4200 331.0000 1.0000
53.4300 353.0000 1.0000
53.4400 331.0000 1.0000
53.4500 365.0000 1.0000
53.4600 322.0000 1.0000
53.4700 324.0000 1.0000
53.4800 330.0000 1.0000
53.4900 296.0000 1.0000
53.5000 324.0000 1.0000
53.5100 329.0000 1.0000
53.5200 339.0000 1.0000
53.5300 322.0000 1.0000
53.5400 329.0000 1.0000
53.5500 334.0000 1.0000
53.5600 326.0000 1.0000
53.5700 322.0000 1.0000
53.5800 361.0000 1.0000
53.5900 349.0000 1.0000
53.6000 319.0000 1.0000
53.6100 365.0000 1.0000
53.6200 339.0000 1.0000
53.6300 335.0000 1.0000
53.6400 330.0000 1.0000
53.6500 348.0000 1.0000
53.6600 340.0000 1.0000
53.6700 309.0000 1.0000
53.6800 342.0000 1.0000
53.6900 326.0000 1.0000
53.7000 339.0000 1.0000
53.7100 290.0000 1.0000
53.7200 327.0000 1.0000
53.7300 317.0000 1.0000
53.7400 331.0000 1.0000
53.7500 322.0000 1.0000
53.7600 334.0000 1.0000
53.7700 348.0000 1.0000
53.7800 348.0000 1.0000
53.7900 371.0000 1.0000
53.8000 311.0000 1.0000
53.8100 348.0000 1.0000
53.8200 323.0000 1.0000
53.8300 346.0000 1.0000
53.8400 339.0000 1.0000
53.8500 340.0000 1.0000
53.8600 332.0000 1.0000
53.8700 343.0000 1.0000
53.8800 393.0000 1.0000
53.8900 353.0000 1.0000
53.9000 379.0000 1.0000
53.9100 351.0000 1.0000
53.9200 361.0000 1.0000
53.9300 382.0000 1.0000
53.9400 353.0000 1.0000
53.9500 377.0000 1.0000
53.9600 371.0000 1.0000
53.9700 382.0000 1.0000
53.9800 401.0000 1.0000
53.9900 391.0000 1.0000
54.0000 386.0000 1.0000
54.0100 374.0000 1.0000
54.0200 390.0000 1.0000
54.0300 411.0000 1.0000
54.0400 378.0000 1.0000
54.0500 366.0000 1.0000
54.0600 383.0000 1.0000
54.0700 388.0000 1.0000
54.0800 383.0000 1.0000
54.0900 358.0000 1.0000
54.1000 343.0000 1.0000
54.1100 374.0000 1.0000
54.1200 378.0000 1.0000
54.1300 384.0000 1.0000
54.1400 405.0000 1.0000
54.1500 382.0000 1.0000
54.1600 386.0000 1.0000
54.1700 383.0000 1.0000
54.1800 376.0000 1.0000
54.1900 401.0000 1.0000
54.2000 387.0000 1.0000
54.2100 381.0000 1.0000
54.2200 386.0000 1.0000
54.2300 356.0000 1.0000
54.2400 355.0000 1.0000
54.2500 371.0000 1.0000
54.2600 363.0000 1.0000
54.2700 376.0000 1.0000
54.2800 395.0000 1.0000
54.2900 367.0000 1.0000
54.3000 367.0000 1.0000
54.3100 400.0000 1.0000
54.3200 413.0000 1.0000
54.3300 380.0000 1.0000
54.3400 409.0000 1.0000
54.3500 392.0000 1.0000
54.3600 394.0000 1.0000
54.3700 403.0000 1.0000
54.3800 437.0000 1.0000
54.3900 447.0000 1.0000
54.4000 452.0000 1.0000
54.4100 453.0000 1.0000
54.4200 449.0000 1.0000
54.4300 446.0000 1.0000
54.4400 492.0000 1.0000
54.4500 481.0000 1.0000
54.4600 474.0000 1.0000
54.4700 453.0000 1.0000
54.4800 490.0000 1.0000
54.4900 523.0000 1.0000
54.5000 487.0000 1.0000
54.5100 485.0000 1.0000
54.5200 458.0000 1.0000
54.5300 497.0000 1.0000
54.5400 511.0000 1.0000
54.5500 491.0000 1.0000
54.5600 482.0000 1.0000
54.5700 446.0000 1.0000
54.5800 497.0000 1.0000
54.5900 476.0000 1.0000
54.6000 431.0000 1.0000
54.6100 480.0000 1.0000
54.6200 468.0000 1.0000
54.6300 448.0000 1.0000
54.6400 489.0000 1.0000
54.6500 472.0000 1.0000
54.6600 423.0000 1.0000
54.6700 407.0000 1.0000
54.6800 428.0000 1.0000
54.6900 427.0000 1.0000
54.7000 420.0000 1.0000
54.7100 396.0000 1.0000
54.7200 387.0000 1.0000
54.7300 409.0000 1.0000
54.7400 400.0000 1.0000
54.7500 405.0000 1.0000
54.7600 386.0000 1.0000
54.7700 367.0000 1.0000
54.7800 385.0000 1.0000
54.7900 385.0000 1.0000
54.8000 355.0000 1.0000
54.8100 365.0000 1.0000
54.8200 366.0000 1.0000
54.8300 360.0000 1.0000
54.8400 348.0000 1.0000
54.8500 358.0000 1.0000
54.8600 344.0000 1.0000
54.8700 357.0000 1.0000
54.8800 375.0000 1.0000
54.8900 365.0000 1.0000
54.9000 326.0000 1.0000
54.9100 363.0000 1.0000
54.9200 333.0000 1.0000
54.9300 337.0000 1.0000
54.9400 338.0000 1.0000
54.9500 322.0000 1.0000
54.9600 370.0000 1.0000
54.9700 345.0000 1.0000
54.9800 342.0000 1.0000
54.9900 335.0000 1.0000
55.0000 328.0000 1.0000
55.0100 331.0000 1.0000
55.0200 323.0000 1.0000
55.0300 325.0000 1.0000
55.0400 318.0000 1.0000
55.0500 304.0000 1.0000
55.0600 311.0000 1.0000
55.0700 318.0000 1.0000
55.0800 339.0000 1.0000
55.0900 328.0000 1.0000
55.1000 322.0000 1.0000
55.1100 327.0000 1.0000
55.1200 321.0000 1.0000
55.1300 336.0000 1.0000
55.1400 320.0000 1.0000
55.1500 320.0000 1.0000
55.1600 341.0000 1.0000
55.1700 345.0000 1.0000
55.1800 321.0000 1.0000
55.1900 315.0000 1.0000
55.2000 292.0000 1.0000
55.2100 305.0000 1.0000
55.2200 343.0000 1.0000
55.2300 282.0000 1.0000
55.2400 302.0000 1.0000
55.2500 336.0000 1.0000
55.2600 312.0000 1.0000
55.2700 324.0000 1.0000
55.2800 341.0000 1.0000
55.2900 350.0000 1.0000
55.3000 296.0000 1.0000
55.3100 300.0000 1.0000
55.3200 309.0000 1.0000
55.3300 303.0000 1.0000
55.3400 325.0000 1.0000
55.3500 334.0000 1.0000
55.3600 331.0000 1.0000
55.3700 332.0000 1.0000
55.3800 347.0000 1.0000
55.3900 279.0000 1.0000
55.4000 334.0000 1.0000
55.4100 331.0000 1.0000
55.4200 327.0000 1.0000
55.4300 306.0000 1.0000
55.4400 308.0000 1.0000
55.4500 340.0000 1.0000
55.4600 315.0000 1.0000
55.4700 353.0000 1.0000
55.4800 323.0000 1.0000
55.4900 304.0000 1.0000
55.5000 306.0000 1.0000
55.5100 334.0000 1.0000
55.5200 310.0000 1.0000
55.5300 329.0000 1.0000
55.5400 350.0000 1.0000
55.5500 328.0000 1.0000
55.5600 296.0000 1.0000
55.5700 340.0000 1.0000
55.5800 297.0000 1.0000
55.5900 326.0000 1.0000
55.6000 337.0000 1.0000
55.6100 297.0000 1.0000
55.6200 317.0000 1.0000
55.6300 305.0000 1.0000
55.6400 315.0000 1.0000
55.6500 323.0000 1.0000
55.6600 326.0000 1.0000
55.6700 306.0000 1.0000
55.6800 329.0000 1.0000
55.6900 321.0000 1.0000
55.7000 328.0000 1.0000
55.7100 327.0000 1.0000
55.7200 311.0000 1.0000
55.7300 314.0000 1.0000
55.7400 348.0000 1.0000
55.7500 320.0000 1.0000
55.7600 326.0000 1.0000
55.7700 317.0000 1.0000
55.7800 300.0000 1.0000
55.7900 325.0000 1.0000
55.8000 317.0000 1.0000
55.8100 298.0000 1.0000
55.8200 341.0000 1.0000
55.8300 357.0000 1.0000
55.8400 316.0000 1.0000
55.8500 349.0000 1.0000
55.8600 310.0000 1.0000
55.8700 301.0000 1.0000
55.8800 311.0000 1.0000
55.8900 329.0000 1.0000
55.9000 316.0000 1.0000
55.9100 322.0000 1.0000
55.9200 321.0000 1.0000
55.9300 319.0000 1.0000
55.9400 302.0000 1.0000
55.9500 308.0000 1.0000
55.9600 300.0000 1.0000
55.9700 274.0000 1.0000
55.9800 293.0000 1.0000
55.9900 328.0000 1.0000
56.0000 348.0000 1.0000
56.0100 324.0000 1.0000
56.0200 319.0000 1.0000
56.0300 302.0000 1.0000
56.0400 327.0000 1.0000
56.0500 316.0000 1.0000
56.0600 313.0000 1.0000
56.0700 315.0000 1.0000
56.0800 334.0000 1.0000
56.0900 317.0000 1.0000
56.1000 315.0000 1.0000
56.1100 326.0000 1.0000
56.1200 316.0000 1.0000
56.1300 324.0000 1.0000
56.1400 289.0000 1.0000
56.1500 325.0000 1.0000
56.1600 321.0000 1.0000
56.1700 333.0000 1.0000
56.1800 324.0000 1.0000
56.1900 302.0000 1.0000
56.2000 302.0000 1.0000
56.2100 305.0000 1.0000
56.2200 329.0000 1.0000
56.2300 324.0000 1.0000
56.2400 323.0000 1.0000
56.2500 340.0000 1.0000
56.2600 341.0000 1.0000
56.2700 323.0000 1.0000
56.2800 306.0000 1.0000
56.2900 323.0000 1.0000
56.3000 323.0000 1.0000
56.3100 312.0000 1.0000
56.3200 334.0000 1.0000
56.3300 306.0000 1.0000
56.3400 274.0000 1.0000
56.3500 326.0000 1.0000
56.3600 330.0000 1.0000
56.3700 323.0000 1.0000
56.3800 302.0000 1.0000
56.3900 330.0000 1.0000
56.4000 298.0000 1.0000
56.4100 319.0000 1.0000
56.4200 322.0000 1.0000
56.4300 314.0000 1.0000
56.4400 324.0000 1.0000
56.4500 324.0000 1.0000
56.4600 292.0000 1.0000
56.4700 311.0000 1.0000
56.4800 306.0000 1.0000
56.4900 316.0000 1.0000
56.5000 313.0000 1.0000
56.5100 311.0000 1.0000
56.5200 298.0000 1.0000
56.5300 341.0000 1.0000
56.5400 314.0000 1.0000
56.5500 313.0000 1.0000
56.5600 307.0000 1.0000
56.5700 305.0000 1.0000
56.5800 298.0000 1.0000
56.5900 328.0000 1.0000
56.6000 314.0000 1.0000
56.6100 303.0000 1.0000
56.6200 331.0000 1.0000
56.6300 289.0000 1.0000
56.6400 324.0000 1.0000
56.6500 294.0000 1.0000
56.6600 330.0000 1.0000
56.6700 345.0000 1.0000
56.6800 346.0000 1.0000
56.6900 285.0000 1.0000
56.7000 315.0000 1.0000
56.7100 315.0000 1.0000
56.7200 278.0000 1.0000
56.7300 300.0000 1.0000
56.7400 318.0000 1.0000
56.7500 305.0000 1.0000
56.7600 325.0000 1.0000
56.7700 348.0000 1.0000
56.7800 318.0000 1.0000
56.7900 311.0000 1.0000
56.8000 303.0000 1.0000
56.8100 314.0000 1.0000
56.8200 315.0000 1.0000
56.8300 333.0000 1.0000
56.8400 297.0000 1.0000
56.8500 293.0000 1.0000
56.8600 307.0000 1.0000
56.8700 301.0000 1.0000
56.8800 292.0000 1.0000
56.8900 327.0000 1.0000
56.9000 342.0000 1.0000
56.9100 304.0000 1.0000
56.9200 309.0000 1.0000
56.9300 306.0000 1.0000
56.9400 305.0000 1.0000
56.9500 314.0000 1.0000
56.9600 309.0000 1.0000
56.9700 329.0000 1.0000
56.9800 314.0000 1.0000
56.9900 297.0000 1.0000
57.0000 281.0000 1.0000
57.0100 296.0000 1.0000
57.0200 307.0000 1.0000
57.0300 309.0000 1.0000
57.0400 303.0000 1.0000
57.0500 309.0000 1.0000
57.0600 294.0000 1.0000
57.0700 364.0000 1.0000
57.0800 303.0000 1.0000
57.0900 337.0000 1.0000
57.1000 330.0000 1.0000
57.1100 309.0000 1.0000
57.1200 311.0000 1.0000
57.1300 316.0000 1.0000
57.1400 298.0000 1.0000
57.1500 308.0000 1.0000
57.1600 319.0000 1.0000
57.1700 327.0000 1.0000
57.1800 311.0000 1.0000
57.1900 318.0000 1.0000
57.2000 316.0000 1.0000
57.2100 309.0000 1.0000
57.2200 306.0000 1.0000
57.2300 305.0000 1.0000
57.2400 307.0000 1.0000
57.2500 317.0000 1.0000
57.2600 335.0000 1.0000
57.2700 321.0000 1.0000
57.2800 331.0000 1.0000
57.2900 312.0000 1.0000
57.3000 319.0000 1.0000
57.3100 324.0000 1.0000
57.3200 319.0000 1.0000
57.3300 321.0000 1.0000
57.3400 336.0000 1.0000
57.3500 318.0000 1.0000
57.3600 319.0000 1.0000
57.3700 302.0000 1.0000
57.3800 338.0000 1.0000
57.3900 347.0000 1.0000
57.4000 331.0000 1.0000
57.4100 339.0000 1.0000
57.4200 305.0000 1.0000
57.4300 309.0000 1.0000
57.4400 349.0000 1.0000
57.4500 315.0000 1.0000
57.4600 370.0000 1.0000
57.4700 330.0000 1.0000
57.4800 304.0000 1.0000
57.4900 321.0000 1.0000
57.5000 320.0000 1.0000
57.5100 316.0000 1.0000
57.5200 351.0000 1.0000
57.5300 352.0000 1.0000
57.5400 338.0000 1.0000
57.5500 330.0000 1.0000
57.5600 312.0000 1.0000
57.5700 309.0000 1.0000
57.5800 297.0000 1.0000
57.5900 335.0000 1.0000
57.6000 342.0000 1.0000
57.6100 328.0000 1.0000
57.6200 342.0000 1.0000
57.6300 316.0000 1.0000
57.6400 347.0000 1.0000
57.6500 341.0000 1.0000
57.6600 307.0000 1.0000
57.6700 306.0000 1.0000
57.6800 346.0000 1.0000
57.6900 312.0000 1.0000
57.7000 324.0000 1.0000
57.7100 315.0000 1.0000
57.7200 320.0000 1.0000
57.7300 338.0000 1.0000
57.7400 306.0000 1.0000
57.7500 309.0000 1.0000
57.7600 329.0000 1.0000
57.7700 319.0000 1.0000
57.7800 325.0000 1.0000
57.7900 308.0000 1.0000
57.8000 327.0000 1.0000
57.8100 313.0000 1.0000
57.8200 291.0000 1.0000
57.8300 313.0000 1.0000
57.8400 311.0000 1.0000
57.8500 324.0000 1.0000
57.8600 307.0000 1.0000
57.8700 300.0000 1.0000
57.8800 290.0000 1.0000
57.8900 305.0000 1.0000
57.9000 322.0000 1.0000
57.9100 332.0000 1.0000
57.9200 338.0000 1.0000
57.9300 333.0000 1.0000
57.9400 326.0000 1.0000
57.9500 313.0000 1.0000
57.9600 334.0000 1.0000
57.9700 294.0000 1.0000
57.9800 294.0000 1.0000
57.9900 304.0000 1.0000
58.0000 319.0000 1.0000
58.0100 336.0000 1.0000
58.0200 311.0000 1.0000
58.0300 313.0000 1.0000
58.0400 311.0000 1.0000
58.0500 300.0000 1.0000
58.0600 303.0000 1.0000
58.0700 323.0000 1.0000
58.0800 339.0000 1.0000
58.0900 320.0000 1.0000
58.1000 303.0000 1.0000
58.1100 317.0000 1.0000
58.1200 295.0000 1.0000
58.1300 281.0000 1.0000
58.1400 320.0000 1.0000
58.1500 319.0000 1.0000
58.1600 333.0000 1.0000
58.1700 309.0000 1.0000
58.1800 283.0000 1.0000
58.1900 305.0000 1.0000
58.2000 294.0000 1.0000
58.2100 302.0000 1.0000
58.2200 322.0000 1.0000
58.2300 329.0000 1.0000
58.2400 347.0000 1.0000
58.2500 305.0000 1.0000
58.2600 332.0000 1.0000
58.2700 310.0000 1.0000
58.2800 336.0000 1.0000
58.2900 313.0000 1.0000
58.3000 316.0000 1.0000
58.3100 326.0000 1.0000
58.3200 313.0000 1.0000
58.3300 309.0000 1.0000
58.3400 299.0000 1.0000
58.3500 319.0000 1.0000
58.3600 318.0000 1.0000
58.3700 332.0000 1.0000
58.3800 328.0000 1.0000
58.3900 331.0000 1.0000
58.4000 303.0000 1.0000
58.4100 311.0000 1.0000
58.4200 307.0000 1.0000
58.4300 325.0000 1.0000
58.4400 313.0000 1.0000
58.4500 314.0000 1.0000
58.4600 313.0000 1.0000
58.4700 296.0000 1.0000
58.4800 312.0000 1.0000
58.4900 307.0000 1.0000
58.5000 324.0000 1.0000
58.5100 325.0000 1.0000
58.5200 292.0000 1.0000
58.5300 306.0000 1.0000
58.5400 326.0000 1.0000
58.5500 324.0000 1.0000
58.5600 315.0000 1.0000
58.5700 303.0000 1.0000
58.5800 313.0000 1.0000
58.5900 308.0000 1.0000
58.6000 289.0000 1.0000
58.6100 321.0000 1.0000
58.6200 330.0000 1.0000
58.6300 332.0000 1.0000
58.6400 332.0000 1.0000
58.6500 322.0000 1.0000
58.6600 343.0000 1.0000
58.6700 321.0000 1.0000
58.6800 325.0000 1.0000
58.6900 318.0000 1.0000
58.7000 332.0000 1.0000
58.7100 317.0000 1.0000
58.7200 313.0000 1.0000
58.7300 316.0000 1.0000
58.7400 324.0000 1.0000
58.7500 270.0000 1.0000
58.7600 338.0000 1.0000
58.7700 307.0000 1.0000
58.7800 336.0000 1.0000
58.7900 300.0000 1.0000
58.8000 275.0000 1.0000
58.8100 310.0000 1.0000
58.8200 329.0000 1.0000
58.8300 299.0000 1.0000
58.8400 286.0000 1.0000
58.8500 310.0000 1.0000
58.8600 281.0000 1.0000
58.8700 319.0000 1.0000
58.8800 290.0000 1.0000
58.8900 306.0000 1.0000
58.9000 300.0000 1.0000
58.9100 314.0000 1.0000
58.9200 365.0000 1.0000
58.9300 332.0000 1.0000
58.9400 328.0000 1.0000
58.9500 321.0000 1.0000
58.9600 331.0000 1.0000
58.9700 319.0000 1.0000
58.9800 309.0000 1.0000
58.9900 300.0000 1.0000
59.0000 308.0000 1.0000
59.0100 307.0000 1.0000
59.0200 313.0000 1.0000
59.0300 297.0000 1.0000
59.0400 314.0000 1.0000
59.0500 279.0000 1.0000
59.0600 299.0000 1.0000
59.0700 297.0000 1.0000
59.0800 270.0000 1.0000
59.0900 317.0000 1.0000
59.1000 328.0000 1.0000
59.1100 299.0000 1.0000
59.1200 300.0000 1.0000
59.1300 304.0000 1.0000
59.1400 316.0000 1.0000
59.1500 320.0000 1.0000
59.1600 286.0000 1.0000
59.1700 313.0000 1.0000
59.1800 329.0000 1.0000
59.1900 298.0000 1.0000
59.2000 297.0000 1.0000
59.2100 330.0000 1.0000
59.2200 306.0000 1.0000
59.2300 304.0000 1.0000
59.2400 343.0000 1.0000
59.2500 344.0000 1.0000
59.2600 310.0000 1.0000
59.2700 294.0000 1.0000
59.2800 322.0000 1.0000
59.2900 314.0000 1.0000
59.3000 305.0000 1.0000
59.3100 317.0000 1.0000
59.3200 306.0000 1.0000
59.3300 335.0000 1.0000
59.3400 308.0000 1.0000
59.3500 307.0000 1.0000
59.3600 314.0000 1.0000
59.3700 303.0000 1.0000
59.3800 340.0000 1.0000
59.3900 320.0000 1.0000
59.4000 301.0000 1.0000
59.4100 289.0000 1.0000
59.4200 349.0000 1.0000
59.4300 315.0000 1.0000
59.4400 295.0000 1.0000
59.4500 337.0000 1.0000
59.4600 309.0000 1.0000
59.4700 348.0000 1.0000
59.4800 313.0000 1.0000
59.4900 313.0000 1.0000
59.5000 326.0000 1.0000
59.5100 297.0000 1.0000
59.5200 313.0000 1.0000
59.5300 330.0000 1.0000
59.5400 324.0000 1.0000
59.5500 298.0000 1.0000
59.5600 333.0000 1.0000
59.5700 300.0000 1.0000
59.5800 315.0000 1.0000
59.5900 316.0000 1.0000
59.6000 326.0000 1.0000
59.6100 315.0000 1.0000
59.6200 280.0000 1.0000
59.6300 286.0000 1.0000
59.6400 286.0000 1.0000
59.6500 316.0000 1.0000
59.6600 294.0000 1.0000
59.6700 316.0000 1.0000
59.6800 276.0000 1.0000
59.6900 312.0000 1.0000
59.7000 319.0000 1.0000
59.7100 334.0000 1.0000
59.7200 304.0000 1.0000
59.7300 317.0000 1.0000
59.7400 316.0000 1.0000
59.7500 312.0000 1.0000
59.7600 312.0000 1.0000
59.7700 298.0000 1.0000
59.7800 307.0000 1.0000
59.7900 336.0000 1.0000
59.8000 337.0000 1.0000
59.8100 305.0000 1.0000
59.8200 308.0000 1.0000
59.8300 312.0000 1.0000
59.8400 323.0000 1.0000
59.8500 309.0000 1.0000
59.8600 290.0000 1.0000
59.8700 289.0000 1.0000
59.8800 327.0000 1.0000
59.8900 325.0000 1.0000
59.9000 317.0000 1.0000
59.9100 327.0000 1.0000
59.9200 309.0000 1.0000
59.9300 287.0000 1.0000
59.9400 305.0000 1.0000
59.9500 336.0000 1.0000
59.9600 308.0000 1.0000
59.9700 319.0000 1.0000
59.9800 292.0000 1.0000
59.9900 338.0000 1.0000
60.0000 317.0000 1.0000
60.0100 293.0000 1.0000
60.0200 314.0000 1.0000
60.0300 295.0000 1.0000
60.0400 289.0000 1.0000
60.0500 331.0000 1.0000
60.0600 306.0000 1.0000
60.0700 305.0000 1.0000
60.0800 320.0000 1.0000
60.0900 283.0000 1.0000
60.1000 297.0000 1.0000
60.1100 306.0000 1.0000
60.1200 312.0000 1.0000
60.1300 313.0000 1.0000
60.1400 354.0000 1.0000
60.1500 340.0000 1.0000
60.1600 313.0000 1.0000
60.1700 302.0000 1.0000
60.1800 307.0000 1.0000
60.1900 342.0000 1.0000
60.2000 303.0000 1.0000
60.2100 315.0000 1.0000
60.2200 325.0000 1.0000
60.2300 304.0000 1.0000
60.2400 291.0000 1.0000
60.2500 281.0000 1.0000
60.2600 333.0000 1.0000
60.2700 354.0000 1.0000
60.2800 307.0000 1.0000
60.2900 305.0000 1.0000
60.3000 310.0000 1.0000
60.3100 288.0000 1.0000
60.3200 265.0000 1.0000
60.3300 300.0000 1.0000
60.3400 306.0000 1.0000
60.3500 319.0000 1.0000
60.3600 308.0000 1.0000
60.3700 340.0000 1.0000
60.3800 328.0000 1.0000
60.3900 317.0000 1.0000
60.4000 303.0000 1.0000
60.4100 294.0000 1.0000
60.4200 290.0000 1.0000
60.4300 303.0000 1.0000
60.4400 326.0000 1.0000
60.4500 297.0000 1.0000
60.4600 289.0000 1.0000
60.4700 320.0000 1.0000
60.4800 333.0000 1.0000
60.4900 312.0000 1.0000
60.5000 308.0000 1.0000
60.5100 321.0000 1.0000
60.5200 340.0000 1.0000
60.5300 317.0000 1.0000
60.5400 300.0000 1.0000
60.5500 290.0000 1.0000
60.5600 292.0000 1.0000
60.5700 298.0000 1.0000
60.5800 320.0000 1.0000
60.5900 338.0000 1.0000
60.6000 315.0000 1.0000
60.6100 309.0000 1.0000
60.6200 323.0000 1.0000
60.6300 319.0000 1.0000
60.6400 319.0000 1.0000
60.6500 295.0000 1.0000
60.6600 286.0000 1.0000
60.6700 282.0000 1.0000
60.6800 309.0000 1.0000
60.6900 319.0000 1.0000
60.7000 331.0000 1.0000
60.7100 318.0000 1.0000
60.7200 297.0000 1.0000
60.7300 297.0000 1.0000
60.7400 312.0000 1.0000
60.7500 322.0000 1.0000
60.7600 310.0000 1.0000
60.7700 326.0000 1.0000
60.7800 303.0000 1.0000
60.7900 328.0000 1.0000
60.8000 317.0000 1.0000
60.8100 311.0000 1.0000
60.8200 312.0000 1.0000
60.8300 300.0000 1.0000
60.8400 331.0000 1.0000
60.8500 344.0000 1.0000
60.8600 327.0000 1.0000
60.8700 320.0000 1.0000
60.8800 303.0000 1.0000
60.8900 335.0000 1.0000
60.9000 314.0000 1.0000
60.9100 325.0000 1.0000
60.9200 305.0000 1.0000
60.9300 314.0000 1.0000
60.9400 312.0000 1.0000
60.9500 318.0000 1.0000
60.9600 319.0000 1.0000
60.9700 315.0000 1.0000
60.9800 326.0000 1.0000
60.9900 327.0000 1.0000
61.0000 328.0000 1.0000
61.0100 333.0000 1.0000
61.0200 334.0000 1.0000
61.0300 314.0000 1.0000
61.0400 322.0000 1.0000
61.0500 354.0000 1.0000
61.0600 359.0000 1.0000
61.0700 317.0000 1.0000
61.0800 338.0000 1.0000
61.0900 347.0000 1.0000
61.1000 324.0000 1.0000
61.1100 348.0000 1.0000
61.1200 354.0000 1.0000
61.1300 334.0000 1.0000
61.1400 336.0000 1.0000
61.1500 352.0000 1.0000
61.1600 358.0000 1.0000
61.1700 340.0000 1.0000
61.1800 348.0000 1.0000
61.1900 375.0000 1.0000
61.2000 403.0000 1.0000
61.2100 387.0000 1.0000
61.2200 358.0000 1.0000
61.2300 374.0000 1.0000
61.2400 395.0000 1.0000
61.2500 366.0000 1.0000
61.2600 372.0000 1.0000
61.2700 384.0000 1.0000
61.2800 418.0000 1.0000
61.2900 386.0000 1.0000
61.3000 457.0000 1.0000
61.3100 447.0000 1.0000
61.3200 468.0000 1.0000
61.3300 481.0000 1.0000
61.3400 450.0000 1.0000
61.3500 491.0000 1.0000
61.3600 504.0000 1.0000
61.3700 536.0000 1.0000
61.3800 516.0000 1.0000
61.3900 508.0000 1.0000
61.4000 532.0000 1.0000
61.4100 568.0000 1.0000
61.4200 584.0000 1.0000
61.4300 603.0000 1.0000
61.4400 601.0000 1.0000
61.4500 613.0000 1.0000
61.4600 619.0000 1.0000
61.4700 640.0000 1.0000
61.4800 656.0000 1.0000
61.4900 651.0000 1.0000
61.5000 661.0000 1.0000
61.5100 681.0000 1.0000
61.5200 657.0000 1.0000
61.5300 675.0000 1.0000
61.5400 663.0000 1.0000
61.5500 639.0000 1.0000
61.5600 641.0000 1.0000
61.5700 650.0000 1.0000
61.5800 684.0000 1.0000
61.5900 662.0000 1.0000
61.6000 648.0000 1.0000
61.6100 650.0000 1.0000
61.6200 649.0000 1.0000
61.6300 618.0000 1.0000
61.6400 620.0000 1.0000
61.6500 592.0000 1.0000
61.6600 617.0000 1.0000
61.6700 599.0000 1.0000
61.6800 627.0000 1.0000
61.6900 593.0000 1.0000
61.7000 561.0000 1.0000
61.7100 595.0000 1.0000
61.7200 531.0000 1.0000
61.7300 550.0000 1.0000
61.7400 541.0000 1.0000
61.7500 542.0000 1.0000
61.7600 547.0000 1.0000
61.7700 530.0000 1.0000
61.7800 514.0000 1.0000
61.7900 462.0000 1.0000
61.8000 480.0000 1.0000
61.8100 487.0000 1.0000
61.8200 445.0000 1.0000
61.8300 472.0000 1.0000
61.8400 450.0000 1.0000
61.8500 434.0000 1.0000
61.8600 416.0000 1.0000
61.8700 403.0000 1.0000
61.8800 400.0000 1.0000
61.8900 427.0000 1.0000
61.9000 390.0000 1.0000
61.9100 394.0000 1.0000
61.9200 393.0000 1.0000
61.9300 404.0000 1.0000
61.9400 361.0000 1.0000
61.9500 387.0000 1.0000
61.9600 369.0000 1.0000
61.9700 357.0000 1.0000
61.9800 363.0000 1.0000
61.9900 354.0000 1.0000
62.0000 394.0000 1.0000
62.0100 376.0000 1.0000
62.0200 327.0000 1.0000
62.0300 374.0000 1.0000
62.0400 358.0000 1.0000
62.0500 353.0000 1.0000
62.0600 357.0000 1.0000
62.0700 358.0000 1.0000
62.0800 343.0000 1.0000
62.0900 362.0000 1.0000
62.1000 331.0000 1.0000
62.1100 345.0000 1.0000
62.1200 342.0000 1.0000
62.1300 340.0000 1.0000
62.1400 343.0000 1.0000
62.1500 364.0000 1.0000
62.1600 371.0000 1.0000
62.1700 314.0000 1.0000
62.1800 332.0000 1.0000
62.1900 358.0000 1.0000
62.2000 357.0000 1.0000
62.2100 327.0000 1.0000
62.2200 333.0000 1.0000
62.2300 350.0000 1.0000
62.2400 327.0000 1.0000
62.2500 343.0000 1.0000
62.2600 346.0000 1.0000
62.2700 352.0000 1.0000
62.2800 355.0000 1.0000
62.2900 343.0000 1.0000
62.3000 362.0000 1.0000
62.3100 338.0000 1.0000
62.3200 332.0000 1.0000
62.3300 347.0000 1.0000
62.3400 371.0000 1.0000
62.3500 348.0000 1.0000
62.3600 344.0000 1.0000
62.3700 323.0000 1.0000
62.3800 345.0000 1.0000
62.3900 364.0000 1.0000
62.4000 364.0000 1.0000
62.4100 353.0000 1.0000
62.4200 343.0000 1.0000
62.4300 333.0000 1.0000
62.4400 332.0000 1.0000
62.4500 373.0000 1.0000
62.4600 363.0000 1.0000
62.4700 300.0000 1.0000
62.4800 337.0000 1.0000
62.4900 320.0000 1.0000
62.5000 336.0000 1.0000
62.5100 312.0000 1.0000
62.5200 308.0000 1.0000
62.5300 335.0000 1.0000
62.5400 350.0000 1.0000
62.5500 323.0000 1.0000
62.5600 348.0000 1.0000
62.5700 322.0000 1.0000
62.5800 310.0000 1.0000
62.5900 320.0000 1.0000
62.6000 332.0000 1.0000
62.6100 346.0000 1.0000
62.6200 326.0000 1.0000
62.6300 328.0000 1.0000
62.6400 330.0000 1.0000
62.6500 318.0000 1.0000
62.6600 340.0000 1.0000
62.6700 316.0000 1.0000
62.6800 346.0000 1.0000
62.6900 338.0000 1.0000
62.7000 321.0000 1.0000
62.7100 291.0000 1.0000
62.7200 314.0000 1.0000
62.7300 332.0000 1.0000
62.7400 357.0000 1.0000
62.7500 317.0000 1.0000
62.7600 313.0000 1.0000
62.7700 339.0000 1.0000
62.7800 334.0000 1.0000
62.7900 321.0000 1.0000
62.8000 332.0000 1.0000
62.8100 312.0000 1.0000
62.8200 310.0000 1.0000
62.8300 319.0000 1.0000
62.8400 329.0000 1.0000
62.8500 331.0000 1.0000
62.8600 344.0000 1.0000
62.8700 312.0000 1.0000
62.8800 339.0000 1.0000
62.8900 307.0000 1.0000
62.9000 334.0000 1.0000
62.9100 306.0000 1.0000
62.9200 314.0000 1.0000
62.9300 331.0000 1.0000
62.9400 318.0000 1.0000
62.9500 303.0000 1.0000
62.9600 338.0000 1.0000
62.9700 311.0000 1.0000
62.9800 306.0000 1.0000
62.9900 289.0000 1.0000
63.0000 310.0000 1.0000
63.0100 320.0000 1.0000
63.0200 285.0000 1.0000
63.0300 329.0000 1.0000
63.0400 325.0000 1.0000
63.0500 320.0000 1.0000
63.0600 317.0000 1.0000
63.0700 316.0000 1.0000
63.0800 298.0000 1.0000
63.0900 297.0000 1.0000
63.1000 316.0000 1.0000
63.1100 313.0000 1.0000
63.1200 331.0000 1.0000
63.1300 323.0000 1.0000
63.1400 341.0000 1.0000
63.1500 309.0000 1.0000
63.1600 329.0000 1.0000
63.1700 333.0000 1.0000
63.1800 299.0000 1.0000
63.1900 302.0000 1.0000
63.2000 311.0000 1.0000
63.2100 319.0000 1.0000
63.2200 325.0000 1.0000
63.2300 319.0000 1.0000
63.2400 332.0000 1.0000
63.2500 312.0000 1.0000
63.2600 345.0000 1.0000
63.2700 320.0000 1.0000
63.2800 306.0000 1.0000
63.2900 318.0000 1.0000
63.3000 294.0000 1.0000
63.3100 339.0000 1.0000
63.3200 326.0000 1.0000
63.3300 320.0000 1.0000
63.3400 325.0000 1.0000
63.3500 307.0000 1.0000
63.3600 348.0000 1.0000
63.3700 324.0000 1.0000
63.3800 341.0000 1.0000
63.3900 325.0000 1.0000
63.4000 348.0000 1.0000
63.4100 303.0000 1.0000
63.4200 312.0000 1.0000
63.4300 325.0000 1.0000
63.4400 323.0000 1.0000
63.4500 316.0000 1.0000
63.4600 316.0000 1.0000
63.4700 331.0000 1.0000
63.4800 304.0000 1.0000
63.4900 342.0000 1.0000
63.5000 327.0000 1.0000
63.5100 335.0000 1.0000
63.5200 301.0000 1.0000
63.5300 308.0000 1.0000
63.5400 341.0000 1.0000
63.5500 348.0000 1.0000
63.5600 329.0000 1.0000
63.5700 327.0000 1.0000
63.5800 311.0000 1.0000
63.5900 335.0000 1.0000
63.6000 328.0000 1.0000
63.6100 301.0000 1.0000
63.6200 340.0000 1.0000
63.6300 306.0000 1.0000
63.6400 336.0000 1.0000
63.6500 289.0000 1.0000
63.6600 327.0000 1.0000
63.6700 332.0000 1.0000
63.6800 323.0000 1.0000
63.6900 325.0000 1.0000
63.7000 329.0000 1.0000
63.7100 314.0000 1.0000
63.7200 342.0000 1.0000
63.7300 332.0000 1.0000
63.7400 358.0000 1.0000
63.7500 338.0000 1.0000
63.7600 332.0000 1.0000
63.7700 328.0000 1.0000
63.7800 331.0000 1.0000
63.7900 358.0000 1.0000
63.8000 355.0000 1.0000
63.8100 357.0000 1.0000
63.8200 350.0000 1.0000
63.8300 353.0000 1.0000
63.8400 337.0000 1.0000
63.8500 372.0000 1.0000
63.8600 382.0000 1.0000
63.8700 382.0000 1.0000
63.8800 352.0000 1.0000
63.8900 359.0000 1.0000
63.9000 349.0000 1.0000
63.9100 381.0000 1.0000
63.9200 420.0000 1.0000
63.9300 406.0000 1.0000
63.9400 401.0000 1.0000
63.9500 382.0000 1.0000
63.9600 410.0000 1.0000
63.9700 413.0000 1.0000
63.9800 396.0000 1.0000
63.9900 377.0000 1.0000
64.0000 384.0000 1.0000
64.0100 409.0000 1.0000
64.0200 367.0000 1.0000
64.0300 375.0000 1.0000
64.0400 410.0000 1.0000
64.0500 366.0000 1.0000
64.0600 369.0000 1.0000
64.0700 368.0000 1.0000
64.0800 365.0000 1.0000
64.0900 375.0000 1.0000
64.1000 349.0000 1.0000
64.1100 388.0000 1.0000
64.1200 399.0000 1.0000
64.1300 372.0000 1.0000
64.1400 385.0000 1.0000
64.1500 361.0000 1.0000
64.1600 358.0000 1.0000
64.1700 356.0000 1.0000
64.1800 360.0000 1.0000
64.1900 358.0000 1.0000
64.2000 334.0000 1.0000
64.2100 353.0000 1.0000
64.2200 335.0000 1.0000
64.2300 348.0000 1.0000
64.2400 363.0000 1.0000
64.2500 347.0000 1.0000
64.2600 335.0000 1.0000
64.2700 330.0000 1.0000
64.2800 344.0000 1.0000
64.2900 328.0000 1.0000
64.3000 333.0000 1.0000
64.3100 332.0000 1.0000
64.3200 327.0000 1.0000
64.3300 318.0000 1.0000
64.3400 323.0000 1.0000
64.3500 305.0000 1.0000
64.3600 365.0000 1.0000
64.3700 338.0000 1.0000
64.3800 295.0000 1.0000
64.3900 314.0000 1.0000
64.4000 308.0000 1.0000
64.4100 325.0000 1.0000
64.4200 305.0000 1.0000
64.4300 360.0000 1.0000
64.4400 320.0000 1.0000
64.4500 321.0000 1.0000
64.4600 330.0000 1.0000
64.4700 303.0000 1.0000
64.4800 335.0000 1.0000
64.4900 328.0000 1.0000
64.5000 338.0000 1.0000
64.5100 325.0000 1.0000
64.5200 337.0000 1.0000
64.5300 319.0000 1.0000
64.5400 328.0000 1.0000
64.5500 322.0000 1.0000
64.5600 331.0000 1.0000
64.5700 319.0000 1.0000
64.5800 310.0000 1.0000
64.5900 335.0000 1.0000
64.6000 322.0000 1.0000
64.6100 321.0000 1.0000
64.6200 297.0000 1.0000
64.6300 339.0000 1.0000
64.6400 338.0000 1.0000
64.6500 324.0000 1.0000
64.6600 323.0000 1.0000
64.6700 302.0000 1.0000
64.6800 307.0000 1.0000
64.6900 306.0000 1.0000
64.7000 311.0000 1.0000
64.7100 319.0000 1.0000
64.7200 322.0000 1.0000
64.7300 334.0000 1.0000
64.7400 324.0000 1.0000
64.7500 324.0000 1.0000
64.7600 312.0000 1.0000
64.7700 293.0000 1.0000
64.7800 322.0000 1.0000
64.7900 318.0000 1.0000
64.8000 331.0000 1.0000
64.8100 329.0000 1.0000
64.8200 342.0000 1.0000
64.8300 342.0000 1.0000
64.8400 311.0000 1.0000
64.8500 299.0000 1.0000
64.8600 313.0000 1.0000
64.8700 308.0000 1.0000
64.8800 307.0000 1.0000
64.8900 318.0000 1.0000
64.9000 310.0000 1.0000
64.9100 316.0000 1.0000
64.9200 324.0000 1.0000
64.9300 315.0000 1.0000
64.9400 345.0000 1.0000
64.9500 298.0000 1.0000
64.9600 340.0000 1.0000
64.9700 316.0000 1.0000
64.9800 358.0000 1.0000
64.9900 319.0000 1.0000
65.0000 351.0000 1.0000
65.0100 308.0000 1.0000
65.0200 357.0000 1.0000
65.0300 314.0000 1.0000
65.0400 363.0000 1.0000
65.0500 334.0000 1.0000
65.0600 380.0000 1.0000
65.0700 348.0000 1.0000
65.0800 359.0000 1.0000
65.0900 372.0000 1.0000
65.1000 351.0000 1.0000
65.1100 342.0000 1.0000
65.1200 341.0000 1.0000
65.1300 355.0000 1.0000
65.1400 371.0000 1.0000
65.1500 389.0000 1.0000
65.1600 370.0000 1.0000
65.1700 402.0000 1.0000
65.1800 400.0000 1.0000
65.1900 387.0000 1.0000
65.2000 390.0000 1.0000
65.2100 418.0000 1.0000
65.2200 459.0000 1.0000
65.2300 448.0000 1.0000
65.2400 438.0000 1.0000
65.2500 479.0000 1.0000
65.2600 450.0000 1.0000
65.2700 477.0000 1.0000
65.2800 503.0000 1.0000
65.2900 485.0000 1.0000
65.3000 489.0000 1.0000
65.3100 542.0000 1.0000
65.3200 590.0000 1.0000
65.3300 534.0000 1.0000
65.3400 577.0000 1.0000
65.3500 602.0000 1.0000
65.3600 648.0000 1.0000
65.3700 629.0000 1.0000
65.3800 668.0000 1.0000
65.3900 724.0000 1.0000
65.4000 762.0000 1.0000
65.4100 806.0000 1.0000
65.4200 837.0000 1.0000
65.4300 929.0000 1.0000
65.4400 938.0000 1.0000
65.4500 964.0000 1.0000
65.4600 1023.0000 1.0000
65.4700 1031.0000 1.0000
65.4800 1046.0000 1.0000
65.4900 1096.0000 1.0000
65.5000 1122.0000 1.0000
65.5100 1137.0000 1.0000
65.5200 1134.0000 1.0000
65.5300 1147.0000 1.0000
65.5400 1137.0000 1.0000
65.5500 1130.0000 1.0000
65.5600 1128.0000 1.0000
65.5700 1080.0000 1.0000
65.5800 1074.0000 1.0000
65.5900 1029.0000 1.0000
65.6000 1037.0000 1.0000
65.6100 1045.0000 1.0000
65.6200 999.0000 1.0000
65.6300 953.0000 1.0000
65.6400 917.0000 1.0000
65.6500 970.0000 1.0000
65.6600 926.0000 1.0000
65.6700 955.0000 1.0000
65.6800 951.0000 1.0000
65.6900 866.0000 1.0000
65.7000 834.0000 1.0000
65.7100 835.0000 1.0000
65.7200 845.0000 1.0000
65.7300 834.0000 1.0000
65.7400 777.0000 1.0000
65.7500 765.0000 1.0000
65.7600 694.0000 1.0000
65.7700 662.0000 1.0000
65.7800 656.0000 1.0000
65.7900 637.0000 1.0000
65.8000 616.0000 1.0000
65.8100 595.0000 1.0000
65.8200 559.0000 1.0000
65.8300 509.0000 1.0000
65.8400 509.0000 1.0000
65.8500 494.0000 1.0000
65.8600 480.0000 1.0000
65.8700 484.0000 1.0000
65.8800 448.0000 1.0000
65.8900 425.0000 1.0000
65.9000 449.0000 1.0000
65.9100 464.0000 1.0000
65.9200 437.0000 1.0000
65.9300 408.0000 1.0000
65.9400 422.0000 1.0000
65.9500 428.0000 1.0000
65.9600 420.0000 1.0000
65.9700 411.0000 1.0000
65.9800 395.0000 1.0000
65.9900 398.0000 1.0000
66.0000 364.0000 1.0000
66.0100 368.0000 1.0000
66.0200 368.0000 1.0000
66.0300 392.0000 1.0000
66.0400 338.0000 1.0000
66.0500 355.0000 1.0000
66.0600 349.0000 1.0000
66.0700 386.0000 1.0000
66.0800 374.0000 1.0000
66.0900 337.0000 1.0000
66.1000 331.0000 1.0000
66.1100 335.0000 1.0000
66.1200 322.0000 1.0000
66.1300 320.0000 1.0000
66.1400 349.0000 1.0000
66.1500 317.0000 1.0000
66.1600 299.0000 1.0000
66.1700 331.0000 1.0000
66.1800 313.0000 1.0000
66.1900 339.0000 1.0000
66.2000 338.0000 1.0000
66.2100 314.0000 1.0000
66.2200 332.0000 1.0000
66.2300 353.0000 1.0000
66.2400 332.0000 1.0000
66.2500 341.0000 1.0000
66.2600 302.0000 1.0000
66.2700 304.0000 1.0000
66.2800 304.0000 1.0000
66.2900 333.0000 1.0000
66.3000 313.0000 1.0000
66.3100 297.0000 1.0000
66.3200 294.0000 1.0000
66.3300 285.0000 1.0000
66.3400 299.0000 1.0000
66.3500 302.0000 1.0000
66.3600 302.0000 1.0000
66.3700 288.0000 1.0000
66.3800 316.0000 1.0000
66.3900 303.0000 1.0000
66.4000 308.0000 1.0000
66.4100 314.0000 1.0000
66.4200 291.0000 1.0000
66.4300 294.0000 1.0000
66.4400 313.0000 1.0000
66.4500 309.0000 1.0000
66.4600 295.0000 1.0000
66.4700 311.0000 1.0000
66.4800 311.0000 1.0000
66.4900 281.0000 1.0000
66.5000 285.0000 1.0000
66.5100 302.0000 1.0000
66.5200 309.0000 1.0000
66.5300 302.0000 1.0000
66.5400 338.0000 1.0000
66.5500 303.0000 1.0000
66.5600 279.0000 1.0000
66.5700 277.0000 1.0000
66.5800 292.0000 1.0000
66.5900 288.0000 1.0000
66.6000 285.0000 1.0000
66.6100 290.0000 1.0000
66.6200 306.0000 1.0000
66.6300 302.0000 1.0000
66.6400 321.0000 1.0000
66.6500 309.0000 1.0000
66.6600 296.0000 1.0000
66.6700 289.0000 1.0000
66.6800 278.0000 1.0000
66.6900 270.0000 1.0000
66.7000 286.0000 1.0000
66.7100 285.0000 1.0000
66.7200 287.0000 1.0000
66.7300 277.0000 1.0000
66.7400 274.0000 1.0000
66.7500 296.0000 1.0000
66.7600 285.0000 1.0000
66.7700 299.0000 1.0000
66.7800 296.0000 1.0000
66.7900 307.0000 1.0000
66.8000 313.0000 1.0000
66.8100 289.0000 1.0000
66.8200 301.0000 1.0000
66.8300 280.0000 1.0000
66.8400 308.0000 1.0000
66.8500 260.0000 1.0000
66.8600 301.0000 1.0000
66.8700 290.0000 1.0000
66.8800 290.0000 1.0000
66.8900 268.0000 1.0000
66.9000 288.0000 1.0000
66.9100 274.0000 1.0000
66.9200 313.0000 1.0000
66.9300 283.0000 1.0000
66.9400 300.0000 1.0000
66.9500 312.0000 1.0000
66.9600 292.0000 1.0000
66.9700 274.0000 1.0000
66.9800 290.0000 1.0000
66.9900 312.0000 1.0000
67.0000 305.0000 1.0000
67.0100 281.0000 1.0000
67.0200 284.0000 1.0000
67.0300 281.0000 1.0000
67.0400 253.0000 1.0000
67.0500 276.0000 1.0000
67.0600 285.0000 1.0000
67.0700 286.0000 1.0000
67.0800 294.0000 1.0000
67.0900 304.0000 1.0000
67.1000 266.0000 1.0000
67.1100 280.0000 1.0000
67.1200 257.0000 1.0000
67.1300 269.0000 1.0000
67.1400 297.0000 1.0000
67.1500 303.0000 1.0000
67.1600 319.0000 1.0000
67.1700 294.0000 1.0000
67.1800 296.0000 1.0000
67.1900 291.0000 1.0000
67.2000 282.0000 1.0000
67.2100 285.0000 1.0000
67.2200 257.0000 1.0000
67.2300 267.0000 1.0000
67.2400 288.0000 1.0000
67.2500 296.0000 1.0000
67.2600 283.0000 1.0000
67.2700 272.0000 1.0000
67.2800 291.0000 1.0000
67.2900 298.0000 1.0000
67.3000 289.0000 1.0000
67.3100 314.0000 1.0000
67.3200 290.0000 1.0000
67.3300 315.0000 1.0000
67.3400 315.0000 1.0000
67.3500 314.0000 1.0000
67.3600 279.0000 1.0000
67.3700 289.0000 1.0000
67.3800 294.0000 1.0000
67.3900 293.0000 1.0000
67.4000 288.0000 1.0000
67.4100 275.0000 1.0000
67.4200 282.0000 1.0000
67.4300 306.0000 1.0000
67.4400 286.0000 1.0000
67.4500 270.0000 1.0000
67.4600 298.0000 1.0000
67.4700 304.0000 1.0000
67.4800 285.0000 1.0000
67.4900 304.0000 1.0000
67.5000 307.0000 1.0000
67.5100 283.0000 1.0000
67.5200 265.0000 1.0000
67.5300 259.0000 1.0000
67.5400 280.0000 1.0000
67.5500 290.0000 1.0000
67.5600 275.0000 1.0000
67.5700 283.0000 1.0000
67.5800 268.0000 1.0000
67.5900 305.0000 1.0000
67.6000 288.0000 1.0000
67.6100 292.0000 1.0000
67.6200 261.0000 1.0000
67.6300 279.0000 1.0000
67.6400 269.0000 1.0000
67.6500 272.0000 1.0000
67.6600 283.0000 1.0000
67.6700 288.0000 1.0000
67.6800 311.0000 1.0000
67.6900 277.0000 1.0000
67.7000 258.0000 1.0000
67.7100 295.0000 1.0000
67.7200 278.0000 1.0000
67.7300 280.0000 1.0000
67.7400 273.0000 1.0000
67.7500 274.0000 1.0000
67.7600 284.0000 1.0000
67.7700 286.0000 1.0000
67.7800 270.0000 1.0000
67.7900 283.0000 1.0000
67.8000 290.0000 1.0000
67.8100 288.0000 1.0000
67.8200 263.0000 1.0000
67.8300 252.0000 1.0000
67.8400 272.0000 1.0000
67.8500 302.0000 1.0000
67.8600 289.0000 1.0000
67.8700 255.0000 1.0000
67.8800 273.0000 1.0000
67.8900 278.0000 1.0000
67.9000 277.0000 1.0000
67.9100 275.0000 1.0000
67.9200 257.0000 1.0000
67.9300 271.0000 1.0000
67.9400 261.0000 1.0000
67.9500 265.0000 1.0000
67.9600 269.0000 1.0000
67.9700 281.0000 1.0000
67.9800 264.0000 1.0000
67.9900 280.0000 1.0000
68.0000 305.0000 1.0000
68.0100 278.0000 1.0000
68.0200 279.0000 1.0000
68.0300 278.0000 1.0000
68.0400 274.0000 1.0000
68.0500 274.0000 1.0000
68.0600 265.0000 1.0000
68.0700 278.0000 1.0000
68.0800 303.0000 1.0000
68.0900 278.0000 1.0000
68.1000 275.0000 1.0000
68.1100 273.0000 1.0000
68.1200 263.0000 1.0000
68.1300 283.0000 1.0000
68.1400 265.0000 1.0000
68.1500 297.0000 1.0000
68.1600 272.0000 1.0000
68.1700 293.0000 1.0000
68.1800 292.0000 1.0000
68.1900 294.0000 1.0000
68.2000 290.0000 1.0000
68.2100 292.0000 1.0000
68.2200 275.0000 1.0000
68.2300 294.0000 1.0000
68.2400 305.0000 1.0000
68.2500 279.0000 1.0000
68.2600 264.0000 1.0000
68.2700 270.0000 1.0000
68.2800 272.0000 1.0000
68.2900 246.0000 1.0000
68.3000 259.0000 1.0000
68.3100 283.0000 1.0000
68.3200 301.0000 1.0000
68.3300 272.0000 1.0000
68.3400 261.0000 1.0000
68.3500 270.0000 1.0000
68.3600 283.0000 1.0000
68.3700 293.0000 1.0000
68.3800 283.0000 1.0000
68.3900 283.0000 1.0000
68.4000 301.0000 1.0000
68.4100 243.0000 1.0000
68.4200 278.0000 1.0000
68.4300 294.0000 1.0000
68.4400 266.0000 1.0000
68.4500 280.0000 1.0000
68.4600 283.0000 1.0000
68.4700 263.0000 1.0000
68.4800 264.0000 1.0000
68.4900 297.0000 1.0000
68.5000 277.0000 1.0000
68.5100 262.0000 1.0000
68.5200 274.0000 1.0000
68.5300 261.0000 1.0000
68.5400 292.0000 1.0000
68.5500 266.0000 1.0000
68.5600 288.0000 1.0000
68.5700 281.0000 1.0000
68.5800 286.0000 1.0000
68.5900 260.0000 1.0000
68.6000 282.0000 1.0000
68.6100 236.0000 1.0000
68.6200 267.0000 1.0000
68.6300 288.0000 1.0000
68.6400 258.0000 1.0000
68.6500 264.0000 1.0000
68.6600 269.0000 1.0000
68.6700 274.0000 1.0000
68.6800 281.0000 1.0000
68.6900 229.0000 1.0000
68.7000 279.0000 1.0000
68.7100 276.0000 1.0000
68.7200 268.0000 1.0000
68.7300 262.0000 1.0000
68.7400 264.0000 1.0000
68.7500 264.0000 1.0000
68.7600 264.0000 1.0000
68.7700 283.0000 1.0000
68.7800 282.0000 1.0000
68.7900 293.0000 1.0000
68.8000 290.0000 1.0000
68.8100 277.0000 1.0000
68.8200 283.0000 1.0000
68.8300 263.0000 1.0000
68.8400 248.0000 1.0000
68.8500 282.0000 1.0000
68.8600 309.0000 1.0000
68.8700 259.0000 1.0000
68.8800 294.0000 1.0000
68.8900 300.0000 1.0000
68.9000 273.0000 1.0000
68.9100 250.0000 1.0000
68.9200 245.0000 1.0000
68.9300 277.0000 1.0000
68.9400 253.0000 1.0000
68.9500 285.0000 1.0000
68.9600 298.0000 1.0000
68.9700 286.0000 1.0000
68.9800 278.0000 1.0000
68.9900 253.0000 1.0000
69.0000 289.0000 1.0000
69.0100 252.0000 1.0000
69.0200 275.0000 1.0000
69.0300 289.0000 1.0000
69.0400 263.0000 1.0000
69.0500 271.0000 1.0000
69.0600 277.0000 1.0000
69.0700 267.0000 1.0000
69.0800 293.0000 1.0000
69.0900 253.0000 1.0000
69.1000 276.0000 1.0000
69.1100 286.0000 1.0000
69.1200 296.0000 1.0000
69.1300 262.0000 1.0000
69.1400 259.0000 1.0000
69.1500 266.0000 1.0000
69.1600 285.0000 1.0000
69.1700 253.0000 1.0000
69.1800 260.0000 1.0000
69.1900 277.0000 1.0000
69.2000 257.0000 1.0000
69.2100 291.0000 1.0000
69.2200 279.0000 1.0000
69.2300 279.0000 1.0000
69.2400 262.0000 1.0000
69.2500 269.0000 1.0000
69.2600 270.0000 1.0000
69.2700 248.0000 1.0000
69.2800 263.0000 1.0000
69.2900 279.0000 1.0000
69.3000 249.0000 1.0000
69.3100 272.0000 1.0000
69.3200 280.0000 1.0000
69.3300 248.0000 1.0000
69.3400 267.0000 1.0000
69.3500 278.0000 1.0000
69.3600 250.0000 1.0000
69.3700 283.0000 1.0000
69.3800 292.0000 1.0000
69.3900 274.0000 1.0000
69.4000 260.0000 1.0000
69.4100 275.0000 1.0000
69.4200 257.0000 1.0000
69.4300 263.0000 1.0000
69.4400 261.0000 1.0000
69.4500 264.0000 1.0000
69.4600 255.0000 1.0000
69.4700 244.0000 1.0000
69.4800 272.0000 1.0000
69.4900 257.0000 1.0000
69.5000 284.0000 1.0000
69.5100 278.0000 1.0000
69.5200 283.0000 1.0000
69.5300 277.0000 1.0000
69.5400 282.0000 1.0000
69.5500 267.0000 1.0000
69.5600 284.0000 1.0000
69.5700 258.0000 1.0000
69.5800 258.0000 1.0000
69.5900 240.0000 1.0000
69.6000 266.0000 1.0000
69.6100 249.0000 1.0000
69.6200 276.0000 1.0000
69.6300 255.0000 1.0000
69.6400 266.0000 1.0000
69.6500 281.0000 1.0000
69.6600 255.0000 1.0000
69.6700 273.0000 1.0000
69.6800 254.0000 1.0000
69.6900 272.0000 1.0000
69.7000 268.0000 1.0000
69.7100 259.0000 1.0000
69.7200 261.0000 1.0000
69.7300 265.0000 1.0000
69.7400 251.0000 1.0000
69.7500 264.0000 1.0000
69.7600 269.0000 1.0000
69.7700 251.0000 1.0000
69.7800 270.0000 1.0000
69.7900 264.0000 1.0000
69.8000 296.0000 1.0000
69.8100 274.0000 1.0000
69.8200 262.0000 1.0000
69.8300 243.0000 1.0000
69.8400 270.0000 1.0000
69.8500 259.0000 1.0000
69.8600 248.0000 1.0000
69.8700 263.0000 1.0000
69.8800 270.0000 1.0000
69.8900 251.0000 1.0000
69.9000 274.0000 1.0000
69.9100 301.0000 1.0000
69.9200 275.0000 1.0000
69.9300 283.0000 1.0000
69.9400 263.0000 1.0000
69.9500 260.0000 1.0000
69.9600 247.0000 1.0000
69.9700 243.0000 1.0000
69.9800 262.0000 1.0000
69.9900 245.0000 1.0000
70.0000 261.0000 1.0000
*RAS_INT_END
*RAS_TEMPERATURE_START
*RAS_TEMPERATURE_END
*RAS_DATA_END
