*RAS_DATA_START
*RAS_HEADER_START
*DISP_FMT_X "%.2f"
*DISP_FMT_Y "%.0f"
*DISP_FULLSCALE "18960.0000000000"
*DISP_LINE_COLOR "255.0000000000"
*DISP_LINE_STYLE "0.0000000000"
*DISP_LINE_WIDTH "0.2500000000"
*DISP_NOTE "測定データ-12"
*DISP_OFFSET_Y "0.0000000000"
*DISP_PEAKSEARCH_UNIT_Y "cps"
*DISP_RANGE_BOTTOM "0.0000000000"
*DISP_RANGE_LEFT "20.0000000000"
*DISP_RANGE_LOGCUTOFF "0.0100000000"
*DISP_RANGE_RIGHT "70.0000000000"
*DISP_RANGE_TOP "18960.0000000000"
*DISP_SCALE_MODE_Y "0.0000000000"
*DISP_TAB_NAME "2θ/θ"
*DISP_TITLE_Y "強度"
*DISP_UNIT_Y "cps"
*DISP_WINDOW_NAME "MSG_MACROENGINE"
*FILE_COMMENT " "
*FILE_MD5 ""
*FILE_MEMO " "
*FILE_OPERATOR "Administrator"
*FILE_SAMPLE " "
*FILE_TYPE "RAS_RAW"
*FILE_USERGROUP "システムマネージャ"
*FILE_VERSION "1.0000000000"
*HW_ATTACHMENT_ID "ATT0025"
*HW_ATTACHMENT_NAME "標準|Standard"
*HW_COUNTER_ID-0 "CUT0025"
*HW_COUNTER_ID-1 "CUT0020"
*HW_COUNTER_ID-2 "CUT0020"
*HW_COUNTER_ID-3 "CSL0021"
*HW_COUNTER_ID-4 "CMC0021"
*HW_COUNTER_NAME-0 "D/teX Ultra|D/teX Ultra"
*HW_COUNTER_NAME-1 "None|None"
*HW_COUNTER_NAME-2 "None|None"
*HW_COUNTER_NAME-3 "BBM|BBM"
*HW_COUNTER_NAME-4 "検出器モノクロメータ|Detector monochromator"
*HW_COUNTER_SELECT_NAME "D/teX Ultra|D/teX Ultra"
*HW_GONIOMETER_ID "GON0023"
*HW_GONIOMETER_NAME "SmartLab|SmartLab"
*HW_GONIOMETER_RADIUS-0 "90.0"
*HW_GONIOMETER_RADIUS-1 "114.0"
*HW_GONIOMETER_RADIUS-2 "190.0"
*HW_GONIOMETER_RADIUS-3 "300.0"
*HW_GONIOMETER_RADIUS-4 "187.0"
*HW_GONIOMETER_RADIUS-5 "300.0"
*HW_GONIOMETER_RADIUS-6 "113.0"
*HW_GONIOMETER_RADIUS-7 "331.0"
*HW_I_OPT_ID-0 "CBO0021"
*HW_I_OPT_ID-1 "ICR0023"
*HW_I_OPT_ID-2 "ISL0021"
*HW_I_OPT_ID-3 "ISO0021"
*HW_I_OPT_ID-4 "IAD0021"
*HW_I_OPT_ID-5 "IPR0001"
*HW_I_OPT_NAME-0 "CBOユニット|CBO unit"
*HW_I_OPT_NAME-1 "標準入射光学ユニット|Standard incident optical unit"
*HW_I_OPT_NAME-2 "標準入射スリットボックス|Standard incident slit box"
*HW_I_OPT_NAME-3 "入射平行スリット|Incident parallel slit"
*HW_I_OPT_NAME-4 "長手制限スリット|Length limiting slit"
*HW_I_OPT_NAME-5 "None|None"
*HW_R_ATTENUATER_AUTOMODE "0"
*HW_R_OPT_ID-0 "RSS0021"
*HW_R_OPT_ID-1 "RCR0023"
*HW_R_OPT_ID-2 "RSO0021"
*HW_R_OPT_ID-3 "RRS0021"
*HW_R_OPT_ID-4 "ATN0021"
*HW_R_OPT_ID-5 "RFL0021"
*HW_R_OPT_ID-6 "RAD0021"
*HW_R_OPT_NAME-0 "標準受光スリットボックス1|Standard receiving slit box # 1"
*HW_R_OPT_NAME-1 "標準受光光学ユニット1|Standard receiving unit # 1"
*HW_R_OPT_NAME-2 "標準受光光学ユニット2|Standard receiving optical unit # 2"
*HW_R_OPT_NAME-3 "標準受光スリットボックス2|Standard receiving slit box # 2"
*HW_R_OPT_NAME-4 "標準アッテネータ|Standard Attenuator"
*HW_R_OPT_NAME-5 "Cu Kβ|Cu K-beta"
*HW_R_OPT_NAME-6 "調整用受光スリット|Alignment receiving slit"
*HW_SAMPLE_HOLDER_ID "SMP0023"
*HW_SAMPLE_HOLDER_NAME "標準Zステージ|Standard Z stage"
*HW_XG_CURRENT_MAX "50"
*HW_XG_CURRENT_MIN "2"
*HW_XG_CURRENT_RESOLUTION "1"
*HW_XG_CURRENT_UNIT "mA"
*HW_XG_FOCUS "1mm x 10mm"
*HW_XG_FOCUS_TYPE "Normal"
*HW_XG_ID ""
*HW_XG_NAME "3kW 封入管(ID:1200)|3kW Sealed tube(ID:1200)"
*HW_XG_TARGET_ATOMIC_NUMBER "29.0000000000"
*HW_XG_TARGET_NAME "Cu"
*HW_XG_TYPE "Hermetic"
*HW_XG_VOLTAGE_MAX "60"
*HW_XG_VOLTAGE_MIN "20"
*HW_XG_VOLTAGE_RESOLUTION "1"
*HW_XG_VOLTAGE_UNIT "kV"
*HW_XG_WATT_MAX "1.500"
*HW_XG_WATT_UNIT "kW"
*HW_XG_WAVE_LENGTH_ALPHA1 "1.540593"
*HW_XG_WAVE_LENGTH_ALPHA2 "1.544414"
*HW_XG_WAVE_LENGTH_BETA "1.392250"
*MEAS_COND_AXIS_NAME-0 "2θ/θ"
*MEAS_COND_AXIS_NAME-1 "2θ"
*MEAS_COND_AXIS_NAME-2 "ω"
*MEAS_COND_AXIS_NAME-3 "Z"
*MEAS_COND_AXIS_NAME-4 "2θ/ω"
*MEAS_COND_AXIS_NAME-5 "θs"
*MEAS_COND_AXIS_NAME-6 "θd"
*MEAS_COND_AXIS_NAME-7 "Ts"
*MEAS_COND_AXIS_NAME-8 "CBO選択スリット"
*MEAS_COND_AXIS_NAME-9 "M"
*MEAS_COND_AXIS_NAME-10 "入射平行スリット"
*MEAS_COND_AXIS_NAME-11 "入射スリット"
*MEAS_COND_AXIS_NAME-12 ""
*MEAS_COND_AXIS_NAME-13 "Zs"
*MEAS_COND_AXIS_NAME-14 "入射光学素子"
*MEAS_COND_AXIS_NAME-15 "長手制限スリット"
*MEAS_COND_AXIS_NAME-16 "センタースリット"
*MEAS_COND_AXIS_NAME-17 "フィルター"
*MEAS_COND_AXIS_NAME-18 "受光スリット1"
*MEAS_COND_AXIS_NAME-19 "受光スリット2"
*MEAS_COND_AXIS_NAME-20 "受光光学素子"
*MEAS_COND_AXIS_NAME-21 "受光平行スリット"
*MEAS_COND_AXIS_NAME-22 "調整用受光スリット"
*MEAS_COND_AXIS_NAME-23 ""
*MEAS_COND_AXIS_NAME-24 ""
*MEAS_COND_AXIS_NAME-25 "Zd"
*MEAS_COND_AXIS_NAME-26 "アッテネータ"
*MEAS_COND_AXIS_NAME-27 "検出器モノクロメータ"
*MEAS_COND_AXIS_NAME-28 "モノクロメータスリット"
*MEAS_COND_AXIS_NAME-29 "プライマリビーム"
*MEAS_COND_AXIS_NAME-30 "PHA"
*MEAS_COND_AXIS_NAME_INTERNAL-0 "TwoThetaTheta"
*MEAS_COND_AXIS_NAME_INTERNAL-1 "TwoTheta"
*MEAS_COND_AXIS_NAME_INTERNAL-2 "Omega"
*MEAS_COND_AXIS_NAME_INTERNAL-3 "Z"
*MEAS_COND_AXIS_NAME_INTERNAL-4 "TwoThetaOmega"
*MEAS_COND_AXIS_NAME_INTERNAL-5 "ThetaS"
*MEAS_COND_AXIS_NAME_INTERNAL-6 "ThetaD"
*MEAS_COND_AXIS_NAME_INTERNAL-7 "Ts"
*MEAS_COND_AXIS_NAME_INTERNAL-8 "CBO"
*MEAS_COND_AXIS_NAME_INTERNAL-9 "CBO-M"
*MEAS_COND_AXIS_NAME_INTERNAL-10 "IncidentSollerSlit"
*MEAS_COND_AXIS_NAME_INTERNAL-11 "IncidentSlitBox"
*MEAS_COND_AXIS_NAME_INTERNAL-12 "IncidentSlitBox-_Axis"
*MEAS_COND_AXIS_NAME_INTERNAL-13 "Zs"
*MEAS_COND_AXIS_NAME_INTERNAL-14 "IncidentMonochromator"
*MEAS_COND_AXIS_NAME_INTERNAL-15 "IncidentAxdSlit"
*MEAS_COND_AXIS_NAME_INTERNAL-16 "CenterSlit"
*MEAS_COND_AXIS_NAME_INTERNAL-17 "Filter"
*MEAS_COND_AXIS_NAME_INTERNAL-18 "ReceivingSlitBox1"
*MEAS_COND_AXIS_NAME_INTERNAL-19 "ReceivingSlitBox2"
*MEAS_COND_AXIS_NAME_INTERNAL-20 "ReceivingOptics"
*MEAS_COND_AXIS_NAME_INTERNAL-21 "ReceivingSollerSlit"
*MEAS_COND_AXIS_NAME_INTERNAL-22 "ReceivingAxdSlit"
*MEAS_COND_AXIS_NAME_INTERNAL-23 "ReceivingSlitBox1-_Axis"
*MEAS_COND_AXIS_NAME_INTERNAL-24 "ReceivingSlitBox2-_Axis"
*MEAS_COND_AXIS_NAME_INTERNAL-25 "ReceivingSlitBox2-Zd"
*MEAS_COND_AXIS_NAME_INTERNAL-26 "Attenuator"
*MEAS_COND_AXIS_NAME_INTERNAL-27 "CounterMonochromator"
*MEAS_COND_AXIS_NAME_INTERNAL-28 "CounterSlit"
*MEAS_COND_AXIS_NAME_INTERNAL-29 "IncidentPrimary"
*MEAS_COND_AXIS_NAME_INTERNAL-30 "PHA"
*MEAS_COND_AXIS_NAME_MAGICNO-0 "83951616.0000000000"
*MEAS_COND_AXIS_NAME_MAGICNO-1 "268632064.0000000000"
*MEAS_COND_AXIS_NAME_MAGICNO-2 "268500992.0000000000"
*MEAS_COND_AXIS_NAME_MAGICNO-3 "285278208.0000000000"
*MEAS_COND_AXIS_NAME_MAGICNO-4 "83951616.0000000000"
*MEAS_COND_AXIS_NAME_MAGICNO-5 "131072.0000000000"
*MEAS_COND_AXIS_NAME_MAGICNO-6 "131072.0000000000"
*MEAS_COND_AXIS_NAME_MAGICNO-7 "318898176.0000000000"
*MEAS_COND_AXIS_NAME_MAGICNO-8 "20971521.0000000000"
*MEAS_COND_AXIS_NAME_MAGICNO-9 "285343744.0000000000"
*MEAS_COND_AXIS_NAME_MAGICNO-10 "20971521.0000000000"
*MEAS_COND_AXIS_NAME_MAGICNO-11 "22020097.0000000000"
*MEAS_COND_AXIS_NAME_MAGICNO-12 "25165824.0000000000"
*MEAS_COND_AXIS_NAME_MAGICNO-13 "318898176.0000000000"
*MEAS_COND_AXIS_NAME_MAGICNO-14 "1.0000000000"
*MEAS_COND_AXIS_NAME_MAGICNO-15 "20971521.0000000000"
*MEAS_COND_AXIS_NAME_MAGICNO-16 "20971521.0000000000"
*MEAS_COND_AXIS_NAME_MAGICNO-17 "20971521.0000000000"
*MEAS_COND_AXIS_NAME_MAGICNO-18 "23068673.0000000000"
*MEAS_COND_AXIS_NAME_MAGICNO-19 "23068673.0000000000"
*MEAS_COND_AXIS_NAME_MAGICNO-20 "20971521.0000000000"
*MEAS_COND_AXIS_NAME_MAGICNO-21 "20971521.0000000000"
*MEAS_COND_AXIS_NAME_MAGICNO-22 "20971521.0000000000"
*MEAS_COND_AXIS_NAME_MAGICNO-23 "25165824.0000000000"
*MEAS_COND_AXIS_NAME_MAGICNO-24 "25165824.0000000000"
*MEAS_COND_AXIS_NAME_MAGICNO-25 "285343744.0000000000"
*MEAS_COND_AXIS_NAME_MAGICNO-26 "17301505.0000000000"
*MEAS_COND_AXIS_NAME_MAGICNO-27 "20971521.0000000000"
*MEAS_COND_AXIS_NAME_MAGICNO-28 "20971521.0000000000"
*MEAS_COND_AXIS_NAME_MAGICNO-29 "20971521.0000000000"
*MEAS_COND_AXIS_NAME_MAGICNO-30 "0.0000000000"
*MEAS_COND_AXIS_OFFSET-0 "-"
*MEAS_COND_AXIS_OFFSET-1 "-0.0801000000"
*MEAS_COND_AXIS_OFFSET-2 "0.1646000000"
*MEAS_COND_AXIS_OFFSET-3 "-"
*MEAS_COND_AXIS_OFFSET-4 "-"
*MEAS_COND_AXIS_OFFSET-5 "0.1646000000"
*MEAS_COND_AXIS_OFFSET-6 "-0.2447000000"
*MEAS_COND_AXIS_OFFSET-7 "-"
*MEAS_COND_AXIS_OFFSET-8 "-"
*MEAS_COND_AXIS_OFFSET-9 "-"
*MEAS_COND_AXIS_OFFSET-10 "-"
*MEAS_COND_AXIS_OFFSET-11 "-"
*MEAS_COND_AXIS_OFFSET-12 "-"
*MEAS_COND_AXIS_OFFSET-13 "-"
*MEAS_COND_AXIS_OFFSET-14 "-"
*MEAS_COND_AXIS_OFFSET-15 "-"
*MEAS_COND_AXIS_OFFSET-16 "-"
*MEAS_COND_AXIS_OFFSET-17 "-"
*MEAS_COND_AXIS_OFFSET-18 "-"
*MEAS_COND_AXIS_OFFSET-19 "-"
*MEAS_COND_AXIS_OFFSET-20 "-"
*MEAS_COND_AXIS_OFFSET-21 "-"
*MEAS_COND_AXIS_OFFSET-22 "-"
*MEAS_COND_AXIS_OFFSET-23 "-"
*MEAS_COND_AXIS_OFFSET-24 "-"
*MEAS_COND_AXIS_OFFSET-25 "-"
*MEAS_COND_AXIS_OFFSET-26 "-"
*MEAS_COND_AXIS_OFFSET-27 "-"
*MEAS_COND_AXIS_OFFSET-28 "-"
*MEAS_COND_AXIS_OFFSET-29 "-"
*MEAS_COND_AXIS_OFFSET-30 "-"
*MEAS_COND_AXIS_POSITION-0 "0.0000000000"
*MEAS_COND_AXIS_POSITION-1 "0.0000000000"
*MEAS_COND_AXIS_POSITION-2 "0.0000000000"
*MEAS_COND_AXIS_POSITION-3 "-2.9256400000"
*MEAS_COND_AXIS_POSITION-4 "0.0000000000"
*MEAS_COND_AXIS_POSITION-5 "0.0000000000"
*MEAS_COND_AXIS_POSITION-6 "0.0000000000"
*MEAS_COND_AXIS_POSITION-7 "-0.4278800000"
*MEAS_COND_AXIS_POSITION-8 "BB"
*MEAS_COND_AXIS_POSITION-9 "0.0000000000"
*MEAS_COND_AXIS_POSITION-10 "Soller_slit_5.0deg"
*MEAS_COND_AXIS_POSITION-11 "2/3deg"
*MEAS_COND_AXIS_POSITION-12 "2.2088000000"
*MEAS_COND_AXIS_POSITION-13 "-1.0609400000"
*MEAS_COND_AXIS_POSITION-14 "0.0000000000"
*MEAS_COND_AXIS_POSITION-15 "10.0mm"
*MEAS_COND_AXIS_POSITION-16 "None"
*MEAS_COND_AXIS_POSITION-17 "Cu_K-beta"
*MEAS_COND_AXIS_POSITION-18 "13.000mm"
*MEAS_COND_AXIS_POSITION-19 "13.000mm"
*MEAS_COND_AXIS_POSITION-20 "No_unit"
*MEAS_COND_AXIS_POSITION-21 "Soller_slit_5.0deg"
*MEAS_COND_AXIS_POSITION-22 "None"
*MEAS_COND_AXIS_POSITION-23 "13.0000000000"
*MEAS_COND_AXIS_POSITION-24 "13.0000000000"
*MEAS_COND_AXIS_POSITION-25 "0.0081300000"
*MEAS_COND_AXIS_POSITION-26 "Open"
*MEAS_COND_AXIS_POSITION-27 "None"
*MEAS_COND_AXIS_POSITION-28 "None"
*MEAS_COND_AXIS_POSITION-29 "None"
*MEAS_COND_AXIS_POSITION-30 "38.0000000000"
*MEAS_COND_AXIS_UNIT-0 "deg"
*MEAS_COND_AXIS_UNIT-1 "deg"
*MEAS_COND_AXIS_UNIT-2 "deg"
*MEAS_COND_AXIS_UNIT-3 "mm"
*MEAS_COND_AXIS_UNIT-4 "deg"
*MEAS_COND_AXIS_UNIT-5 "deg"
*MEAS_COND_AXIS_UNIT-6 "deg"
*MEAS_COND_AXIS_UNIT-7 "mm"
*MEAS_COND_AXIS_UNIT-8 ""
*MEAS_COND_AXIS_UNIT-9 "pulse"
*MEAS_COND_AXIS_UNIT-10 ""
*MEAS_COND_AXIS_UNIT-11 ""
*MEAS_COND_AXIS_UNIT-12 "mm"
*MEAS_COND_AXIS_UNIT-13 "mm"
*MEAS_COND_AXIS_UNIT-14 ""
*MEAS_COND_AXIS_UNIT-15 ""
*MEAS_COND_AXIS_UNIT-16 ""
*MEAS_COND_AXIS_UNIT-17 ""
*MEAS_COND_AXIS_UNIT-18 ""
*MEAS_COND_AXIS_UNIT-19 ""
*MEAS_COND_AXIS_UNIT-20 ""
*MEAS_COND_AXIS_UNIT-21 ""
*MEAS_COND_AXIS_UNIT-22 ""
*MEAS_COND_AXIS_UNIT-23 "mm"
*MEAS_COND_AXIS_UNIT-24 "mm"
*MEAS_COND_AXIS_UNIT-25 "mm"
*MEAS_COND_AXIS_UNIT-26 ""
*MEAS_COND_AXIS_UNIT-27 ""
*MEAS_COND_AXIS_UNIT-28 ""
*MEAS_COND_AXIS_UNIT-29 ""
*MEAS_COND_AXIS_UNIT-30 "div"
*MEAS_COND_COUNTER_CNTLOSS_CORR "0.0000000000"
*MEAS_COND_COUNTER_PHABASE "38.0000000000"
*MEAS_COND_COUNTER_PHAWINDOW "16.0000000000"
*MEAS_COND_COUNTER_PHA_UNIT "div"
*MEAS_COND_COUNTER_TAUDIFF "30.0000000000"
*MEAS_COND_COUNTER_TAUINT "0.0000000000"
*MEAS_COND_IRRADIATION_MODE "OFF"
*MEAS_COND_IRRADIATION_WIDTH ""
*MEAS_COND_OPT_ATTR "集中法"
*MEAS_COND_OPT_NAME "@集中法"
*MEAS_COND_UNSYMMETRIC_MODE "OFF"
*MEAS_COND_XG_CURRENT "30.0000000000"
*MEAS_COND_XG_VOLTAGE "40.0000000000"
*MEAS_COND_XG_WAVE_TYPE "Ka"
*MEAS_DATA_COUNT "5001.0000000000"
*MEAS_SCAN_AXIS_X "2θ/θ"
*MEAS_SCAN_AXIS_X_INTERNAL "TwoThetaTheta"
*MEAS_SCAN_END_TIME "07/09/22 17:24:59"
*MEAS_SCAN_MODE "CONTINUOUS"
*MEAS_SCAN_MONITOR "0"
*MEAS_SCAN_RESOLUTION_X "0.0002"
*MEAS_SCAN_SPEED "2.5"
*MEAS_SCAN_SPEED_UNIT "deg/min"
*MEAS_SCAN_START "20.0000000000"
*MEAS_SCAN_START_TIME "07/09/22 17:03:36"
*MEAS_SCAN_STEP "0.0100000000"
*MEAS_SCAN_STOP "70.0000000000"
*MEAS_SCAN_UNIT_X "deg"
*MEAS_SCAN_UNIT_Y "counts"
*RAS_HEADER_END
*RAS_INT_START
20.0000 1029.0000 1.0000
20.0100 984.0000 1.0000
20.0200 1024.0000 1.0000
20.0300 1023.0000 1.0000
20.0400 960.0000 1.0000
20.0500 1043.0000 1.0000
20.0600 1012.0000 1.0000
20.0700 1001.0000 1.0000
20.0800 1031.0000 1.0000
20.0900 1031.0000 1.0000
20.1000 994.0000 1.0000
20.1100 1032.0000 1.0000
20.1200 997.0000 1.0000
20.1300 984.0000 1.0000
20.1400 1006.0000 1.0000
20.1500 982.0000 1.0000
20.1600 1040.0000 1.0000
20.1700 975.0000 1.0000
20.1800 1006.0000 1.0000
20.1900 1006.0000 1.0000
20.2000 1002.0000 1.0000
20.2100 1037.0000 1.0000
20.2200 995.0000 1.0000
20.2300 974.0000 1.0000
20.2400 1017.0000 1.0000
20.2500 1010.0000 1.0000
20.2600 971.0000 1.0000
20.2700 1023.0000 1.0000
20.2800 997.0000 1.0000
20.2900 1010.0000 1.0000
20.3000 993.0000 1.0000
20.3100 989.0000 1.0000
20.3200 991.0000 1.0000
20.3300 1023.0000 1.0000
20.3400 1013.0000 1.0000
20.3500 993.0000 1.0000
20.3600 1006.0000 1.0000
20.3700 993.0000 1.0000
20.3800 1004.0000 1.0000
20.3900 974.0000 1.0000
20.4000 980.0000 1.0000
20.4100 950.0000 1.0000
20.4200 1032.0000 1.0000
20.4300 973.0000 1.0000
20.4400 979.0000 1.0000
20.4500 966.0000 1.0000
20.4600 963.0000 1.0000
20.4700 1001.0000 1.0000
20.4800 1004.0000 1.0000
20.4900 987.0000 1.0000
20.5000 953.0000 1.0000
20.5100 1021.0000 1.0000
20.5200 1009.0000 1.0000
20.5300 975.0000 1.0000
20.5400 976.0000 1.0000
20.5500 969.0000 1.0000
20.5600 1002.0000 1.0000
20.5700 969.0000 1.0000
20.5800 984.0000 1.0000
20.5900 1010.0000 1.0000
20.6000 969.0000 1.0000
20.6100 990.0000 1.0000
20.6200 957.0000 1.0000
20.6300 1004.0000 1.0000
20.6400 989.0000 1.0000
20.6500 951.0000 1.0000
20.6600 986.0000 1.0000
20.6700 999.0000 1.0000
20.6800 938.0000 1.0000
20.6900 951.0000 1.0000
20.7000 965.0000 1.0000
20.7100 1008.0000 1.0000
20.7200 1054.0000 1.0000
20.7300 983.0000 1.0000
20.7400 1080.0000 1.0000
20.7500 1033.0000 1.0000
20.7600 971.0000 1.0000
20.7700 978.0000 1.0000
20.7800 964.0000 1.0000
20.7900 950.0000 1.0000
20.8000 961.0000 1.0000
20.8100 992.0000 1.0000
20.8200 934.0000 1.0000
20.8300 961.0000 1.0000
20.8400 1010.0000 1.0000
20.8500 1014.0000 1.0000
20.8600 979.0000 1.0000
20.8700 975.0000 1.0000
20.8800 976.0000 1.0000
20.8900 1007.0000 1.0000
20.9000 1014.0000 1.0000
20.9100 978.0000 1.0000
20.9200 968.0000 1.0000
20.9300 971.0000 1.0000
20.9400 979.0000 1.0000
20.9500 1009.0000 1.0000
20.9600 993.0000 1.0000
20.9700 945.0000 1.0000
20.9800 948.0000 1.0000
20.9900 1026.0000 1.0000
21.0000 975.0000 1.0000
21.0100 979.0000 1.0000
21.0200 978.0000 1.0000
21.0300 987.0000 1.0000
21.0400 988.0000 1.0000
21.0500 967.0000 1.0000
21.0600 974.0000 1.0000
21.0700 993.0000 1.0000
21.0800 939.0000 1.0000
21.0900 983.0000 1.0000
21.1000 1045.0000 1.0000
21.1100 1004.0000 1.0000
21.1200 982.0000 1.0000
21.1300 933.0000 1.0000
21.1400 973.0000 1.0000
21.1500 959.0000 1.0000
21.1600 982.0000 1.0000
21.1700 1046.0000 1.0000
21.1800 985.0000 1.0000
21.1900 932.0000 1.0000
21.2000 976.0000 1.0000
21.2100 990.0000 1.0000
21.2200 1026.0000 1.0000
21.2300 999.0000 1.0000
21.2400 962.0000 1.0000
21.2500 1048.0000 1.0000
21.2600 1008.0000 1.0000
21.2700 978.0000 1.0000
21.2800 992.0000 1.0000
21.2900 1021.0000 1.0000
21.3000 1008.0000 1.0000
21.3100 1023.0000 1.0000
21.3200 1019.0000 1.0000
21.3300 1025.0000 1.0000
21.3400 984.0000 1.0000
21.3500 1026.0000 1.0000
21.3600 973.0000 1.0000
21.3700 1024.0000 1.0000
21.3800 966.0000 1.0000
21.3900 963.0000 1.0000
21.4000 992.0000 1.0000
21.4100 1007.0000 1.0000
21.4200 994.0000 1.0000
21.4300 994.0000 1.0000
21.4400 994.0000 1.0000
21.4500 978.0000 1.0000
21.4600 933.0000 1.0000
21.4700 1001.0000 1.0000
21.4800 1031.0000 1.0000
21.4900 1000.0000 1.0000
21.5000 941.0000 1.0000
21.5100 961.0000 1.0000
21.5200 1068.0000 1.0000
21.5300 984.0000 1.0000
21.5400 1007.0000 1.0000
21.5500 994.0000 1.0000
21.5600 1005.0000 1.0000
21.5700 991.0000 1.0000
21.5800 979.0000 1.0000
21.5900 989.0000 1.0000
21.6000 1000.0000 1.0000
21.6100 1023.0000 1.0000
21.6200 1040.0000 1.0000
21.6300 1001.0000 1.0000
21.6400 977.0000 1.0000
21.6500 972.0000 1.0000
21.6600 982.0000 1.0000
21.6700 984.0000 1.0000
21.6800 985.0000 1.0000
21.6900 956.0000 1.0000
21.7000 1018.0000 1.0000
21.7100 970.0000 1.0000
21.7200 975.0000 1.0000
21.7300 971.0000 1.0000
21.7400 962.0000 1.0000
21.7500 987.0000 1.0000
21.7600 967.0000 1.0000
21.7700 1002.0000 1.0000
21.7800 1035.0000 1.0000
21.7900 1031.0000 1.0000
21.8000 977.0000 1.0000
21.8100 946.0000 1.0000
21.8200 1014.0000 1.0000
21.8300 1008.0000 1.0000
21.8400 1013.0000 1.0000
21.8500 991.0000 1.0000
21.8600 1004.0000 1.0000
21.8700 948.0000 1.0000
21.8800 1001.0000 1.0000
21.8900 981.0000 1.0000
21.9000 1000.0000 1.0000
21.9100 938.0000 1.0000
21.9200 1002.0000 1.0000
21.9300 979.0000 1.0000
21.9400 1001.0000 1.0000
21.9500 985.0000 1.0000
21.9600 1037.0000 1.0000
21.9700 1011.0000 1.0000
21.9800 1004.0000 1.0000
21.9900 941.0000 1.0000
22.0000 972.0000 1.0000
22.0100 1007.0000 1.0000
22.0200 1043.0000 1.0000
22.0300 978.0000 1.0000
22.0400 1003.0000 1.0000
22.0500 953.0000 1.0000
22.0600 948.0000 1.0000
22.0700 976.0000 1.0000
22.0800 1030.0000 1.0000
22.0900 966.0000 1.0000
22.1000 1006.0000 1.0000
22.1100 1015.0000 1.0000
22.1200 1005.0000 1.0000
22.1300 923.0000 1.0000
22.1400 979.0000 1.0000
22.1500 991.0000 1.0000
22.1600 1010.0000 1.0000
22.1700 971.0000 1.0000
22.1800 949.0000 1.0000
22.1900 985.0000 1.0000
22.2000 945.0000 1.0000
22.2100 996.0000 1.0000
22.2200 934.0000 1.0000
22.2300 987.0000 1.0000
22.2400 1004.0000 1.0000
22.2500 1027.0000 1.0000
22.2600 937.0000 1.0000
22.2700 951.0000 1.0000
22.2800 997.0000 1.0000
22.2900 1038.0000 1.0000
22.3000 1022.0000 1.0000
22.3100 1006.0000 1.0000
22.3200 980.0000 1.0000
22.3300 1010.0000 1.0000
22.3400 985.0000 1.0000
22.3500 1022.0000 1.0000
22.3600 961.0000 1.0000
22.3700 971.0000 1.0000
22.3800 948.0000 1.0000
22.3900 1020.0000 1.0000
22.4000 997.0000 1.0000
22.4100 983.0000 1.0000
22.4200 960.0000 1.0000
22.4300 971.0000 1.0000
22.4400 970.0000 1.0000
22.4500 959.0000 1.0000
22.4600 1000.0000 1.0000
22.4700 978.0000 1.0000
22.4800 974.0000 1.0000
22.4900 991.0000 1.0000
22.5000 971.0000 1.0000
22.5100 993.0000 1.0000
22.5200 1003.0000 1.0000
22.5300 969.0000 1.0000
22.5400 976.0000 1.0000
22.5500 1028.0000 1.0000
22.5600 1013.0000 1.0000
22.5700 978.0000 1.0000
22.5800 953.0000 1.0000
22.5900 938.0000 1.0000
22.6000 983.0000 1.0000
22.6100 960.0000 1.0000
22.6200 966.0000 1.0000
22.6300 1012.0000 1.0000
22.6400 987.0000 1.0000
22.6500 987.0000 1.0000
22.6600 998.0000 1.0000
22.6700 1009.0000 1.0000
22.6800 956.0000 1.0000
22.6900 1010.0000 1.0000
22.7000 970.0000 1.0000
22.7100 997.0000 1.0000
22.7200 983.0000 1.0000
22.7300 968.0000 1.0000
22.7400 972.0000 1.0000
22.7500 968.0000 1.0000
22.7600 1000.0000 1.0000
22.7700 989.0000 1.0000
22.7800 924.0000 1.0000
22.7900 955.0000 1.0000
22.8000 995.0000 1.0000
22.8100 1027.0000 1.0000
22.8200 976.0000 1.0000
22.8300 975.0000 1.0000
22.8400 1000.0000 1.0000
22.8500 1025.0000 1.0000
22.8600 988.0000 1.0000
22.8700 998.0000 1.0000
22.8800 922.0000 1.0000
22.8900 986.0000 1.0000
22.9000 1002.0000 1.0000
22.9100 971.0000 1.0000
22.9200 954.0000 1.0000
22.9300 952.0000 1.0000
22.9400 994.0000 1.0000
22.9500 959.0000 1.0000
22.9600 1006.0000 1.0000
22.9700 995.0000 1.0000
22.9800 1008.0000 1.0000
22.9900 968.0000 1.0000
23.0000 951.0000 1.0000
23.0100 940.0000 1.0000
23.0200 947.0000 1.0000
23.0300 968.0000 1.0000
23.0400 1018.0000 1.0000
23.0500 1018.0000 1.0000
23.0600 987.0000 1.0000
23.0700 974.0000 1.0000
23.0800 956.0000 1.0000
23.0900 912.0000 1.0000
23.1000 969.0000 1.0000
23.1100 978.0000 1.0000
23.1200 1000.0000 1.0000
23.1300 991.0000 1.0000
23.1400 945.0000 1.0000
23.1500 952.0000 1.0000
23.1600 989.0000 1.0000
23.1700 983.0000 1.0000
23.1800 977.0000 1.0000
23.1900 974.0000 1.0000
23.2000 982.0000 1.0000
23.2100 1043.0000 1.0000
23.2200 1024.0000 1.0000
23.2300 999.0000 1.0000
23.2400 978.0000 1.0000
23.2500 1034.0000 1.0000
23.2600 1008.0000 1.0000
23.2700 948.0000 1.0000
23.2800 963.0000 1.0000
23.2900 981.0000 1.0000
23.3000 930.0000 1.0000
23.3100 970.0000 1.0000
23.3200 958.0000 1.0000
23.3300 946.0000 1.0000
23.3400 966.0000 1.0000
23.3500 965.0000 1.0000
23.3600 960.0000 1.0000
23.3700 947.0000 1.0000
23.3800 964.0000 1.0000
23.3900 934.0000 1.0000
23.4000 943.0000 1.0000
23.4100 1014.0000 1.0000
23.4200 978.0000 1.0000
23.4300 944.0000 1.0000
23.4400 972.0000 1.0000
23.4500 972.0000 1.0000
23.4600 1021.0000 1.0000
23.4700 976.0000 1.0000
23.4800 1001.0000 1.0000
23.4900 980.0000 1.0000
23.5000 927.0000 1.0000
23.5100 960.0000 1.0000
23.5200 949.0000 1.0000
23.5300 990.0000 1.0000
23.5400 951.0000 1.0000
23.5500 1002.0000 1.0000
23.5600 1018.0000 1.0000
23.5700 952.0000 1.0000
23.5800 977.0000 1.0000
23.5900 975.0000 1.0000
23.6000 1036.0000 1.0000
23.6100 994.0000 1.0000
23.6200 990.0000 1.0000
23.6300 1017.0000 1.0000
23.6400 992.0000 1.0000
23.6500 996.0000 1.0000
23.6600 985.0000 1.0000
23.6700 959.0000 1.0000
23.6800 1001.0000 1.0000
23.6900 970.0000 1.0000
23.7000 1024.0000 1.0000
23.7100 981.0000 1.0000
23.7200 981.0000 1.0000
23.7300 973.0000 1.0000
23.7400 996.0000 1.0000
23.7500 1030.0000 1.0000
23.7600 1048.0000 1.0000
23.7700 981.0000 1.0000
23.7800 978.0000 1.0000
23.7900 981.0000 1.0000
23.8000 967.0000 1.0000
23.8100 1028.0000 1.0000
23.8200 1045.0000 1.0000
23.8300 991.0000 1.0000
23.8400 985.0000 1.0000
23.8500 1025.0000 1.0000
23.8600 1003.0000 1.0000
23.8700 973.0000 1.0000
23.8800 1043.0000 1.0000
23.8900 1038.0000 1.0000
23.9000 1026.0000 1.0000
23.9100 991.0000 1.0000
23.9200 1039.0000 1.0000
23.9300 1026.0000 1.0000
23.9400 1029.0000 1.0000
23.9500 999.0000 1.0000
23.9600 1034.0000 1.0000
23.9700 1028.0000 1.0000
23.9800 1050.0000 1.0000
23.9900 1079.0000 1.0000
24.0000 1074.0000 1.0000
24.0100 1106.0000 1.0000
24.0200 1077.0000 1.0000
24.0300 1074.0000 1.0000
24.0400 1077.0000 1.0000
24.0500 1136.0000 1.0000
24.0600 1107.0000 1.0000
24.0700 1098.0000 1.0000
24.0800 1075.0000 1.0000
24.0900 1104.0000 1.0000
24.1000 1137.0000 1.0000
24.1100 1131.0000 1.0000
24.1200 1072.0000 1.0000
24.1300 1078.0000 1.0000
24.1400 1129.0000 1.0000
24.1500 1091.0000 1.0000
24.1600 1027.0000 1.0000
24.1700 1043.0000 1.0000
24.1800 1045.0000 1.0000
24.1900 1015.0000 1.0000
24.2000 1077.0000 1.0000
24.2100 1035.0000 1.0000
24.2200 1021.0000 1.0000
24.2300 1017.0000 1.0000
24.2400 1008.0000 1.0000
24.2500 1006.0000 1.0000
24.2600 1043.0000 1.0000
24.2700 1053.0000 1.0000
24.2800 1035.0000 1.0000
24.2900 1016.0000 1.0000
24.3000 966.0000 1.0000
24.3100 1007.0000 1.0000
24.3200 1005.0000 1.0000
24.3300 1008.0000 1.0000
24.3400 999.0000 1.0000
24.3500 1000.0000 1.0000
24.3600 1033.0000 1.0000
24.3700 1016.0000 1.0000
24.3800 997.0000 1.0000
24.3900 1017.0000 1.0000
24.4000 985.0000 1.0000
24.4100 991.0000 1.0000
24.4200 974.0000 1.0000
24.4300 972.0000 1.0000
24.4400 1003.0000 1.0000
24.4500 979.0000 1.0000
24.4600 969.0000 1.0000
24.4700 964.0000 1.0000
24.4800 1012.0000 1.0000
24.4900 1000.0000 1.0000
24.5000 977.0000 1.0000
24.5100 995.0000 1.0000
24.5200 972.0000 1.0000
24.5300 977.0000 1.0000
24.5400 1020.0000 1.0000
24.5500 1000.0000 1.0000
24.5600 988.0000 1.0000
24.5700 995.0000 1.0000
24.5800 987.0000 1.0000
24.5900 963.0000 1.0000
24.6000 973.0000 1.0000
24.6100 964.0000 1.0000
24.6200 894.0000 1.0000
24.6300 947.0000 1.0000
24.6400 983.0000 1.0000
24.6500 1014.0000 1.0000
24.6600 982.0000 1.0000
24.6700 970.0000 1.0000
24.6800 945.0000 1.0000
24.6900 959.0000 1.0000
24.7000 996.0000 1.0000
24.7100 971.0000 1.0000
24.7200 915.0000 1.0000
24.7300 971.0000 1.0000
24.7400 927.0000 1.0000
24.7500 979.0000 1.0000
24.7600 1009.0000 1.0000
24.7700 926.0000 1.0000
24.7800 968.0000 1.0000
24.7900 906.0000 1.0000
24.8000 965.0000 1.0000
24.8100 965.0000 1.0000
24.8200 980.0000 1.0000
24.8300 998.0000 1.0000
24.8400 991.0000 1.0000
24.8500 1013.0000 1.0000
24.8600 997.0000 1.0000
24.8700 986.0000 1.0000
24.8800 949.0000 1.0000
24.8900 981.0000 1.0000
24.9000 990.0000 1.0000
24.9100 978.0000 1.0000
24.9200 992.0000 1.0000
24.9300 984.0000 1.0000
24.9400 983.0000 1.0000
24.9500 1007.0000 1.0000
24.9600 956.0000 1.0000
24.9700 968.0000 1.0000
24.9800 1011.0000 1.0000
24.9900 999.0000 1.0000
25.0000 957.0000 1.0000
25.0100 895.0000 1.0000
25.0200 997.0000 1.0000
25.0300 976.0000 1.0000
25.0400 992.0000 1.0000
25.0500 959.0000 1.0000
25.0600 991.0000 1.0000
25.0700 988.0000 1.0000
25.0800 973.0000 1.0000
25.0900 968.0000 1.0000
25.1000 918.0000 1.0000
25.1100 945.0000 1.0000
25.1200 979.0000 1.0000
25.1300 947.0000 1.0000
25.1400 906.0000 1.0000
25.1500 967.0000 1.0000
25.1600 947.0000 1.0000
25.1700 954.0000 1.0000
25.1800 1017.0000 1.0000
25.1900 959.0000 1.0000
25.2000 1015.0000 1.0000
25.2100 989.0000 1.0000
25.2200 952.0000 1.0000
25.2300 946.0000 1.0000
25.2400 946.0000 1.0000
25.2500 960.0000 1.0000
25.2600 974.0000 1.0000
25.2700 962.0000 1.0000
25.2800 936.0000 1.0000
25.2900 970.0000 1.0000
25.3000 1003.0000 1.0000
25.3100 923.0000 1.0000
25.3200 933.0000 1.0000
25.3300 955.0000 1.0000
25.3400 963.0000 1.0000
25.3500 955.0000 1.0000
25.3600 1012.0000 1.0000
25.3700 962.0000 1.0000
25.3800 952.0000 1.0000
25.3900 989.0000 1.0000
25.4000 964.0000 1.0000
25.4100 976.0000 1.0000
25.4200 929.0000 1.0000
25.4300 958.0000 1.0000
25.4400 937.0000 1.0000
25.4500 943.0000 1.0000
25.4600 959.0000 1.0000
25.4700 952.0000 1.0000
25.4800 941.0000 1.0000
25.4900 963.0000 1.0000
25.5000 1000.0000 1.0000
25.5100 939.0000 1.0000
25.5200 958.0000 1.0000
25.5300 918.0000 1.0000
25.5400 984.0000 1.0000
25.5500 932.0000 1.0000
25.5600 998.0000 1.0000
25.5700 1014.0000 1.0000
25.5800 972.0000 1.0000
25.5900 1001.0000 1.0000
25.6000 970.0000 1.0000
25.6100 990.0000 1.0000
25.6200 927.0000 1.0000
25.6300 944.0000 1.0000
25.6400 954.0000 1.0000
25.6500 965.0000 1.0000
25.6600 996.0000 1.0000
25.6700 974.0000 1.0000
25.6800 969.0000 1.0000
25.6900 1002.0000 1.0000
25.7000 998.0000 1.0000
25.7100 983.0000 1.0000
25.7200 977.0000 1.0000
25.7300 986.0000 1.0000
25.7400 1003.0000 1.0000
25.7500 1070.0000 1.0000
25.7600 991.0000 1.0000
25.7700 1011.0000 1.0000
25.7800 1055.0000 1.0000
25.7900 1022.0000 1.0000
25.8000 963.0000 1.0000
25.8100 1007.0000 1.0000
25.8200 940.0000 1.0000
25.8300 1027.0000 1.0000
25.8400 1031.0000 1.0000
25.8500 1059.0000 1.0000
25.8600 1045.0000 1.0000
25.8700 1044.0000 1.0000
25.8800 994.0000 1.0000
25.8900 1038.0000 1.0000
25.9000 1004.0000 1.0000
25.9100 999.0000 1.0000
25.9200 1042.0000 1.0000
25.9300 1047.0000 1.0000
25.9400 1038.0000 1.0000
25.9500 1027.0000 1.0000
25.9600 1053.0000 1.0000
25.9700 1059.0000 1.0000
25.9800 1046.0000 1.0000
25.9900 1041.0000 1.0000
26.0000 1061.0000 1.0000
26.0100 1073.0000 1.0000
26.0200 1070.0000 1.0000
26.0300 1113.0000 1.0000
26.0400 1039.0000 1.0000
26.0500 1124.0000 1.0000
26.0600 1163.0000 1.0000
26.0700 1097.0000 1.0000
26.0800 1171.0000 1.0000
26.0900 1131.0000 1.0000
26.1000 1183.0000 1.0000
26.1100 1207.0000 1.0000
26.1200 1214.0000 1.0000
26.1300 1192.0000 1.0000
26.1400 1241.0000 1.0000
26.1500 1276.0000 1.0000
26.1600 1310.0000 1.0000
26.1700 1425.0000 1.0000
26.1800 1281.0000 1.0000
26.1900 1379.0000 1.0000
26.2000 1468.0000 1.0000
26.2100 1499.0000 1.0000
26.2200 1551.0000 1.0000
26.2300 1521.0000 1.0000
26.2400 1635.0000 1.0000
26.2500 1690.0000 1.0000
26.2600 1721.0000 1.0000
26.2700 1805.0000 1.0000
26.2800 1838.0000 1.0000
26.2900 2015.0000 1.0000
26.3000 2050.0000 1.0000
26.3100 2164.0000 1.0000
26.3200 2242.0000 1.0000
26.3300 2463.0000 1.0000
26.3400 2509.0000 1.0000
26.3500 2639.0000 1.0000
26.3600 2939.0000 1.0000
26.3700 2964.0000 1.0000
26.3800 3105.0000 1.0000
26.3900 3274.0000 1.0000
26.4000 3523.0000 1.0000
26.4100 3673.0000 1.0000
26.4200 3709.0000 1.0000
26.4300 3792.0000 1.0000
26.4400 3649.0000 1.0000
26.4500 3763.0000 1.0000
26.4600 3684.0000 1.0000
26.4700 3559.0000 1.0000
26.4800 3479.0000 1.0000
26.4900 3307.0000 1.0000
26.5000 3197.0000 1.0000
26.5100 3079.0000 1.0000
26.5200 2909.0000 1.0000
26.5300 2683.0000 1.0000
26.5400 2581.0000 1.0000
26.5500 2360.0000 1.0000
26.5600 2289.0000 1.0000
26.5700 2215.0000 1.0000
26.5800 2056.0000 1.0000
26.5900 1948.0000 1.0000
26.6000 1876.0000 1.0000
26.6100 1865.0000 1.0000
26.6200 1722.0000 1.0000
26.6300 1664.0000 1.0000
26.6400 1611.0000 1.0000
26.6500 1531.0000 1.0000
26.6600 1482.0000 1.0000
26.6700 1419.0000 1.0000
26.6800 1464.0000 1.0000
26.6900 1391.0000 1.0000
26.7000 1347.0000 1.0000
26.7100 1302.0000 1.0000
26.7200 1252.0000 1.0000
26.7300 1231.0000 1.0000
26.7400 1252.0000 1.0000
26.7500 1234.0000 1.0000
26.7600 1204.0000 1.0000
26.7700 1164.0000 1.0000
26.7800 1148.0000 1.0000
26.7900 1160.0000 1.0000
26.8000 1147.0000 1.0000
26.8100 1099.0000 1.0000
26.8200 1093.0000 1.0000
26.8300 1061.0000 1.0000
26.8400 1102.0000 1.0000
26.8500 1141.0000 1.0000
26.8600 1051.0000 1.0000
26.8700 1064.0000 1.0000
26.8800 1042.0000 1.0000
26.8900 1016.0000 1.0000
26.9000 1008.0000 1.0000
26.9100 1034.0000 1.0000
26.9200 1029.0000 1.0000
26.9300 1039.0000 1.0000
26.9400 1069.0000 1.0000
26.9500 1017.0000 1.0000
26.9600 1069.0000 1.0000
26.9700 1029.0000 1.0000
26.9800 992.0000 1.0000
26.9900 985.0000 1.0000
27.0000 1001.0000 1.0000
27.0100 968.0000 1.0000
27.0200 962.0000 1.0000
27.0300 970.0000 1.0000
27.0400 940.0000 1.0000
27.0500 952.0000 1.0000
27.0600 935.0000 1.0000
27.0700 933.0000 1.0000
27.0800 948.0000 1.0000
27.0900 973.0000 1.0000
27.1000 1006.0000 1.0000
27.1100 998.0000 1.0000
27.1200 948.0000 1.0000
27.1300 946.0000 1.0000
27.1400 929.0000 1.0000
27.1500 944.0000 1.0000
27.1600 948.0000 1.0000
27.1700 986.0000 1.0000
27.1800 959.0000 1.0000
27.1900 901.0000 1.0000
27.2000 932.0000 1.0000
27.2100 875.0000 1.0000
27.2200 884.0000 1.0000
27.2300 917.0000 1.0000
27.2400 942.0000 1.0000
27.2500 913.0000 1.0000
27.2600 1001.0000 1.0000
27.2700 911.0000 1.0000
27.2800 937.0000 1.0000
27.2900 934.0000 1.0000
27.3000 907.0000 1.0000
27.3100 877.0000 1.0000
27.3200 921.0000 1.0000
27.3300 879.0000 1.0000
27.3400 901.0000 1.0000
27.3500 915.0000 1.0000
27.3600 892.0000 1.0000
27.3700 890.0000 1.0000
27.3800 915.0000 1.0000
27.3900 886.0000 1.0000
27.4000 932.0000 1.0000
27.4100 930.0000 1.0000
27.4200 914.0000 1.0000
27.4300 931.0000 1.0000
27.4400 959.0000 1.0000
27.4500 883.0000 1.0000
27.4600 894.0000 1.0000
27.4700 883.0000 1.0000
27.4800 920.0000 1.0000
27.4900 897.0000 1.0000
27.5000 934.0000 1.0000
27.5100 896.0000 1.0000
27.5200 889.0000 1.0000
27.5300 906.0000 1.0000
27.5400 879.0000 1.0000
27.5500 929.0000 1.0000
27.5600 953.0000 1.0000
27.5700 919.0000 1.0000
27.5800 925.0000 1.0000
27.5900 853.0000 1.0000
27.6000 881.0000 1.0000
27.6100 910.0000 1.0000
27.6200 915.0000 1.0000
27.6300 900.0000 1.0000
27.6400 873.0000 1.0000
27.6500 873.0000 1.0000
27.6600 911.0000 1.0000
27.6700 890.0000 1.0000
27.6800 873.0000 1.0000
27.6900 869.0000 1.0000
27.7000 923.0000 1.0000
27.7100 898.0000 1.0000
27.7200 899.0000 1.0000
27.7300 885.0000 1.0000
27.7400 869.0000 1.0000
27.7500 887.0000 1.0000
27.7600 887.0000 1.0000
27.7700 860.0000 1.0000
27.7800 865.0000 1.0000
27.7900 829.0000 1.0000
27.8000 911.0000 1.0000
27.8100 893.0000 1.0000
27.8200 864.0000 1.0000
27.8300 864.0000 1.0000
27.8400 889.0000 1.0000
27.8500 867.0000 1.0000
27.8600 868.0000 1.0000
27.8700 830.0000 1.0000
27.8800 825.0000 1.0000
27.8900 870.0000 1.0000
27.9000 892.0000 1.0000
27.9100 865.0000 1.0000
27.9200 850.0000 1.0000
27.9300 884.0000 1.0000
27.9400 847.0000 1.0000
27.9500 832.0000 1.0000
27.9600 860.0000 1.0000
27.9700 912.0000 1.0000
27.9800 894.0000 1.0000
27.9900 842.0000 1.0000
28.0000 851.0000 1.0000
28.0100 837.0000 1.0000
28.0200 846.0000 1.0000
28.0300 930.0000 1.0000
28.0400 913.0000 1.0000
28.0500 866.0000 1.0000
28.0600 888.0000 1.0000
28.0700 881.0000 1.0000
28.0800 831.0000 1.0000
28.0900 843.0000 1.0000
28.1000 877.0000 1.0000
28.1100 871.0000 1.0000
28.1200 856.0000 1.0000
28.1300 913.0000 1.0000
28.1400 842.0000 1.0000
28.1500 881.0000 1.0000
28.1600 913.0000 1.0000
28.1700 878.0000 1.0000
28.1800 863.0000 1.0000
28.1900 846.0000 1.0000
28.2000 889.0000 1.0000
28.2100 891.0000 1.0000
28.2200 833.0000 1.0000
28.2300 827.0000 1.0000
28.2400 824.0000 1.0000
28.2500 813.0000 1.0000
28.2600 866.0000 1.0000
28.2700 842.0000 1.0000
28.2800 848.0000 1.0000
28.2900 897.0000 1.0000
28.3000 852.0000 1.0000
28.3100 916.0000 1.0000
28.3200 889.0000 1.0000
28.3300 893.0000 1.0000
28.3400 864.0000 1.0000
28.3500 853.0000 1.0000
28.3600 836.0000 1.0000
28.3700 842.0000 1.0000
28.3800 871.0000 1.0000
28.3900 894.0000 1.0000
28.4000 863.0000 1.0000
28.4100 885.0000 1.0000
28.4200 839.0000 1.0000
28.4300 818.0000 1.0000
28.4400 824.0000 1.0000
28.4500 842.0000 1.0000
28.4600 848.0000 1.0000
28.4700 841.0000 1.0000
28.4800 821.0000 1.0000
28.4900 830.0000 1.0000
28.5000 859.0000 1.0000
28.5100 802.0000 1.0000
28.5200 870.0000 1.0000
28.5300 839.0000 1.0000
28.5400 862.0000 1.0000
28.5500 815.0000 1.0000
28.5600 870.0000 1.0000
28.5700 843.0000 1.0000
28.5800 881.0000 1.0000
28.5900 847.0000 1.0000
28.6000 826.0000 1.0000
28.6100 863.0000 1.0000
28.6200 835.0000 1.0000
28.6300 838.0000 1.0000
28.6400 794.0000 1.0000
28.6500 855.0000 1.0000
28.6600 820.0000 1.0000
28.6700 823.0000 1.0000
28.6800 823.0000 1.0000
28.6900 814.0000 1.0000
28.7000 829.0000 1.0000
28.7100 837.0000 1.0000
28.7200 838.0000 1.0000
28.7300 829.0000 1.0000
28.7400 821.0000 1.0000
28.7500 854.0000 1.0000
28.7600 859.0000 1.0000
28.7700 803.0000 1.0000
28.7800 832.0000 1.0000
28.7900 823.0000 1.0000
28.8000 803.0000 1.0000
28.8100 790.0000 1.0000
28.8200 827.0000 1.0000
28.8300 839.0000 1.0000
28.8400 822.0000 1.0000
28.8500 856.0000 1.0000
28.8600 858.0000 1.0000
28.8700 839.0000 1.0000
28.8800 800.0000 1.0000
28.8900 839.0000 1.0000
28.9000 859.0000 1.0000
28.9100 830.0000 1.0000
28.9200 829.0000 1.0000
28.9300 827.0000 1.0000
28.9400 814.0000 1.0000
28.9500 883.0000 1.0000
28.9600 856.0000 1.0000
28.9700 817.0000 1.0000
28.9800 841.0000 1.0000
28.9900 846.0000 1.0000
29.0000 836.0000 1.0000
29.0100 822.0000 1.0000
29.0200 849.0000 1.0000
29.0300 847.0000 1.0000
29.0400 819.0000 1.0000
29.0500 861.0000 1.0000
29.0600 865.0000 1.0000
29.0700 840.0000 1.0000
29.0800 827.0000 1.0000
29.0900 896.0000 1.0000
29.1000 834.0000 1.0000
29.1100 853.0000 1.0000
29.1200 788.0000 1.0000
29.1300 831.0000 1.0000
29.1400 818.0000 1.0000
29.1500 797.0000 1.0000
29.1600 819.0000 1.0000
29.1700 849.0000 1.0000
29.1800 795.0000 1.0000
29.1900 825.0000 1.0000
29.2000 787.0000 1.0000
29.2100 804.0000 1.0000
29.2200 792.0000 1.0000
29.2300 840.0000 1.0000
29.2400 831.0000 1.0000
29.2500 804.0000 1.0000
29.2600 782.0000 1.0000
29.2700 791.0000 1.0000
29.2800 807.0000 1.0000
29.2900 836.0000 1.0000
29.3000 806.0000 1.0000
29.3100 770.0000 1.0000
29.3200 795.0000 1.0000
29.3300 861.0000 1.0000
29.3400 820.0000 1.0000
29.3500 819.0000 1.0000
29.3600 820.0000 1.0000
29.3700 759.0000 1.0000
29.3800 821.0000 1.0000
29.3900 803.0000 1.0000
29.4000 791.0000 1.0000
29.4100 797.0000 1.0000
29.4200 777.0000 1.0000
29.4300 824.0000 1.0000
29.4400 846.0000 1.0000
29.4500 815.0000 1.0000
29.4600 825.0000 1.0000
29.4700 819.0000 1.0000
29.4800 775.0000 1.0000
29.4900 782.0000 1.0000
29.5000 852.0000 1.0000
29.5100 803.0000 1.0000
29.5200 833.0000 1.0000
29.5300 751.0000 1.0000
29.5400 817.0000 1.0000
29.5500 814.0000 1.0000
29.5600 809.0000 1.0000
29.5700 794.0000 1.0000
29.5800 840.0000 1.0000
29.5900 800.0000 1.0000
29.6000 802.0000 1.0000
29.6100 779.0000 1.0000
29.6200 785.0000 1.0000
29.6300 784.0000 1.0000
29.6400 813.0000 1.0000
29.6500 787.0000 1.0000
29.6600 794.0000 1.0000
29.6700 792.0000 1.0000
29.6800 792.0000 1.0000
29.6900 822.0000 1.0000
29.7000 829.0000 1.0000
29.7100 795.0000 1.0000
29.7200 761.0000 1.0000
29.7300 766.0000 1.0000
29.7400 763.0000 1.0000
29.7500 783.0000 1.0000
29.7600 776.0000 1.0000
29.7700 799.0000 1.0000
29.7800 784.0000 1.0000
29.7900 821.0000 1.0000
29.8000 746.0000 1.0000
29.8100 795.0000 1.0000
29.8200 807.0000 1.0000
29.8300 821.0000 1.0000
29.8400 747.0000 1.0000
29.8500 840.0000 1.0000
29.8600 726.0000 1.0000
29.8700 786.0000 1.0000
29.8800 788.0000 1.0000
29.8900 788.0000 1.0000
29.9000 747.0000 1.0000
29.9100 771.0000 1.0000
29.9200 770.0000 1.0000
29.9300 795.0000 1.0000
29.9400 818.0000 1.0000
29.9500 820.0000 1.0000
29.9600 781.0000 1.0000
29.9700 744.0000 1.0000
29.9800 795.0000 1.0000
29.9900 813.0000 1.0000
30.0000 819.0000 1.0000
30.0100 786.0000 1.0000
30.0200 836.0000 1.0000
30.0300 770.0000 1.0000
30.0400 771.0000 1.0000
30.0500 756.0000 1.0000
30.0600 789.0000 1.0000
30.0700 778.0000 1.0000
30.0800 790.0000 1.0000
30.0900 740.0000 1.0000
30.1000 803.0000 1.0000
30.1100 813.0000 1.0000
30.1200 743.0000 1.0000
30.1300 786.0000 1.0000
30.1400 769.0000 1.0000
30.1500 763.0000 1.0000
30.1600 745.0000 1.0000
30.1700 783.0000 1.0000
30.1800 775.0000 1.0000
30.1900 754.0000 1.0000
30.2000 771.0000 1.0000
30.2100 781.0000 1.0000
30.2200 804.0000 1.0000
30.2300 787.0000 1.0000
30.2400 758.0000 1.0000
30.2500 788.0000 1.0000
30.2600 821.0000 1.0000
30.2700 798.0000 1.0000
30.2800 800.0000 1.0000
30.2900 781.0000 1.0000
30.3000 749.0000 1.0000
30.3100 766.0000 1.0000
30.3200 744.0000 1.0000
30.3300 779.0000 1.0000
30.3400 810.0000 1.0000
30.3500 784.0000 1.0000
30.3600 807.0000 1.0000
30.3700 808.0000 1.0000
30.3800 814.0000 1.0000
30.3900 821.0000 1.0000
30.4000 776.0000 1.0000
30.4100 755.0000 1.0000
30.4200 795.0000 1.0000
30.4300 803.0000 1.0000
30.4400 775.0000 1.0000
30.4500 825.0000 1.0000
30.4600 788.0000 1.0000
30.4700 784.0000 1.0000
30.4800 782.0000 1.0000
30.4900 786.0000 1.0000
30.5000 740.0000 1.0000
30.5100 761.0000 1.0000
30.5200 771.0000 1.0000
30.5300 781.0000 1.0000
30.5400 810.0000 1.0000
30.5500 745.0000 1.0000
30.5600 744.0000 1.0000
30.5700 714.0000 1.0000
30.5800 745.0000 1.0000
30.5900 762.0000 1.0000
30.6000 786.0000 1.0000
30.6100 784.0000 1.0000
30.6200 772.0000 1.0000
30.6300 767.0000 1.0000
30.6400 746.0000 1.0000
30.6500 727.0000 1.0000
30.6600 764.0000 1.0000
30.6700 768.0000 1.0000
30.6800 805.0000 1.0000
30.6900 823.0000 1.0000
30.7000 761.0000 1.0000
30.7100 741.0000 1.0000
30.7200 722.0000 1.0000
30.7300 764.0000 1.0000
30.7400 794.0000 1.0000
30.7500 773.0000 1.0000
30.7600 781.0000 1.0000
30.7700 731.0000 1.0000
30.7800 733.0000 1.0000
30.7900 752.0000 1.0000
30.8000 741.0000 1.0000
30.8100 754.0000 1.0000
30.8200 783.0000 1.0000
30.8300 729.0000 1.0000
30.8400 785.0000 1.0000
30.8500 743.0000 1.0000
30.8600 736.0000 1.0000
30.8700 762.0000 1.0000
30.8800 772.0000 1.0000
30.8900 744.0000 1.0000
30.9000 723.0000 1.0000
30.9100 773.0000 1.0000
30.9200 742.0000 1.0000
30.9300 769.0000 1.0000
30.9400 763.0000 1.0000
30.9500 741.0000 1.0000
30.9600 770.0000 1.0000
30.9700 746.0000 1.0000
30.9800 780.0000 1.0000
30.9900 803.0000 1.0000
31.0000 794.0000 1.0000
31.0100 781.0000 1.0000
31.0200 764.0000 1.0000
31.0300 801.0000 1.0000
31.0400 802.0000 1.0000
31.0500 766.0000 1.0000
31.0600 739.0000 1.0000
31.0700 771.0000 1.0000
31.0800 783.0000 1.0000
31.0900 744.0000 1.0000
31.1000 773.0000 1.0000
31.1100 765.0000 1.0000
31.1200 760.0000 1.0000
31.1300 818.0000 1.0000
31.1400 772.0000 1.0000
31.1500 777.0000 1.0000
31.1600 789.0000 1.0000
31.1700 785.0000 1.0000
31.1800 752.0000 1.0000
31.1900 745.0000 1.0000
31.2000 727.0000 1.0000
31.2100 748.0000 1.0000
31.2200 795.0000 1.0000
31.2300 774.0000 1.0000
31.2400 768.0000 1.0000
31.2500 785.0000 1.0000
31.2600 748.0000 1.0000
31.2700 741.0000 1.0000
31.2800 726.0000 1.0000
31.2900 748.0000 1.0000
31.3000 741.0000 1.0000
31.3100 757.0000 1.0000
31.3200 742.0000 1.0000
31.3300 763.0000 1.0000
31.3400 738.0000 1.0000
31.3500 776.0000 1.0000
31.3600 762.0000 1.0000
31.3700 735.0000 1.0000
31.3800 779.0000 1.0000
31.3900 744.0000 1.0000
31.4000 716.0000 1.0000
31.4100 746.0000 1.0000
31.4200 763.0000 1.0000
31.4300 780.0000 1.0000
31.4400 753.0000 1.0000
31.4500 760.0000 1.0000
31.4600 755.0000 1.0000
31.4700 762.0000 1.0000
31.4800 754.0000 1.0000
31.4900 730.0000 1.0000
31.5000 725.0000 1.0000
31.5100 695.0000 1.0000
31.5200 738.0000 1.0000
31.5300 723.0000 1.0000
31.5400 734.0000 1.0000
31.5500 683.0000 1.0000
31.5600 716.0000 1.0000
31.5700 771.0000 1.0000
31.5800 792.0000 1.0000
31.5900 709.0000 1.0000
31.6000 747.0000 1.0000
31.6100 704.0000 1.0000
31.6200 674.0000 1.0000
31.6300 708.0000 1.0000
31.6400 734.0000 1.0000
31.6500 748.0000 1.0000
31.6600 734.0000 1.0000
31.6700 709.0000 1.0000
31.6800 719.0000 1.0000
31.6900 743.0000 1.0000
31.7000 747.0000 1.0000
31.7100 738.0000 1.0000
31.7200 750.0000 1.0000
31.7300 725.0000 1.0000
31.7400 743.0000 1.0000
31.7500 728.0000 1.0000
31.7600 774.0000 1.0000
31.7700 736.0000 1.0000
31.7800 746.0000 1.0000
31.7900 742.0000 1.0000
31.8000 749.0000 1.0000
31.8100 743.0000 1.0000
31.8200 696.0000 1.0000
31.8300 764.0000 1.0000
31.8400 738.0000 1.0000
31.8500 741.0000 1.0000
31.8600 724.0000 1.0000
31.8700 707.0000 1.0000
31.8800 735.0000 1.0000
31.8900 749.0000 1.0000
31.9000 728.0000 1.0000
31.9100 734.0000 1.0000
31.9200 717.0000 1.0000
31.9300 720.0000 1.0000
31.9400 727.0000 1.0000
31.9500 754.0000 1.0000
31.9600 700.0000 1.0000
31.9700 712.0000 1.0000
31.9800 695.0000 1.0000
31.9900 729.0000 1.0000
32.0000 727.0000 1.0000
32.0100 713.0000 1.0000
32.0200 702.0000 1.0000
32.0300 740.0000 1.0000
32.0400 730.0000 1.0000
32.0500 696.0000 1.0000
32.0600 700.0000 1.0000
32.0700 766.0000 1.0000
32.0800 745.0000 1.0000
32.0900 766.0000 1.0000
32.1000 749.0000 1.0000
32.1100 710.0000 1.0000
32.1200 744.0000 1.0000
32.1300 707.0000 1.0000
32.1400 698.0000 1.0000
32.1500 735.0000 1.0000
32.1600 682.0000 1.0000
32.1700 748.0000 1.0000
32.1800 701.0000 1.0000
32.1900 724.0000 1.0000
32.2000 724.0000 1.0000
32.2100 689.0000 1.0000
32.2200 740.0000 1.0000
32.2300 709.0000 1.0000
32.2400 705.0000 1.0000
32.2500 698.0000 1.0000
32.2600 667.0000 1.0000
32.2700 694.0000 1.0000
32.2800 725.0000 1.0000
32.2900 676.0000 1.0000
32.3000 698.0000 1.0000
32.3100 725.0000 1.0000
32.3200 725.0000 1.0000
32.3300 707.0000 1.0000
32.3400 712.0000 1.0000
32.3500 683.0000 1.0000
32.3600 687.0000 1.0000
32.3700 709.0000 1.0000
32.3800 721.0000 1.0000
32.3900 718.0000 1.0000
32.4000 715.0000 1.0000
32.4100 703.0000 1.0000
32.4200 706.0000 1.0000
32.4300 719.0000 1.0000
32.4400 763.0000 1.0000
32.4500 763.0000 1.0000
32.4600 744.0000 1.0000
32.4700 741.0000 1.0000
32.4800 731.0000 1.0000
32.4900 677.0000 1.0000
32.5000 685.0000 1.0000
32.5100 735.0000 1.0000
32.5200 724.0000 1.0000
32.5300 732.0000 1.0000
32.5400 672.0000 1.0000
32.5500 677.0000 1.0000
32.5600 728.0000 1.0000
32.5700 706.0000 1.0000
32.5800 698.0000 1.0000
32.5900 751.0000 1.0000
32.6000 709.0000 1.0000
32.6100 705.0000 1.0000
32.6200 744.0000 1.0000
32.6300 739.0000 1.0000
32.6400 729.0000 1.0000
32.6500 724.0000 1.0000
32.6600 666.0000 1.0000
32.6700 700.0000 1.0000
32.6800 739.0000 1.0000
32.6900 713.0000 1.0000
32.7000 728.0000 1.0000
32.7100 696.0000 1.0000
32.7200 741.0000 1.0000
32.7300 730.0000 1.0000
32.7400 715.0000 1.0000
32.7500 706.0000 1.0000
32.7600 726.0000 1.0000
32.7700 737.0000 1.0000
32.7800 728.0000 1.0000
32.7900 770.0000 1.0000
32.8000 734.0000 1.0000
32.8100 710.0000 1.0000
32.8200 727.0000 1.0000
32.8300 749.0000 1.0000
32.8400 759.0000 1.0000
32.8500 746.0000 1.0000
32.8600 728.0000 1.0000
32.8700 750.0000 1.0000
32.8800 733.0000 1.0000
32.8900 796.0000 1.0000
32.9000 761.0000 1.0000
32.9100 787.0000 1.0000
32.9200 833.0000 1.0000
32.9300 800.0000 1.0000
32.9400 843.0000 1.0000
32.9500 832.0000 1.0000
32.9600 809.0000 1.0000
32.9700 836.0000 1.0000
32.9800 903.0000 1.0000
32.9900 920.0000 1.0000
33.0000 893.0000 1.0000
33.0100 950.0000 1.0000
33.0200 976.0000 1.0000
33.0300 988.0000 1.0000
33.0400 941.0000 1.0000
33.0500 980.0000 1.0000
33.0600 992.0000 1.0000
33.0700 1005.0000 1.0000
33.0800 1019.0000 1.0000
33.0900 1015.0000 1.0000
33.1000 988.0000 1.0000
33.1100 977.0000 1.0000
33.1200 1006.0000 1.0000
33.1300 993.0000 1.0000
33.1400 1007.0000 1.0000
33.1500 984.0000 1.0000
33.1600 956.0000 1.0000
33.1700 973.0000 1.0000
33.1800 948.0000 1.0000
33.1900 925.0000 1.0000
33.2000 911.0000 1.0000
33.2100 921.0000 1.0000
33.2200 891.0000 1.0000
33.2300 843.0000 1.0000
33.2400 889.0000 1.0000
33.2500 855.0000 1.0000
33.2600 882.0000 1.0000
33.2700 901.0000 1.0000
33.2800 902.0000 1.0000
33.2900 831.0000 1.0000
33.3000 800.0000 1.0000
33.3100 822.0000 1.0000
33.3200 858.0000 1.0000
33.3300 790.0000 1.0000
33.3400 823.0000 1.0000
33.3500 847.0000 1.0000
33.3600 863.0000 1.0000
33.3700 855.0000 1.0000
33.3800 858.0000 1.0000
33.3900 883.0000 1.0000
33.4000 846.0000 1.0000
33.4100 876.0000 1.0000
33.4200 924.0000 1.0000
33.4300 948.0000 1.0000
33.4400 930.0000 1.0000
33.4500 973.0000 1.0000
33.4600 1054.0000 1.0000
33.4700 985.0000 1.0000
33.4800 1067.0000 1.0000
33.4900 1149.0000 1.0000
33.5000 1099.0000 1.0000
33.5100 1069.0000 1.0000
33.5200 1135.0000 1.0000
33.5300 1187.0000 1.0000
33.5400 1274.0000 1.0000
33.5500 1383.0000 1.0000
33.5600 1431.0000 1.0000
33.5700 1439.0000 1.0000
33.5800 1469.0000 1.0000
33.5900 1597.0000 1.0000
33.6000 1733.0000 1.0000
33.6100 1699.0000 1.0000
33.6200 1684.0000 1.0000
33.6300 1748.0000 1.0000
33.6400 1759.0000 1.0000
33.6500 1794.0000 1.0000
33.6600 1873.0000 1.0000
33.6700 1814.0000 1.0000
33.6800 1738.0000 1.0000
33.6900 1751.0000 1.0000
33.7000 1679.0000 1.0000
33.7100 1669.0000 1.0000
33.7200 1670.0000 1.0000
33.7300 1566.0000 1.0000
33.7400 1438.0000 1.0000
33.7500 1366.0000 1.0000
33.7600 1423.0000 1.0000
33.7700 1389.0000 1.0000
33.7800 1317.0000 1.0000
33.7900 1207.0000 1.0000
33.8000 1160.0000 1.0000
33.8100 1080.0000 1.0000
33.8200 1065.0000 1.0000
33.8300 1083.0000 1.0000
33.8400 999.0000 1.0000
33.8500 1012.0000 1.0000
33.8600 988.0000 1.0000
33.8700 957.0000 1.0000
33.8800 888.0000 1.0000
33.8900 945.0000 1.0000
33.9000 867.0000 1.0000
33.9100 923.0000 1.0000
33.9200 875.0000 1.0000
33.9300 814.0000 1.0000
33.9400 814.0000 1.0000
33.9500 830.0000 1.0000
33.9600 820.0000 1.0000
33.9700 806.0000 1.0000
33.9800 788.0000 1.0000
33.9900 759.0000 1.0000
34.0000 799.0000 1.0000
34.0100 768.0000 1.0000
34.0200 756.0000 1.0000
34.0300 786.0000 1.0000
34.0400 741.0000 1.0000
34.0500 737.0000 1.0000
34.0600 725.0000 1.0000
34.0700 755.0000 1.0000
34.0800 724.0000 1.0000
34.0900 754.0000 1.0000
34.1000 706.0000 1.0000
34.1100 713.0000 1.0000
34.1200 723.0000 1.0000
34.1300 678.0000 1.0000
34.1400 706.0000 1.0000
34.1500 688.0000 1.0000
34.1600 687.0000 1.0000
34.1700 721.0000 1.0000
34.1800 682.0000 1.0000
34.1900 643.0000 1.0000
34.2000 663.0000 1.0000
34.2100 721.0000 1.0000
34.2200 674.0000 1.0000
34.2300 645.0000 1.0000
34.2400 659.0000 1.0000
34.2500 663.0000 1.0000
34.2600 647.0000 1.0000
34.2700 645.0000 1.0000
34.2800 652.0000 1.0000
34.2900 617.0000 1.0000
34.3000 706.0000 1.0000
34.3100 663.0000 1.0000
34.3200 687.0000 1.0000
34.3300 649.0000 1.0000
34.3400 618.0000 1.0000
34.3500 626.0000 1.0000
34.3600 643.0000 1.0000
34.3700 646.0000 1.0000
34.3800 649.0000 1.0000
34.3900 652.0000 1.0000
34.4000 592.0000 1.0000
34.4100 624.0000 1.0000
34.4200 635.0000 1.0000
34.4300 625.0000 1.0000
34.4400 672.0000 1.0000
34.4500 646.0000 1.0000
34.4600 633.0000 1.0000
34.4700 632.0000 1.0000
34.4800 632.0000 1.0000
34.4900 624.0000 1.0000
34.5000 647.0000 1.0000
34.5100 648.0000 1.0000
34.5200 629.0000 1.0000
34.5300 650.0000 1.0000
34.5400 657.0000 1.0000
34.5500 641.0000 1.0000
34.5600 657.0000 1.0000
34.5700 599.0000 1.0000
34.5800 639.0000 1.0000
34.5900 591.0000 1.0000
34.6000 601.0000 1.0000
34.6100 606.0000 1.0000
34.6200 680.0000 1.0000
34.6300 620.0000 1.0000
34.6400 655.0000 1.0000
34.6500 649.0000 1.0000
34.6600 621.0000 1.0000
34.6700 544.0000 1.0000
34.6800 626.0000 1.0000
34.6900 629.0000 1.0000
34.7000 588.0000 1.0000
34.7100 629.0000 1.0000
34.7200 655.0000 1.0000
34.7300 604.0000 1.0000
34.7400 627.0000 1.0000
34.7500 638.0000 1.0000
34.7600 624.0000 1.0000
34.7700 640.0000 1.0000
34.7800 606.0000 1.0000
34.7900 611.0000 1.0000
34.8000 628.0000 1.0000
34.8100 605.0000 1.0000
34.8200 604.0000 1.0000
34.8300 579.0000 1.0000
34.8400 627.0000 1.0000
34.8500 633.0000 1.0000
34.8600 630.0000 1.0000
34.8700 598.0000 1.0000
34.8800 600.0000 1.0000
34.8900 636.0000 1.0000
34.9000 660.0000 1.0000
34.9100 622.0000 1.0000
34.9200 624.0000 1.0000
34.9300 609.0000 1.0000
34.9400 603.0000 1.0000
34.9500 635.0000 1.0000
34.9600 611.0000 1.0000
34.9700 571.0000 1.0000
34.9800 585.0000 1.0000
34.9900 606.0000 1.0000
35.0000 601.0000 1.0000
35.0100 619.0000 1.0000
35.0200 615.0000 1.0000
35.0300 596.0000 1.0000
35.0400 636.0000 1.0000
35.0500 618.0000 1.0000
35.0600 606.0000 1.0000
35.0700 633.0000 1.0000
35.0800 629.0000 1.0000
35.0900 604.0000 1.0000
35.1000 603.0000 1.0000
35.1100 640.0000 1.0000
35.1200 583.0000 1.0000
35.1300 629.0000 1.0000
35.1400 591.0000 1.0000
35.1500 618.0000 1.0000
35.1600 618.0000 1.0000
35.1700 622.0000 1.0000
35.1800 641.0000 1.0000
35.1900 623.0000 1.0000
35.2000 642.0000 1.0000
35.2100 631.0000 1.0000
35.2200 624.0000 1.0000
35.2300 598.0000 1.0000
35.2400 620.0000 1.0000
35.2500 639.0000 1.0000
35.2600 624.0000 1.0000
35.2700 631.0000 1.0000
35.2800 635.0000 1.0000
35.2900 613.0000 1.0000
35.3000 600.0000 1.0000
35.3100 638.0000 1.0000
35.3200 672.0000 1.0000
35.3300 640.0000 1.0000
35.3400 670.0000 1.0000
35.3500 669.0000 1.0000
35.3600 744.0000 1.0000
35.3700 649.0000 1.0000
35.3800 670.0000 1.0000
35.3900 678.0000 1.0000
35.4000 734.0000 1.0000
35.4100 692.0000 1.0000
35.4200 708.0000 1.0000
35.4300 716.0000 1.0000
35.4400 716.0000 1.0000
35.4500 728.0000 1.0000
35.4600 801.0000 1.0000
35.4700 758.0000 1.0000
35.4800 829.0000 1.0000
35.4900 848.0000 1.0000
35.5000 811.0000 1.0000
35.5100 863.0000 1.0000
35.5200 864.0000 1.0000
35.5300 897.0000 1.0000
35.5400 894.0000 1.0000
35.5500 863.0000 1.0000
35.5600 864.0000 1.0000
35.5700 952.0000 1.0000
35.5800 944.0000 1.0000
35.5900 872.0000 1.0000
35.6000 920.0000 1.0000
35.6100 878.0000 1.0000
35.6200 912.0000 1.0000
35.6300 898.0000 1.0000
35.6400 838.0000 1.0000
35.6500 829.0000 1.0000
35.6600 827.0000 1.0000
35.6700 830.0000 1.0000
35.6800 798.0000 1.0000
35.6900 783.0000 1.0000
35.7000 810.0000 1.0000
35.7100 720.0000 1.0000
35.7200 715.0000 1.0000
35.7300 717.0000 1.0000
35.7400 666.0000 1.0000
35.7500 637.0000 1.0000
35.7600 667.0000 1.0000
35.7700 711.0000 1.0000
35.7800 667.0000 1.0000
35.7900 630.0000 1.0000
35.8000 606.0000 1.0000
35.8100 615.0000 1.0000
35.8200 582.0000 1.0000
35.8300 547.0000 1.0000
35.8400 601.0000 1.0000
35.8500 583.0000 1.0000
35.8600 578.0000 1.0000
35.8700 563.0000 1.0000
35.8800 552.0000 1.0000
35.8900 614.0000 1.0000
35.9000 594.0000 1.0000
35.9100 608.0000 1.0000
35.9200 555.0000 1.0000
35.9300 585.0000 1.0000
35.9400 597.0000 1.0000
35.9500 593.0000 1.0000
35.9600 604.0000 1.0000
35.9700 610.0000 1.0000
35.9800 600.0000 1.0000
35.9900 578.0000 1.0000
36.0000 590.0000 1.0000
36.0100 579.0000 1.0000
36.0200 584.0000 1.0000
36.0300 573.0000 1.0000
36.0400 556.0000 1.0000
36.0500 580.0000 1.0000
36.0600 554.0000 1.0000
36.0700 577.0000 1.0000
36.0800 528.0000 1.0000
36.0900 536.0000 1.0000
36.1000 587.0000 1.0000
36.1100 571.0000 1.0000
36.1200 545.0000 1.0000
36.1300 549.0000 1.0000
36.1400 550.0000 1.0000
36.1500 563.0000 1.0000
36.1600 546.0000 1.0000
36.1700 582.0000 1.0000
36.1800 595.0000 1.0000
36.1900 591.0000 1.0000
36.2000 549.0000 1.0000
36.2100 523.0000 1.0000
36.2200 593.0000 1.0000
36.2300 565.0000 1.0000
36.2400 586.0000 1.0000
36.2500 586.0000 1.0000
36.2600 587.0000 1.0000
36.2700 593.0000 1.0000
36.2800 564.0000 1.0000
36.2900 556.0000 1.0000
36.3000 545.0000 1.0000
36.3100 526.0000 1.0000
36.3200 535.0000 1.0000
36.3300 601.0000 1.0000
36.3400 583.0000 1.0000
36.3500 586.0000 1.0000
36.3600 551.0000 1.0000
36.3700 595.0000 1.0000
36.3800 551.0000 1.0000
36.3900 574.0000 1.0000
36.4000 577.0000 1.0000
36.4100 541.0000 1.0000
36.4200 602.0000 1.0000
36.4300 560.0000 1.0000
36.4400 574.0000 1.0000
36.4500 560.0000 1.0000
36.4600 600.0000 1.0000
36.4700 556.0000 1.0000
36.4800 576.0000 1.0000
36.4900 559.0000 1.0000
36.5000 565.0000 1.0000
36.5100 553.0000 1.0000
36.5200 583.0000 1.0000
36.5300 595.0000 1.0000
36.5400 569.0000 1.0000
36.5500 580.0000 1.0000
36.5600 581.0000 1.0000
36.5700 559.0000 1.0000
36.5800 545.0000 1.0000
36.5900 572.0000 1.0000
36.6000 540.0000 1.0000
36.6100 556.0000 1.0000
36.6200 590.0000 1.0000
36.6300 572.0000 1.0000
36.6400 557.0000 1.0000
36.6500 509.0000 1.0000
36.6600 567.0000 1.0000
36.6700 589.0000 1.0000
36.6800 556.0000 1.0000
36.6900 553.0000 1.0000
36.7000 585.0000 1.0000
36.7100 569.0000 1.0000
36.7200 541.0000 1.0000
36.7300 559.0000 1.0000
36.7400 580.0000 1.0000
36.7500 566.0000 1.0000
36.7600 562.0000 1.0000
36.7700 595.0000 1.0000
36.7800 555.0000 1.0000
36.7900 563.0000 1.0000
36.8000 585.0000 1.0000
36.8100 574.0000 1.0000
36.8200 562.0000 1.0000
36.8300 545.0000 1.0000
36.8400 524.0000 1.0000
36.8500 575.0000 1.0000
36.8600 568.0000 1.0000
36.8700 570.0000 1.0000
36.8800 545.0000 1.0000
36.8900 609.0000 1.0000
36.9000 540.0000 1.0000
36.9100 552.0000 1.0000
36.9200 578.0000 1.0000
36.9300 590.0000 1.0000
36.9400 566.0000 1.0000
36.9500 577.0000 1.0000
36.9600 558.0000 1.0000
36.9700 574.0000 1.0000
36.9800 551.0000 1.0000
36.9900 556.0000 1.0000
37.0000 574.0000 1.0000
37.0100 602.0000 1.0000
37.0200 570.0000 1.0000
37.0300 573.0000 1.0000
37.0400 587.0000 1.0000
37.0500 598.0000 1.0000
37.0600 546.0000 1.0000
37.0700 541.0000 1.0000
37.0800 573.0000 1.0000
37.0900 570.0000 1.0000
37.1000 546.0000 1.0000
37.1100 571.0000 1.0000
37.1200 591.0000 1.0000
37.1300 562.0000 1.0000
37.1400 615.0000 1.0000
37.1500 597.0000 1.0000
37.1600 610.0000 1.0000
37.1700 574.0000 1.0000
37.1800 593.0000 1.0000
37.1900 549.0000 1.0000
37.2000 582.0000 1.0000
37.2100 613.0000 1.0000
37.2200 617.0000 1.0000
37.2300 605.0000 1.0000
37.2400 624.0000 1.0000
37.2500 601.0000 1.0000
37.2600 609.0000 1.0000
37.2700 660.0000 1.0000
37.2800 624.0000 1.0000
37.2900 653.0000 1.0000
37.3000 661.0000 1.0000
37.3100 650.0000 1.0000
37.3200 629.0000 1.0000
37.3300 621.0000 1.0000
37.3400 707.0000 1.0000
37.3500 681.0000 1.0000
37.3600 683.0000 1.0000
37.3700 675.0000 1.0000
37.3800 721.0000 1.0000
37.3900 715.0000 1.0000
37.4000 710.0000 1.0000
37.4100 796.0000 1.0000
37.4200 816.0000 1.0000
37.4300 871.0000 1.0000
37.4400 861.0000 1.0000
37.4500 906.0000 1.0000
37.4600 947.0000 1.0000
37.4700 943.0000 1.0000
37.4800 978.0000 1.0000
37.4900 1035.0000 1.0000
37.5000 1061.0000 1.0000
37.5100 1147.0000 1.0000
37.5200 1241.0000 1.0000
37.5300 1274.0000 1.0000
37.5400 1327.0000 1.0000
37.5500 1437.0000 1.0000
37.5600 1526.0000 1.0000
37.5700 1659.0000 1.0000
37.5800 1671.0000 1.0000
37.5900 1797.0000 1.0000
37.6000 1887.0000 1.0000
37.6100 2114.0000 1.0000
37.6200 2226.0000 1.0000
37.6300 2353.0000 1.0000
37.6400 2422.0000 1.0000
37.6500 2546.0000 1.0000
37.6600 2678.0000 1.0000
37.6700 2730.0000 1.0000
37.6800 2811.0000 1.0000
37.6900 2907.0000 1.0000
37.7000 2903.0000 1.0000
37.7100 2846.0000 1.0000
37.7200 2914.0000 1.0000
37.7300 2952.0000 1.0000
37.7400 2767.0000 1.0000
37.7500 2706.0000 1.0000
37.7600 2738.0000 1.0000
37.7700 2614.0000 1.0000
37.7800 2449.0000 1.0000
37.7900 2438.0000 1.0000
37.8000 2306.0000 1.0000
37.8100 2149.0000 1.0000
37.8200 2073.0000 1.0000
37.8300 1891.0000 1.0000
37.8400 1950.0000 1.0000
37.8500 1739.0000 1.0000
37.8600 1675.0000 1.0000
37.8700 1525.0000 1.0000
37.8800 1460.0000 1.0000
37.8900 1371.0000 1.0000
37.9000 1236.0000 1.0000
37.9100 1222.0000 1.0000
37.9200 1135.0000 1.0000
37.9300 1123.0000 1.0000
37.9400 1078.0000 1.0000
37.9500 908.0000 1.0000
37.9600 958.0000 1.0000
37.9700 900.0000 1.0000
37.9800 862.0000 1.0000
37.9900 889.0000 1.0000
38.0000 835.0000 1.0000
38.0100 749.0000 1.0000
38.0200 794.0000 1.0000
38.0300 765.0000 1.0000
38.0400 724.0000 1.0000
38.0500 725.0000 1.0000
38.0600 691.0000 1.0000
38.0700 658.0000 1.0000
38.0800 633.0000 1.0000
38.0900 632.0000 1.0000
38.1000 662.0000 1.0000
38.1100 638.0000 1.0000
38.1200 596.0000 1.0000
38.1300 600.0000 1.0000
38.1400 622.0000 1.0000
38.1500 619.0000 1.0000
38.1600 613.0000 1.0000
38.1700 588.0000 1.0000
38.1800 558.0000 1.0000
38.1900 534.0000 1.0000
38.2000 563.0000 1.0000
38.2100 564.0000 1.0000
38.2200 524.0000 1.0000
38.2300 566.0000 1.0000
38.2400 569.0000 1.0000
38.2500 559.0000 1.0000
38.2600 513.0000 1.0000
38.2700 535.0000 1.0000
38.2800 522.0000 1.0000
38.2900 565.0000 1.0000
38.3000 523.0000 1.0000
38.3100 501.0000 1.0000
38.3200 520.0000 1.0000
38.3300 515.0000 1.0000
38.3400 535.0000 1.0000
38.3500 505.0000 1.0000
38.3600 516.0000 1.0000
38.3700 565.0000 1.0000
38.3800 523.0000 1.0000
38.3900 509.0000 1.0000
38.4000 554.0000 1.0000
38.4100 515.0000 1.0000
38.4200 543.0000 1.0000
38.4300 520.0000 1.0000
38.4400 490.0000 1.0000
38.4500 514.0000 1.0000
38.4600 528.0000 1.0000
38.4700 540.0000 1.0000
38.4800 517.0000 1.0000
38.4900 543.0000 1.0000
38.5000 522.0000 1.0000
38.5100 528.0000 1.0000
38.5200 531.0000 1.0000
38.5300 505.0000 1.0000
38.5400 516.0000 1.0000
38.5500 521.0000 1.0000
38.5600 542.0000 1.0000
38.5700 497.0000 1.0000
38.5800 525.0000 1.0000
38.5900 517.0000 1.0000
38.6000 538.0000 1.0000
38.6100 553.0000 1.0000
38.6200 545.0000 1.0000
38.6300 541.0000 1.0000
38.6400 496.0000 1.0000
38.6500 522.0000 1.0000
38.6600 507.0000 1.0000
38.6700 518.0000 1.0000
38.6800 550.0000 1.0000
38.6900 526.0000 1.0000
38.7000 531.0000 1.0000
38.7100 538.0000 1.0000
38.7200 508.0000 1.0000
38.7300 569.0000 1.0000
38.7400 538.0000 1.0000
38.7500 549.0000 1.0000
38.7600 545.0000 1.0000
38.7700 550.0000 1.0000
38.7800 527.0000 1.0000
38.7900 519.0000 1.0000
38.8000 519.0000 1.0000
38.8100 531.0000 1.0000
38.8200 508.0000 1.0000
38.8300 512.0000 1.0000
38.8400 491.0000 1.0000
38.8500 553.0000 1.0000
38.8600 537.0000 1.0000
38.8700 549.0000 1.0000
38.8800 514.0000 1.0000
38.8900 515.0000 1.0000
38.9000 496.0000 1.0000
38.9100 548.0000 1.0000
38.9200 524.0000 1.0000
38.9300 500.0000 1.0000
38.9400 507.0000 1.0000
38.9500 500.0000 1.0000
38.9600 483.0000 1.0000
38.9700 531.0000 1.0000
38.9800 504.0000 1.0000
38.9900 482.0000 1.0000
39.0000 483.0000 1.0000
39.0100 482.0000 1.0000
39.0200 529.0000 1.0000
39.0300 509.0000 1.0000
39.0400 498.0000 1.0000
39.0500 482.0000 1.0000
39.0600 522.0000 1.0000
39.0700 474.0000 1.0000
39.0800 475.0000 1.0000
39.0900 484.0000 1.0000
39.1000 473.0000 1.0000
39.1100 501.0000 1.0000
39.1200 509.0000 1.0000
39.1300 494.0000 1.0000
39.1400 516.0000 1.0000
39.1500 496.0000 1.0000
39.1600 519.0000 1.0000
39.1700 481.0000 1.0000
39.1800 524.0000 1.0000
39.1900 478.0000 1.0000
39.2000 488.0000 1.0000
39.2100 487.0000 1.0000
39.2200 497.0000 1.0000
39.2300 526.0000 1.0000
39.2400 536.0000 1.0000
39.2500 500.0000 1.0000
39.2600 476.0000 1.0000
39.2700 537.0000 1.0000
39.2800 480.0000 1.0000
39.2900 492.0000 1.0000
39.3000 502.0000 1.0000
39.3100 495.0000 1.0000
39.3200 486.0000 1.0000
39.3300 498.0000 1.0000
39.3400 506.0000 1.0000
39.3500 484.0000 1.0000
39.3600 467.0000 1.0000
39.3700 488.0000 1.0000
39.3800 421.0000 1.0000
39.3900 448.0000 1.0000
39.4000 472.0000 1.0000
39.4100 422.0000 1.0000
39.4200 501.0000 1.0000
39.4300 481.0000 1.0000
39.4400 500.0000 1.0000
39.4500 473.0000 1.0000
39.4600 465.0000 1.0000
39.4700 531.0000 1.0000
39.4800 491.0000 1.0000
39.4900 488.0000 1.0000
39.5000 493.0000 1.0000
39.5100 508.0000 1.0000
39.5200 512.0000 1.0000
39.5300 495.0000 1.0000
39.5400 454.0000 1.0000
39.5500 487.0000 1.0000
39.5600 485.0000 1.0000
39.5700 485.0000 1.0000
39.5800 474.0000 1.0000
39.5900 478.0000 1.0000
39.6000 472.0000 1.0000
39.6100 458.0000 1.0000
39.6200 470.0000 1.0000
39.6300 426.0000 1.0000
39.6400 452.0000 1.0000
39.6500 505.0000 1.0000
39.6600 475.0000 1.0000
39.6700 460.0000 1.0000
39.6800 486.0000 1.0000
39.6900 457.0000 1.0000
39.7000 482.0000 1.0000
39.7100 452.0000 1.0000
39.7200 459.0000 1.0000
39.7300 473.0000 1.0000
39.7400 467.0000 1.0000
39.7500 496.0000 1.0000
39.7600 484.0000 1.0000
39.7700 457.0000 1.0000
39.7800 474.0000 1.0000
39.7900 490.0000 1.0000
39.8000 459.0000 1.0000
39.8100 452.0000 1.0000
39.8200 473.0000 1.0000
39.8300 452.0000 1.0000
39.8400 445.0000 1.0000
39.8500 474.0000 1.0000
39.8600 484.0000 1.0000
39.8700 484.0000 1.0000
39.8800 522.0000 1.0000
39.8900 446.0000 1.0000
39.9000 471.0000 1.0000
39.9100 491.0000 1.0000
39.9200 467.0000 1.0000
39.9300 494.0000 1.0000
39.9400 458.0000 1.0000
39.9500 444.0000 1.0000
39.9600 504.0000 1.0000
39.9700 486.0000 1.0000
39.9800 479.0000 1.0000
39.9900 453.0000 1.0000
40.0000 458.0000 1.0000
40.0100 474.0000 1.0000
40.0200 479.0000 1.0000
40.0300 464.0000 1.0000
40.0400 469.0000 1.0000
40.0500 468.0000 1.0000
40.0600 446.0000 1.0000
40.0700 431.0000 1.0000
40.0800 430.0000 1.0000
40.0900 469.0000 1.0000
40.1000 512.0000 1.0000
40.1100 452.0000 1.0000
40.1200 466.0000 1.0000
40.1300 450.0000 1.0000
40.1400 477.0000 1.0000
40.1500 491.0000 1.0000
40.1600 433.0000 1.0000
40.1700 460.0000 1.0000
40.1800 468.0000 1.0000
40.1900 487.0000 1.0000
40.2000 472.0000 1.0000
40.2100 470.0000 1.0000
40.2200 425.0000 1.0000
40.2300 456.0000 1.0000
40.2400 486.0000 1.0000
40.2500 443.0000 1.0000
40.2600 493.0000 1.0000
40.2700 482.0000 1.0000
40.2800 512.0000 1.0000
40.2900 438.0000 1.0000
40.3000 466.0000 1.0000
40.3100 467.0000 1.0000
40.3200 458.0000 1.0000
40.3300 492.0000 1.0000
40.3400 461.0000 1.0000
40.3500 509.0000 1.0000
40.3600 481.0000 1.0000
40.3700 451.0000 1.0000
40.3800 456.0000 1.0000
40.3900 471.0000 1.0000
40.4000 437.0000 1.0000
40.4100 473.0000 1.0000
40.4200 449.0000 1.0000
40.4300 481.0000 1.0000
40.4400 449.0000 1.0000
40.4500 452.0000 1.0000
40.4600 488.0000 1.0000
40.4700 463.0000 1.0000
40.4800 445.0000 1.0000
40.4900 489.0000 1.0000
40.5000 476.0000 1.0000
40.5100 461.0000 1.0000
40.5200 466.0000 1.0000
40.5300 485.0000 1.0000
40.5400 493.0000 1.0000
40.5500 457.0000 1.0000
40.5600 485.0000 1.0000
40.5700 466.0000 1.0000
40.5800 487.0000 1.0000
40.5900 467.0000 1.0000
40.6000 482.0000 1.0000
40.6100 502.0000 1.0000
40.6200 507.0000 1.0000
40.6300 486.0000 1.0000
40.6400 474.0000 1.0000
40.6500 507.0000 1.0000
40.6600 461.0000 1.0000
40.6700 471.0000 1.0000
40.6800 500.0000 1.0000
40.6900 500.0000 1.0000
40.7000 515.0000 1.0000
40.7100 534.0000 1.0000
40.7200 513.0000 1.0000
40.7300 484.0000 1.0000
40.7400 483.0000 1.0000
40.7500 493.0000 1.0000
40.7600 475.0000 1.0000
40.7700 509.0000 1.0000
40.7800 524.0000 1.0000
40.7900 557.0000 1.0000
40.8000 594.0000 1.0000
40.8100 522.0000 1.0000
40.8200 512.0000 1.0000
40.8300 540.0000 1.0000
40.8400 548.0000 1.0000
40.8500 548.0000 1.0000
40.8600 534.0000 1.0000
40.8700 526.0000 1.0000
40.8800 516.0000 1.0000
40.8900 523.0000 1.0000
40.9000 545.0000 1.0000
40.9100 560.0000 1.0000
40.9200 530.0000 1.0000
40.9300 546.0000 1.0000
40.9400 502.0000 1.0000
40.9500 512.0000 1.0000
40.9600 485.0000 1.0000
40.9700 509.0000 1.0000
40.9800 499.0000 1.0000
40.9900 517.0000 1.0000
41.0000 536.0000 1.0000
41.0100 483.0000 1.0000
41.0200 481.0000 1.0000
41.0300 466.0000 1.0000
41.0400 462.0000 1.0000
41.0500 466.0000 1.0000
41.0600 474.0000 1.0000
41.0700 437.0000 1.0000
41.0800 476.0000 1.0000
41.0900 472.0000 1.0000
41.1000 491.0000 1.0000
41.1100 469.0000 1.0000
41.1200 490.0000 1.0000
41.1300 477.0000 1.0000
41.1400 447.0000 1.0000
41.1500 475.0000 1.0000
41.1600 456.0000 1.0000
41.1700 503.0000 1.0000
41.1800 466.0000 1.0000
41.1900 445.0000 1.0000
41.2000 445.0000 1.0000
41.2100 470.0000 1.0000
41.2200 463.0000 1.0000
41.2300 432.0000 1.0000
41.2400 438.0000 1.0000
41.2500 442.0000 1.0000
41.2600 510.0000 1.0000
41.2700 454.0000 1.0000
41.2800 465.0000 1.0000
41.2900 451.0000 1.0000
41.3000 458.0000 1.0000
41.3100 474.0000 1.0000
41.3200 457.0000 1.0000
41.3300 447.0000 1.0000
41.3400 450.0000 1.0000
41.3500 440.0000 1.0000
41.3600 428.0000 1.0000
41.3700 421.0000 1.0000
41.3800 461.0000 1.0000
41.3900 428.0000 1.0000
41.4000 445.0000 1.0000
41.4100 434.0000 1.0000
41.4200 481.0000 1.0000
41.4300 469.0000 1.0000
41.4400 446.0000 1.0000
41.4500 437.0000 1.0000
41.4600 437.0000 1.0000
41.4700 423.0000 1.0000
41.4800 452.0000 1.0000
41.4900 445.0000 1.0000
41.5000 457.0000 1.0000
41.5100 428.0000 1.0000
41.5200 420.0000 1.0000
41.5300 424.0000 1.0000
41.5400 450.0000 1.0000
41.5500 439.0000 1.0000
41.5600 459.0000 1.0000
41.5700 440.0000 1.0000
41.5800 438.0000 1.0000
41.5900 449.0000 1.0000
41.6000 453.0000 1.0000
41.6100 469.0000 1.0000
41.6200 441.0000 1.0000
41.6300 437.0000 1.0000
41.6400 463.0000 1.0000
41.6500 480.0000 1.0000
41.6600 424.0000 1.0000
41.6700 448.0000 1.0000
41.6800 413.0000 1.0000
41.6900 453.0000 1.0000
41.7000 463.0000 1.0000
41.7100 468.0000 1.0000
41.7200 438.0000 1.0000
41.7300 451.0000 1.0000
41.7400 443.0000 1.0000
41.7500 460.0000 1.0000
41.7600 465.0000 1.0000
41.7700 463.0000 1.0000
41.7800 456.0000 1.0000
41.7900 445.0000 1.0000
41.8000 445.0000 1.0000
41.8100 430.0000 1.0000
41.8200 442.0000 1.0000
41.8300 456.0000 1.0000
41.8400 433.0000 1.0000
41.8500 458.0000 1.0000
41.8600 472.0000 1.0000
41.8700 436.0000 1.0000
41.8800 479.0000 1.0000
41.8900 458.0000 1.0000
41.9000 452.0000 1.0000
41.9100 463.0000 1.0000
41.9200 438.0000 1.0000
41.9300 447.0000 1.0000
41.9400 438.0000 1.0000
41.9500 435.0000 1.0000
41.9600 460.0000 1.0000
41.9700 457.0000 1.0000
41.9800 394.0000 1.0000
41.9900 400.0000 1.0000
42.0000 440.0000 1.0000
42.0100 470.0000 1.0000
42.0200 498.0000 1.0000
42.0300 467.0000 1.0000
42.0400 455.0000 1.0000
42.0500 441.0000 1.0000
42.0600 477.0000 1.0000
42.0700 464.0000 1.0000
42.0800 456.0000 1.0000
42.0900 460.0000 1.0000
42.1000 475.0000 1.0000
42.1100 483.0000 1.0000
42.1200 481.0000 1.0000
42.1300 464.0000 1.0000
42.1400 440.0000 1.0000
42.1500 459.0000 1.0000
42.1600 484.0000 1.0000
42.1700 462.0000 1.0000
42.1800 457.0000 1.0000
42.1900 467.0000 1.0000
42.2000 444.0000 1.0000
42.2100 440.0000 1.0000
42.2200 460.0000 1.0000
42.2300 459.0000 1.0000
42.2400 461.0000 1.0000
42.2500 436.0000 1.0000
42.2600 474.0000 1.0000
42.2700 477.0000 1.0000
42.2800 498.0000 1.0000
42.2900 475.0000 1.0000
42.3000 486.0000 1.0000
42.3100 482.0000 1.0000
42.3200 482.0000 1.0000
42.3300 487.0000 1.0000
42.3400 486.0000 1.0000
42.3500 511.0000 1.0000
42.3600 473.0000 1.0000
42.3700 489.0000 1.0000
42.3800 463.0000 1.0000
42.3900 516.0000 1.0000
42.4000 515.0000 1.0000
42.4100 529.0000 1.0000
42.4200 492.0000 1.0000
42.4300 490.0000 1.0000
42.4400 472.0000 1.0000
42.4500 475.0000 1.0000
42.4600 492.0000 1.0000
42.4700 477.0000 1.0000
42.4800 489.0000 1.0000
42.4900 528.0000 1.0000
42.5000 502.0000 1.0000
42.5100 505.0000 1.0000
42.5200 490.0000 1.0000
42.5300 509.0000 1.0000
42.5400 500.0000 1.0000
42.5500 493.0000 1.0000
42.5600 451.0000 1.0000
42.5700 477.0000 1.0000
42.5800 500.0000 1.0000
42.5900 448.0000 1.0000
42.6000 481.0000 1.0000
42.6100 477.0000 1.0000
42.6200 472.0000 1.0000
42.6300 465.0000 1.0000
42.6400 448.0000 1.0000
42.6500 489.0000 1.0000
42.6600 422.0000 1.0000
42.6700 443.0000 1.0000
42.6800 473.0000 1.0000
42.6900 424.0000 1.0000
42.7000 496.0000 1.0000
42.7100 479.0000 1.0000
42.7200 469.0000 1.0000
42.7300 438.0000 1.0000
42.7400 434.0000 1.0000
42.7500 428.0000 1.0000
42.7600 446.0000 1.0000
42.7700 444.0000 1.0000
42.7800 443.0000 1.0000
42.7900 443.0000 1.0000
42.8000 442.0000 1.0000
42.8100 421.0000 1.0000
42.8200 460.0000 1.0000
42.8300 482.0000 1.0000
42.8400 458.0000 1.0000
42.8500 426.0000 1.0000
42.8600 434.0000 1.0000
42.8700 446.0000 1.0000
42.8800 427.0000 1.0000
42.8900 450.0000 1.0000
42.9000 458.0000 1.0000
42.9100 458.0000 1.0000
42.9200 445.0000 1.0000
42.9300 456.0000 1.0000
42.9400 442.0000 1.0000
42.9500 461.0000 1.0000
42.9600 448.0000 1.0000
42.9700 437.0000 1.0000
42.9800 449.0000 1.0000
42.9900 441.0000 1.0000
43.0000 431.0000 1.0000
43.0100 454.0000 1.0000
43.0200 444.0000 1.0000
43.0300 486.0000 1.0000
43.0400 449.0000 1.0000
43.0500 436.0000 1.0000
43.0600 454.0000 1.0000
43.0700 438.0000 1.0000
43.0800 424.0000 1.0000
43.0900 439.0000 1.0000
43.1000 443.0000 1.0000
43.1100 421.0000 1.0000
43.1200 431.0000 1.0000
43.1300 451.0000 1.0000
43.1400 448.0000 1.0000
43.1500 483.0000 1.0000
43.1600 482.0000 1.0000
43.1700 439.0000 1.0000
43.1800 444.0000 1.0000
43.1900 441.0000 1.0000
43.2000 420.0000 1.0000
43.2100 419.0000 1.0000
43.2200 464.0000 1.0000
43.2300 443.0000 1.0000
43.2400 436.0000 1.0000
43.2500 471.0000 1.0000
43.2600 469.0000 1.0000
43.2700 434.0000 1.0000
43.2800 424.0000 1.0000
43.2900 475.0000 1.0000
43.3000 451.0000 1.0000
43.3100 451.0000 1.0000
43.3200 431.0000 1.0000
43.3300 433.0000 1.0000
43.3400 427.0000 1.0000
43.3500 424.0000 1.0000
43.3600 404.0000 1.0000
43.3700 443.0000 1.0000
43.3800 427.0000 1.0000
43.3900 434.0000 1.0000
43.4000 441.0000 1.0000
43.4100 431.0000 1.0000
43.4200 457.0000 1.0000
43.4300 438.0000 1.0000
43.4400 446.0000 1.0000
43.4500 394.0000 1.0000
43.4600 425.0000 1.0000
43.4700 413.0000 1.0000
43.4800 462.0000 1.0000
43.4900 449.0000 1.0000
43.5000 448.0000 1.0000
43.5100 447.0000 1.0000
43.5200 434.0000 1.0000
43.5300 464.0000 1.0000
43.5400 438.0000 1.0000
43.5500 456.0000 1.0000
43.5600 468.0000 1.0000
43.5700 420.0000 1.0000
43.5800 438.0000 1.0000
43.5900 438.0000 1.0000
43.6000 414.0000 1.0000
43.6100 447.0000 1.0000
43.6200 441.0000 1.0000
43.6300 434.0000 1.0000
43.6400 466.0000 1.0000
43.6500 448.0000 1.0000
43.6600 461.0000 1.0000
43.6700 426.0000 1.0000
43.6800 425.0000 1.0000
43.6900 446.0000 1.0000
43.7000 438.0000 1.0000
43.7100 414.0000 1.0000
43.7200 461.0000 1.0000
43.7300 433.0000 1.0000
43.7400 448.0000 1.0000
43.7500 428.0000 1.0000
43.7600 416.0000 1.0000
43.7700 462.0000 1.0000
43.7800 416.0000 1.0000
43.7900 394.0000 1.0000
43.8000 429.0000 1.0000
43.8100 427.0000 1.0000
43.8200 413.0000 1.0000
43.8300 419.0000 1.0000
43.8400 430.0000 1.0000
43.8500 408.0000 1.0000
43.8600 435.0000 1.0000
43.8700 444.0000 1.0000
43.8800 449.0000 1.0000
43.8900 407.0000 1.0000
43.9000 426.0000 1.0000
43.9100 437.0000 1.0000
43.9200 413.0000 1.0000
43.9300 419.0000 1.0000
43.9400 438.0000 1.0000
43.9500 450.0000 1.0000
43.9600 453.0000 1.0000
43.9700 456.0000 1.0000
43.9800 430.0000 1.0000
43.9900 436.0000 1.0000
44.0000 469.0000 1.0000
44.0100 439.0000 1.0000
44.0200 426.0000 1.0000
44.0300 422.0000 1.0000
44.0400 425.0000 1.0000
44.0500 444.0000 1.0000
44.0600 421.0000 1.0000
44.0700 442.0000 1.0000
44.0800 427.0000 1.0000
44.0900 419.0000 1.0000
44.1000 414.0000 1.0000
44.1100 429.0000 1.0000
44.1200 437.0000 1.0000
44.1300 437.0000 1.0000
44.1400 416.0000 1.0000
44.1500 424.0000 1.0000
44.1600 433.0000 1.0000
44.1700 381.0000 1.0000
44.1800 400.0000 1.0000
44.1900 430.0000 1.0000
44.2000 451.0000 1.0000
44.2100 409.0000 1.0000
44.2200 414.0000 1.0000
44.2300 410.0000 1.0000
44.2400 465.0000 1.0000
44.2500 432.0000 1.0000
44.2600 423.0000 1.0000
44.2700 409.0000 1.0000
44.2800 450.0000 1.0000
44.2900 450.0000 1.0000
44.3000 418.0000 1.0000
44.3100 451.0000 1.0000
44.3200 431.0000 1.0000
44.3300 393.0000 1.0000
44.3400 424.0000 1.0000
44.3500 421.0000 1.0000
44.3600 418.0000 1.0000
44.3700 411.0000 1.0000
44.3800 429.0000 1.0000
44.3900 444.0000 1.0000
44.4000 410.0000 1.0000
44.4100 430.0000 1.0000
44.4200 423.0000 1.0000
44.4300 411.0000 1.0000
44.4400 387.0000 1.0000
44.4500 430.0000 1.0000
44.4600 404.0000 1.0000
44.4700 415.0000 1.0000
44.4800 419.0000 1.0000
44.4900 413.0000 1.0000
44.5000 406.0000 1.0000
44.5100 431.0000 1.0000
44.5200 447.0000 1.0000
44.5300 448.0000 1.0000
44.5400 414.0000 1.0000
44.5500 448.0000 1.0000
44.5600 423.0000 1.0000
44.5700 428.0000 1.0000
44.5800 457.0000 1.0000
44.5900 409.0000 1.0000
44.6000 418.0000 1.0000
44.6100 426.0000 1.0000
44.6200 442.0000 1.0000
44.6300 425.0000 1.0000
44.6400 428.0000 1.0000
44.6500 449.0000 1.0000
44.6600 393.0000 1.0000
44.6700 441.0000 1.0000
44.6800 439.0000 1.0000
44.6900 429.0000 1.0000
44.7000 427.0000 1.0000
44.7100 448.0000 1.0000
44.7200 399.0000 1.0000
44.7300 392.0000 1.0000
44.7400 413.0000 1.0000
44.7500 420.0000 1.0000
44.7600 433.0000 1.0000
44.7700 442.0000 1.0000
44.7800 416.0000 1.0000
44.7900 411.0000 1.0000
44.8000 408.0000 1.0000
44.8100 464.0000 1.0000
44.8200 442.0000 1.0000
44.8300 378.0000 1.0000
44.8400 438.0000 1.0000
44.8500 411.0000 1.0000
44.8600 411.0000 1.0000
44.8700 413.0000 1.0000
44.8800 396.0000 1.0000
44.8900 436.0000 1.0000
44.9000 414.0000 1.0000
44.9100 391.0000 1.0000
44.9200 400.0000 1.0000
44.9300 424.0000 1.0000
44.9400 420.0000 1.0000
44.9500 463.0000 1.0000
44.9600 406.0000 1.0000
44.9700 433.0000 1.0000
44.9800 425.0000 1.0000
44.9900 416.0000 1.0000
45.0000 461.0000 1.0000
45.0100 435.0000 1.0000
45.0200 413.0000 1.0000
45.0300 417.0000 1.0000
45.0400 441.0000 1.0000
45.0500 435.0000 1.0000
45.0600 405.0000 1.0000
45.0700 405.0000 1.0000
45.0800 413.0000 1.0000
45.0900 428.0000 1.0000
45.1000 424.0000 1.0000
45.1100 412.0000 1.0000
45.1200 428.0000 1.0000
45.1300 385.0000 1.0000
45.1400 389.0000 1.0000
45.1500 426.0000 1.0000
45.1600 412.0000 1.0000
45.1700 435.0000 1.0000
45.1800 422.0000 1.0000
45.1900 422.0000 1.0000
45.2000 422.0000 1.0000
45.2100 425.0000 1.0000
45.2200 429.0000 1.0000
45.2300 376.0000 1.0000
45.2400 418.0000 1.0000
45.2500 416.0000 1.0000
45.2600 404.0000 1.0000
45.2700 399.0000 1.0000
45.2800 391.0000 1.0000
45.2900 392.0000 1.0000
45.3000 403.0000 1.0000
45.3100 383.0000 1.0000
45.3200 408.0000 1.0000
45.3300 424.0000 1.0000
45.3400 376.0000 1.0000
45.3500 428.0000 1.0000
45.3600 435.0000 1.0000
45.3700 446.0000 1.0000
45.3800 415.0000 1.0000
45.3900 377.0000 1.0000
45.4000 404.0000 1.0000
45.4100 423.0000 1.0000
45.4200 408.0000 1.0000
45.4300 395.0000 1.0000
45.4400 404.0000 1.0000
45.4500 456.0000 1.0000
45.4600 421.0000 1.0000
45.4700 437.0000 1.0000
45.4800 424.0000 1.0000
45.4900 418.0000 1.0000
45.5000 406.0000 1.0000
45.5100 393.0000 1.0000
45.5200 428.0000 1.0000
45.5300 475.0000 1.0000
45.5400 419.0000 1.0000
45.5500 403.0000 1.0000
45.5600 413.0000 1.0000
45.5700 385.0000 1.0000
45.5800 387.0000 1.0000
45.5900 423.0000 1.0000
45.6000 421.0000 1.0000
45.6100 424.0000 1.0000
45.6200 422.0000 1.0000
45.6300 416.0000 1.0000
45.6400 443.0000 1.0000
45.6500 413.0000 1.0000
45.6600 393.0000 1.0000
45.6700 402.0000 1.0000
45.6800 382.0000 1.0000
45.6900 393.0000 1.0000
45.7000 384.0000 1.0000
45.7100 418.0000 1.0000
45.7200 392.0000 1.0000
45.7300 421.0000 1.0000
45.7400 403.0000 1.0000
45.7500 415.0000 1.0000
45.7600 410.0000 1.0000
45.7700 406.0000 1.0000
45.7800 443.0000 1.0000
45.7900 394.0000 1.0000
45.8000 393.0000 1.0000
45.8100 401.0000 1.0000
45.8200 422.0000 1.0000
45.8300 384.0000 1.0000
45.8400 411.0000 1.0000
45.8500 411.0000 1.0000
45.8600 424.0000 1.0000
45.8700 408.0000 1.0000
45.8800 449.0000 1.0000
45.8900 432.0000 1.0000
45.9000 423.0000 1.0000
45.9100 421.0000 1.0000
45.9200 409.0000 1.0000
45.9300 421.0000 1.0000
45.9400 421.0000 1.0000
45.9500 409.0000 1.0000
45.9600 381.0000 1.0000
45.9700 404.0000 1.0000
45.9800 450.0000 1.0000
45.9900 416.0000 1.0000
46.0000 418.0000 1.0000
46.0100 419.0000 1.0000
46.0200 393.0000 1.0000
46.0300 399.0000 1.0000
46.0400 429.0000 1.0000
46.0500 406.0000 1.0000
46.0600 392.0000 1.0000
46.0700 415.0000 1.0000
46.0800 406.0000 1.0000
46.0900 406.0000 1.0000
46.1000 409.0000 1.0000
46.1100 413.0000 1.0000
46.1200 396.0000 1.0000
46.1300 407.0000 1.0000
46.1400 417.0000 1.0000
46.1500 429.0000 1.0000
46.1600 421.0000 1.0000
46.1700 433.0000 1.0000
46.1800 430.0000 1.0000
46.1900 426.0000 1.0000
46.2000 436.0000 1.0000
46.2100 444.0000 1.0000
46.2200 427.0000 1.0000
46.2300 400.0000 1.0000
46.2400 423.0000 1.0000
46.2500 427.0000 1.0000
46.2600 410.0000 1.0000
46.2700 420.0000 1.0000
46.2800 433.0000 1.0000
46.2900 414.0000 1.0000
46.3000 412.0000 1.0000
46.3100 382.0000 1.0000
46.3200 372.0000 1.0000
46.3300 415.0000 1.0000
46.3400 410.0000 1.0000
46.3500 408.0000 1.0000
46.3600 405.0000 1.0000
46.3700 389.0000 1.0000
46.3800 375.0000 1.0000
46.3900 420.0000 1.0000
46.4000 411.0000 1.0000
46.4100 417.0000 1.0000
46.4200 390.0000 1.0000
46.4300 437.0000 1.0000
46.4400 377.0000 1.0000
46.4500 388.0000 1.0000
46.4600 423.0000 1.0000
46.4700 415.0000 1.0000
46.4800 388.0000 1.0000
46.4900 380.0000 1.0000
46.5000 382.0000 1.0000
46.5100 414.0000 1.0000
46.5200 366.0000 1.0000
46.5300 382.0000 1.0000
46.5400 400.0000 1.0000
46.5500 410.0000 1.0000
46.5600 393.0000 1.0000
46.5700 403.0000 1.0000
46.5800 401.0000 1.0000
46.5900 389.0000 1.0000
46.6000 368.0000 1.0000
46.6100 382.0000 1.0000
46.6200 395.0000 1.0000
46.6300 380.0000 1.0000
46.6400 400.0000 1.0000
46.6500 434.0000 1.0000
46.6600 408.0000 1.0000
46.6700 408.0000 1.0000
46.6800 404.0000 1.0000
46.6900 397.0000 1.0000
46.7000 381.0000 1.0000
46.7100 419.0000 1.0000
46.7200 362.0000 1.0000
46.7300 394.0000 1.0000
46.7400 394.0000 1.0000
46.7500 402.0000 1.0000
46.7600 411.0000 1.0000
46.7700 414.0000 1.0000
46.7800 420.0000 1.0000
46.7900 408.0000 1.0000
46.8000 392.0000 1.0000
46.8100 407.0000 1.0000
46.8200 378.0000 1.0000
46.8300 386.0000 1.0000
46.8400 425.0000 1.0000
46.8500 421.0000 1.0000
46.8600 411.0000 1.0000
46.8700 392.0000 1.0000
46.8800 381.0000 1.0000
46.8900 377.0000 1.0000
46.9000 403.0000 1.0000
46.9100 407.0000 1.0000
46.9200 398.0000 1.0000
46.9300 390.0000 1.0000
46.9400 417.0000 1.0000
46.9500 396.0000 1.0000
46.9600 380.0000 1.0000
46.9700 407.0000 1.0000
46.9800 414.0000 1.0000
46.9900 437.0000 1.0000
47.0000 395.0000 1.0000
47.0100 404.0000 1.0000
47.0200 400.0000 1.0000
47.0300 372.0000 1.0000
47.0400 372.0000 1.0000
47.0500 381.0000 1.0000
47.0600 412.0000 1.0000
47.0700 425.0000 1.0000
47.0800 419.0000 1.0000
47.0900 389.0000 1.0000
47.1000 402.0000 1.0000
47.1100 388.0000 1.0000
47.1200 410.0000 1.0000
47.1300 406.0000 1.0000
47.1400 374.0000 1.0000
47.1500 381.0000 1.0000
47.1600 389.0000 1.0000
47.1700 394.0000 1.0000
47.1800 387.0000 1.0000
47.1900 403.0000 1.0000
47.2000 388.0000 1.0000
47.2100 415.0000 1.0000
47.2200 389.0000 1.0000
47.2300 391.0000 1.0000
47.2400 384.0000 1.0000
47.2500 393.0000 1.0000
47.2600 397.0000 1.0000
47.2700 397.0000 1.0000
47.2800 377.0000 1.0000
47.2900 382.0000 1.0000
47.3000 377.0000 1.0000
47.3100 406.0000 1.0000
47.3200 390.0000 1.0000
47.3300 397.0000 1.0000
47.3400 390.0000 1.0000
47.3500 352.0000 1.0000
47.3600 387.0000 1.0000
47.3700 410.0000 1.0000
47.3800 414.0000 1.0000
47.3900 428.0000 1.0000
47.4000 378.0000 1.0000
47.4100 398.0000 1.0000
47.4200 386.0000 1.0000
47.4300 381.0000 1.0000
47.4400 372.0000 1.0000
47.4500 391.0000 1.0000
47.4600 380.0000 1.0000
47.4700 418.0000 1.0000
47.4800 384.0000 1.0000
47.4900 395.0000 1.0000
47.5000 406.0000 1.0000
47.5100 383.0000 1.0000
47.5200 411.0000 1.0000
47.5300 383.0000 1.0000
47.5400 398.0000 1.0000
47.5500 408.0000 1.0000
47.5600 392.0000 1.0000
47.5700 395.0000 1.0000
47.5800 391.0000 1.0000
47.5900 379.0000 1.0000
47.6000 357.0000 1.0000
47.6100 406.0000 1.0000
47.6200 393.0000 1.0000
47.6300 397.0000 1.0000
47.6400 384.0000 1.0000
47.6500 387.0000 1.0000
47.6600 397.0000 1.0000
47.6700 414.0000 1.0000
47.6800 369.0000 1.0000
47.6900 387.0000 1.0000
47.7000 372.0000 1.0000
47.7100 392.0000 1.0000
47.7200 370.0000 1.0000
47.7300 386.0000 1.0000
47.7400 412.0000 1.0000
47.7500 377.0000 1.0000
47.7600 429.0000 1.0000
47.7700 369.0000 1.0000
47.7800 363.0000 1.0000
47.7900 407.0000 1.0000
47.8000 381.0000 1.0000
47.8100 355.0000 1.0000
47.8200 388.0000 1.0000
47.8300 392.0000 1.0000
47.8400 389.0000 1.0000
47.8500 369.0000 1.0000
47.8600 376.0000 1.0000
47.8700 377.0000 1.0000
47.8800 404.0000 1.0000
47.8900 439.0000 1.0000
47.9000 389.0000 1.0000
47.9100 396.0000 1.0000
47.9200 407.0000 1.0000
47.9300 372.0000 1.0000
47.9400 405.0000 1.0000
47.9500 362.0000 1.0000
47.9600 375.0000 1.0000
47.9700 400.0000 1.0000
47.9800 388.0000 1.0000
47.9900 382.0000 1.0000
48.0000 371.0000 1.0000
48.0100 375.0000 1.0000
48.0200 379.0000 1.0000
48.0300 371.0000 1.0000
48.0400 398.0000 1.0000
48.0500 379.0000 1.0000
48.0600 399.0000 1.0000
48.0700 384.0000 1.0000
48.0800 377.0000 1.0000
48.0900 381.0000 1.0000
48.1000 370.0000 1.0000
48.1100 417.0000 1.0000
48.1200 385.0000 1.0000
48.1300 365.0000 1.0000
48.1400 382.0000 1.0000
48.1500 372.0000 1.0000
48.1600 362.0000 1.0000
48.1700 386.0000 1.0000
48.1800 381.0000 1.0000
48.1900 371.0000 1.0000
48.2000 367.0000 1.0000
48.2100 379.0000 1.0000
48.2200 388.0000 1.0000
48.2300 382.0000 1.0000
48.2400 385.0000 1.0000
48.2500 379.0000 1.0000
48.2600 369.0000 1.0000
48.2700 409.0000 1.0000
48.2800 380.0000 1.0000
48.2900 399.0000 1.0000
48.3000 373.0000 1.0000
48.3100 388.0000 1.0000
48.3200 403.0000 1.0000
48.3300 373.0000 1.0000
48.3400 379.0000 1.0000
48.3500 376.0000 1.0000
48.3600 387.0000 1.0000
48.3700 400.0000 1.0000
48.3800 381.0000 1.0000
48.3900 395.0000 1.0000
48.4000 366.0000 1.0000
48.4100 356.0000 1.0000
48.4200 389.0000 1.0000
48.4300 401.0000 1.0000
48.4400 357.0000 1.0000
48.4500 353.0000 1.0000
48.4600 402.0000 1.0000
48.4700 392.0000 1.0000
48.4800 390.0000 1.0000
48.4900 385.0000 1.0000
48.5000 385.0000 1.0000
48.5100 381.0000 1.0000
48.5200 375.0000 1.0000
48.5300 401.0000 1.0000
48.5400 387.0000 1.0000
48.5500 373.0000 1.0000
48.5600 372.0000 1.0000
48.5700 391.0000 1.0000
48.5800 379.0000 1.0000
48.5900 360.0000 1.0000
48.6000 355.0000 1.0000
48.6100 393.0000 1.0000
48.6200 374.0000 1.0000
48.6300 380.0000 1.0000
48.6400 408.0000 1.0000
48.6500 392.0000 1.0000
48.6600 400.0000 1.0000
48.6700 393.0000 1.0000
48.6800 409.0000 1.0000
48.6900 393.0000 1.0000
48.7000 387.0000 1.0000
48.7100 382.0000 1.0000
48.7200 397.0000 1.0000
48.7300 373.0000 1.0000
48.7400 385.0000 1.0000
48.7500 355.0000 1.0000
48.7600 355.0000 1.0000
48.7700 359.0000 1.0000
48.7800 373.0000 1.0000
48.7900 391.0000 1.0000
48.8000 390.0000 1.0000
48.8100 378.0000 1.0000
48.8200 344.0000 1.0000
48.8300 402.0000 1.0000
48.8400 376.0000 1.0000
48.8500 365.0000 1.0000
48.8600 367.0000 1.0000
48.8700 375.0000 1.0000
48.8800 347.0000 1.0000
48.8900 393.0000 1.0000
48.9000 373.0000 1.0000
48.9100 430.0000 1.0000
48.9200 374.0000 1.0000
48.9300 357.0000 1.0000
48.9400 395.0000 1.0000
48.9500 387.0000 1.0000
48.9600 394.0000 1.0000
48.9700 398.0000 1.0000
48.9800 382.0000 1.0000
48.9900 393.0000 1.0000
49.0000 378.0000 1.0000
49.0100 427.0000 1.0000
49.0200 389.0000 1.0000
49.0300 373.0000 1.0000
49.0400 399.0000 1.0000
49.0500 368.0000 1.0000
49.0600 377.0000 1.0000
49.0700 375.0000 1.0000
49.0800 379.0000 1.0000
49.0900 395.0000 1.0000
49.1000 416.0000 1.0000
49.1100 390.0000 1.0000
49.1200 402.0000 1.0000
49.1300 381.0000 1.0000
49.1400 418.0000 1.0000
49.1500 395.0000 1.0000
49.1600 414.0000 1.0000
49.1700 421.0000 1.0000
49.1800 408.0000 1.0000
49.1900 398.0000 1.0000
49.2000 445.0000 1.0000
49.2100 399.0000 1.0000
49.2200 413.0000 1.0000
49.2300 403.0000 1.0000
49.2400 423.0000 1.0000
49.2500 452.0000 1.0000
49.2600 432.0000 1.0000
49.2700 427.0000 1.0000
49.2800 412.0000 1.0000
49.2900 409.0000 1.0000
49.3000 397.0000 1.0000
49.3100 451.0000 1.0000
49.3200 416.0000 1.0000
49.3300 446.0000 1.0000
49.3400 432.0000 1.0000
49.3500 445.0000 1.0000
49.3600 448.0000 1.0000
49.3700 478.0000 1.0000
49.3800 440.0000 1.0000
49.3900 459.0000 1.0000
49.4000 456.0000 1.0000
49.4100 455.0000 1.0000
49.4200 459.0000 1.0000
49.4300 454.0000 1.0000
49.4400 478.0000 1.0000
49.4500 482.0000 1.0000
49.4600 477.0000 1.0000
49.4700 434.0000 1.0000
49.4800 465.0000 1.0000
49.4900 432.0000 1.0000
49.5000 476.0000 1.0000
49.5100 449.0000 1.0000
49.5200 432.0000 1.0000
49.5300 428.0000 1.0000
49.5400 401.0000 1.0000
49.5500 464.0000 1.0000
49.5600 402.0000 1.0000
49.5700 425.0000 1.0000
49.5800 442.0000 1.0000
49.5900 424.0000 1.0000
49.6000 445.0000 1.0000
49.6100 410.0000 1.0000
49.6200 421.0000 1.0000
49.6300 415.0000 1.0000
49.6400 406.0000 1.0000
49.6500 425.0000 1.0000
49.6600 395.0000 1.0000
49.6700 379.0000 1.0000
49.6800 411.0000 1.0000
49.6900 408.0000 1.0000
49.7000 420.0000 1.0000
49.7100 391.0000 1.0000
49.7200 435.0000 1.0000
49.7300 382.0000 1.0000
49.7400 385.0000 1.0000
49.7500 409.0000 1.0000
49.7600 371.0000 1.0000
49.7700 417.0000 1.0000
49.7800 406.0000 1.0000
49.7900 390.0000 1.0000
49.8000 403.0000 1.0000
49.8100 417.0000 1.0000
49.8200 398.0000 1.0000
49.8300 391.0000 1.0000
49.8400 377.0000 1.0000
49.8500 397.0000 1.0000
49.8600 355.0000 1.0000
49.8700 387.0000 1.0000
49.8800 407.0000 1.0000
49.8900 381.0000 1.0000
49.9000 378.0000 1.0000
49.9100 386.0000 1.0000
49.9200 349.0000 1.0000
49.9300 336.0000 1.0000
49.9400 380.0000 1.0000
49.9500 393.0000 1.0000
49.9600 418.0000 1.0000
49.9700 402.0000 1.0000
49.9800 418.0000 1.0000
49.9900 380.0000 1.0000
50.0000 362.0000 1.0000
50.0100 390.0000 1.0000
50.0200 374.0000 1.0000
50.0300 394.0000 1.0000
50.0400 401.0000 1.0000
50.0500 413.0000 1.0000
50.0600 376.0000 1.0000
50.0700 383.0000 1.0000
50.0800 397.0000 1.0000
50.0900 382.0000 1.0000
50.1000 397.0000 1.0000
50.1100 391.0000 1.0000
50.1200 374.0000 1.0000
50.1300 384.0000 1.0000
50.1400 362.0000 1.0000
50.1500 382.0000 1.0000
50.1600 370.0000 1.0000
50.1700 363.0000 1.0000
50.1800 395.0000 1.0000
50.1900 397.0000 1.0000
50.2000 415.0000 1.0000
50.2100 416.0000 1.0000
50.2200 375.0000 1.0000
50.2300 369.0000 1.0000
50.2400 398.0000 1.0000
50.2500 423.0000 1.0000
50.2600 352.0000 1.0000
50.2700 395.0000 1.0000
50.2800 394.0000 1.0000
50.2900 344.0000 1.0000
50.3000 356.0000 1.0000
50.3100 387.0000 1.0000
50.3200 376.0000 1.0000
50.3300 383.0000 1.0000
50.3400 387.0000 1.0000
50.3500 397.0000 1.0000
50.3600 394.0000 1.0000
50.3700 404.0000 1.0000
50.3800 373.0000 1.0000
50.3900 384.0000 1.0000
50.4000 362.0000 1.0000
50.4100 394.0000 1.0000
50.4200 409.0000 1.0000
50.4300 388.0000 1.0000
50.4400 387.0000 1.0000
50.4500 364.0000 1.0000
50.4600 375.0000 1.0000
50.4700 385.0000 1.0000
50.4800 371.0000 1.0000
50.4900 374.0000 1.0000
50.5000 398.0000 1.0000
50.5100 372.0000 1.0000
50.5200 386.0000 1.0000
50.5300 389.0000 1.0000
50.5400 393.0000 1.0000
50.5500 391.0000 1.0000
50.5600 398.0000 1.0000
50.5700 404.0000 1.0000
50.5800 420.0000 1.0000
50.5900 403.0000 1.0000
50.6000 409.0000 1.0000
50.6100 385.0000 1.0000
50.6200 408.0000 1.0000
50.6300 389.0000 1.0000
50.6400 401.0000 1.0000
50.6500 378.0000 1.0000
50.6600 388.0000 1.0000
50.6700 400.0000 1.0000
50.6800 390.0000 1.0000
50.6900 396.0000 1.0000
50.7000 385.0000 1.0000
50.7100 406.0000 1.0000
50.7200 386.0000 1.0000
50.7300 371.0000 1.0000
50.7400 404.0000 1.0000
50.7500 404.0000 1.0000
50.7600 389.0000 1.0000
50.7700 397.0000 1.0000
50.7800 364.0000 1.0000
50.7900 384.0000 1.0000
50.8000 373.0000 1.0000
50.8100 394.0000 1.0000
50.8200 404.0000 1.0000
50.8300 390.0000 1.0000
50.8400 393.0000 1.0000
50.8500 379.0000 1.0000
50.8600 394.0000 1.0000
50.8700 367.0000 1.0000
50.8800 377.0000 1.0000
50.8900 415.0000 1.0000
50.9000 420.0000 1.0000
50.9100 394.0000 1.0000
50.9200 380.0000 1.0000
50.9300 406.0000 1.0000
50.9400 417.0000 1.0000
50.9500 404.0000 1.0000
50.9600 407.0000 1.0000
50.9700 398.0000 1.0000
50.9800 409.0000 1.0000
50.9900 392.0000 1.0000
51.0000 425.0000 1.0000
51.0100 451.0000 1.0000
51.0200 452.0000 1.0000
51.0300 414.0000 1.0000
51.0400 470.0000 1.0000
51.0500 451.0000 1.0000
51.0600 418.0000 1.0000
51.0700 445.0000 1.0000
51.0800 449.0000 1.0000
51.0900 478.0000 1.0000
51.1000 463.0000 1.0000
51.1100 506.0000 1.0000
51.1200 509.0000 1.0000
51.1300 496.0000 1.0000
51.1400 562.0000 1.0000
51.1500 546.0000 1.0000
51.1600 564.0000 1.0000
51.1700 563.0000 1.0000
51.1800 580.0000 1.0000
51.1900 543.0000 1.0000
51.2000 558.0000 1.0000
51.2100 637.0000 1.0000
51.2200 576.0000 1.0000
51.2300 672.0000 1.0000
51.2400 617.0000 1.0000
51.2500 703.0000 1.0000
51.2600 770.0000 1.0000
51.2700 812.0000 1.0000
51.2800 821.0000 1.0000
51.2900 850.0000 1.0000
51.3000 918.0000 1.0000
51.3100 974.0000 1.0000
51.3200 1034.0000 1.0000
51.3300 1094.0000 1.0000
51.3400 1109.0000 1.0000
51.3500 1210.0000 1.0000
51.3600 1394.0000 1.0000
51.3700 1493.0000 1.0000
51.3800 1596.0000 1.0000
51.3900 1625.0000 1.0000
51.4000 1803.0000 1.0000
51.4100 1973.0000 1.0000
51.4200 2130.0000 1.0000
51.4300 2183.0000 1.0000
51.4400 2259.0000 1.0000
51.4500 2408.0000 1.0000
51.4600 2512.0000 1.0000
51.4700 2577.0000 1.0000
51.4800 2603.0000 1.0000
51.4900 2606.0000 1.0000
51.5000 2566.0000 1.0000
51.5100 2527.0000 1.0000
51.5200 2498.0000 1.0000
51.5300 2441.0000 1.0000
51.5400 2301.0000 1.0000
51.5500 2210.0000 1.0000
51.5600 2227.0000 1.0000
51.5700 2134.0000 1.0000
51.5800 2015.0000 1.0000
51.5900 2052.0000 1.0000
51.6000 1926.0000 1.0000
51.6100 1860.0000 1.0000
51.6200 1806.0000 1.0000
51.6300 1712.0000 1.0000
51.6400 1651.0000 1.0000
51.6500 1591.0000 1.0000
51.6600 1551.0000 1.0000
51.6700 1452.0000 1.0000
51.6800 1344.0000 1.0000
51.6900 1219.0000 1.0000
51.7000 1096.0000 1.0000
51.7100 1067.0000 1.0000
51.7200 984.0000 1.0000
51.7300 932.0000 1.0000
51.7400 888.0000 1.0000
51.7500 817.0000 1.0000
51.7600 819.0000 1.0000
51.7700 783.0000 1.0000
51.7800 709.0000 1.0000
51.7900 684.0000 1.0000
51.8000 667.0000 1.0000
51.8100 654.0000 1.0000
51.8200 604.0000 1.0000
51.8300 587.0000 1.0000
51.8400 580.0000 1.0000
51.8500 558.0000 1.0000
51.8600 552.0000 1.0000
51.8700 532.0000 1.0000
51.8800 503.0000 1.0000
51.8900 498.0000 1.0000
51.9000 561.0000 1.0000
51.9100 522.0000 1.0000
51.9200 480.0000 1.0000
51.9300 483.0000 1.0000
51.9400 485.0000 1.0000
51.9500 479.0000 1.0000
51.9600 440.0000 1.0000
51.9700 432.0000 1.0000
51.9800 460.0000 1.0000
51.9900 479.0000 1.0000
52.0000 449.0000 1.0000
52.0100 434.0000 1.0000
52.0200 426.0000 1.0000
52.0300 459.0000 1.0000
52.0400 429.0000 1.0000
52.0500 391.0000 1.0000
52.0600 434.0000 1.0000
52.0700 420.0000 1.0000
52.0800 408.0000 1.0000
52.0900 415.0000 1.0000
52.1000 424.0000 1.0000
52.1100 413.0000 1.0000
52.1200 429.0000 1.0000
52.1300 426.0000 1.0000
52.1400 405.0000 1.0000
52.1500 421.0000 1.0000
52.1600 403.0000 1.0000
52.1700 436.0000 1.0000
52.1800 392.0000 1.0000
52.1900 426.0000 1.0000
52.2000 402.0000 1.0000
52.2100 370.0000 1.0000
52.2200 372.0000 1.0000
52.2300 374.0000 1.0000
52.2400 419.0000 1.0000
52.2500 419.0000 1.0000
52.2600 423.0000 1.0000
52.2700 374.0000 1.0000
52.2800 374.0000 1.0000
52.2900 401.0000 1.0000
52.3000 403.0000 1.0000
52.3100 361.0000 1.0000
52.3200 391.0000 1.0000
52.3300 391.0000 1.0000
52.3400 377.0000 1.0000
52.3500 388.0000 1.0000
52.3600 395.0000 1.0000
52.3700 358.0000 1.0000
52.3800 403.0000 1.0000
52.3900 377.0000 1.0000
52.4000 372.0000 1.0000
52.4100 383.0000 1.0000
52.4200 440.0000 1.0000
52.4300 414.0000 1.0000
52.4400 415.0000 1.0000
52.4500 372.0000 1.0000
52.4600 396.0000 1.0000
52.4700 400.0000 1.0000
52.4800 408.0000 1.0000
52.4900 388.0000 1.0000
52.5000 387.0000 1.0000
52.5100 393.0000 1.0000
52.5200 382.0000 1.0000
52.5300 392.0000 1.0000
52.5400 372.0000 1.0000
52.5500 391.0000 1.0000
52.5600 398.0000 1.0000
52.5700 373.0000 1.0000
52.5800 371.0000 1.0000
52.5900 380.0000 1.0000
52.6000 364.0000 1.0000
52.6100 359.0000 1.0000
52.6200 377.0000 1.0000
52.6300 385.0000 1.0000
52.6400 369.0000 1.0000
52.6500 378.0000 1.0000
52.6600 374.0000 1.0000
52.6700 407.0000 1.0000
52.6800 396.0000 1.0000
52.6900 386.0000 1.0000
52.7000 360.0000 1.0000
52.7100 365.0000 1.0000
52.7200 351.0000 1.0000
52.7300 365.0000 1.0000
52.7400 368.0000 1.0000
52.7500 373.0000 1.0000
52.7600 372.0000 1.0000
52.7700 398.0000 1.0000
52.7800 384.0000 1.0000
52.7900 362.0000 1.0000
52.8000 361.0000 1.0000
52.8100 385.0000 1.0000
52.8200 396.0000 1.0000
52.8300 356.0000 1.0000
52.8400 375.0000 1.0000
52.8500 384.0000 1.0000
52.8600 411.0000 1.0000
52.8700 402.0000 1.0000
52.8800 387.0000 1.0000
52.8900 400.0000 1.0000
52.9000 379.0000 1.0000
52.9100 389.0000 1.0000
52.9200 376.0000 1.0000
52.9300 380.0000 1.0000
52.9400 381.0000 1.0000
52.9500 334.0000 1.0000
52.9600 383.0000 1.0000
52.9700 380.0000 1.0000
52.9800 367.0000 1.0000
52.9900 367.0000 1.0000
53.0000 365.0000 1.0000
53.0100 368.0000 1.0000
53.0200 367.0000 1.0000
53.0300 375.0000 1.0000
53.0400 396.0000 1.0000
53.0500 361.0000 1.0000
53.0600 335.0000 1.0000
53.0700 338.0000 1.0000
53.0800 386.0000 1.0000
53.0900 365.0000 1.0000
53.1000 375.0000 1.0000
53.1100 385.0000 1.0000
53.1200 367.0000 1.0000
53.1300 375.0000 1.0000
53.1400 356.0000 1.0000
53.1500 372.0000 1.0000
53.1600 385.0000 1.0000
53.1700 372.0000 1.0000
53.1800 401.0000 1.0000
53.1900 396.0000 1.0000
53.2000 385.0000 1.0000
53.2100 366.0000 1.0000
53.2200 377.0000 1.0000
53.2300 366.0000 1.0000
53.2400 392.0000 1.0000
53.2500 374.0000 1.0000
53.2600 403.0000 1.0000
53.2700 393.0000 1.0000
53.2800 336.0000 1.0000
53.2900 387.0000 1.0000
53.3000 339.0000 1.0000
53.3100 369.0000 1.0000
53.3200 388.0000 1.0000
53.3300 355.0000 1.0000
53.3400 365.0000 1.0000
53.3500 372.0000 1.0000
53.3600 346.0000 1.0000
53.3700 354.0000 1.0000
53.3800 346.0000 1.0000
53.3900 346.0000 1.0000
53.4000 378.0000 1.0000
53.4100 392.0000 1.0000
53.4200 381.0000 1.0000
53.4300 362.0000 1.0000
53.4400 356.0000 1.0000
53.4500 380.0000 1.0000
53.4600 345.0000 1.0000
53.4700 377.0000 1.0000
53.4800 377.0000 1.0000
53.4900 381.0000 1.0000
53.5000 368.0000 1.0000
53.5100 360.0000 1.0000
53.5200 358.0000 1.0000
53.5300 362.0000 1.0000
53.5400 357.0000 1.0000
53.5500 337.0000 1.0000
53.5600 352.0000 1.0000
53.5700 363.0000 1.0000
53.5800 362.0000 1.0000
53.5900 350.0000 1.0000
53.6000 383.0000 1.0000
53.6100 381.0000 1.0000
53.6200 367.0000 1.0000
53.6300 360.0000 1.0000
53.6400 399.0000 1.0000
53.6500 342.0000 1.0000
53.6600 354.0000 1.0000
53.6700 393.0000 1.0000
53.6800 389.0000 1.0000
53.6900 371.0000 1.0000
53.7000 383.0000 1.0000
53.7100 372.0000 1.0000
53.7200 401.0000 1.0000
53.7300 372.0000 1.0000
53.7400 374.0000 1.0000
53.7500 385.0000 1.0000
53.7600 378.0000 1.0000
53.7700 413.0000 1.0000
53.7800 413.0000 1.0000
53.7900 394.0000 1.0000
53.8000 388.0000 1.0000
53.8100 388.0000 1.0000
53.8200 380.0000 1.0000
53.8300 389.0000 1.0000
53.8400 398.0000 1.0000
53.8500 395.0000 1.0000
53.8600 400.0000 1.0000
53.8700 386.0000 1.0000
53.8800 428.0000 1.0000
53.8900 445.0000 1.0000
53.9000 426.0000 1.0000
53.9100 432.0000 1.0000
53.9200 450.0000 1.0000
53.9300 428.0000 1.0000
53.9400 441.0000 1.0000
53.9500 460.0000 1.0000
53.9600 448.0000 1.0000
53.9700 444.0000 1.0000
53.9800 460.0000 1.0000
53.9900 444.0000 1.0000
54.0000 465.0000 1.0000
54.0100 476.0000 1.0000
54.0200 463.0000 1.0000
54.0300 460.0000 1.0000
54.0400 495.0000 1.0000
54.0500 467.0000 1.0000
54.0600 470.0000 1.0000
54.0700 477.0000 1.0000
54.0800 437.0000 1.0000
54.0900 453.0000 1.0000
54.1000 475.0000 1.0000
54.1100 461.0000 1.0000
54.1200 471.0000 1.0000
54.1300 435.0000 1.0000
54.1400 434.0000 1.0000
54.1500 416.0000 1.0000
54.1600 432.0000 1.0000
54.1700 419.0000 1.0000
54.1800 420.0000 1.0000
54.1900 452.0000 1.0000
54.2000 432.0000 1.0000
54.2100 397.0000 1.0000
54.2200 424.0000 1.0000
54.2300 457.0000 1.0000
54.2400 431.0000 1.0000
54.2500 429.0000 1.0000
54.2600 458.0000 1.0000
54.2700 420.0000 1.0000
54.2800 402.0000 1.0000
54.2900 432.0000 1.0000
54.3000 444.0000 1.0000
54.3100 443.0000 1.0000
54.3200 421.0000 1.0000
54.3300 457.0000 1.0000
54.3400 436.0000 1.0000
54.3500 448.0000 1.0000
54.3600 429.0000 1.0000
54.3700 454.0000 1.0000
54.3800 473.0000 1.0000
54.3900 499.0000 1.0000
54.4000 499.0000 1.0000
54.4100 497.0000 1.0000
54.4200 548.0000 1.0000
54.4300 520.0000 1.0000
54.4400 494.0000 1.0000
54.4500 542.0000 1.0000
54.4600 544.0000 1.0000
54.4700 545.0000 1.0000
54.4800 586.0000 1.0000
54.4900 578.0000 1.0000
54.5000 556.0000 1.0000
54.5100 569.0000 1.0000
54.5200 548.0000 1.0000
54.5300 575.0000 1.0000
54.5400 558.0000 1.0000
54.5500 546.0000 1.0000
54.5600 504.0000 1.0000
54.5700 541.0000 1.0000
54.5800 593.0000 1.0000
54.5900 541.0000 1.0000
54.6000 556.0000 1.0000
54.6100 529.0000 1.0000
54.6200 556.0000 1.0000
54.6300 544.0000 1.0000
54.6400 531.0000 1.0000
54.6500 534.0000 1.0000
54.6600 531.0000 1.0000
54.6700 527.0000 1.0000
54.6800 527.0000 1.0000
54.6900 476.0000 1.0000
54.7000 482.0000 1.0000
54.7100 511.0000 1.0000
54.7200 471.0000 1.0000
54.7300 453.0000 1.0000
54.7400 442.0000 1.0000
54.7500 446.0000 1.0000
54.7600 417.0000 1.0000
54.7700 416.0000 1.0000
54.7800 414.0000 1.0000
54.7900 457.0000 1.0000
54.8000 449.0000 1.0000
54.8100 437.0000 1.0000
54.8200 404.0000 1.0000
54.8300 449.0000 1.0000
54.8400 427.0000 1.0000
54.8500 397.0000 1.0000
54.8600 381.0000 1.0000
54.8700 408.0000 1.0000
54.8800 390.0000 1.0000
54.8900 375.0000 1.0000
54.9000 377.0000 1.0000
54.9100 381.0000 1.0000
54.9200 404.0000 1.0000
54.9300 444.0000 1.0000
54.9400 392.0000 1.0000
54.9500 390.0000 1.0000
54.9600 365.0000 1.0000
54.9700 410.0000 1.0000
54.9800 397.0000 1.0000
54.9900 381.0000 1.0000
55.0000 371.0000 1.0000
55.0100 363.0000 1.0000
55.0200 358.0000 1.0000
55.0300 377.0000 1.0000
55.0400 417.0000 1.0000
55.0500 367.0000 1.0000
55.0600 390.0000 1.0000
55.0700 357.0000 1.0000
55.0800 381.0000 1.0000
55.0900 376.0000 1.0000
55.1000 383.0000 1.0000
55.1100 376.0000 1.0000
55.1200 361.0000 1.0000
55.1300 372.0000 1.0000
55.1400 346.0000 1.0000
55.1500 342.0000 1.0000
55.1600 394.0000 1.0000
55.1700 373.0000 1.0000
55.1800 331.0000 1.0000
55.1900 354.0000 1.0000
55.2000 358.0000 1.0000
55.2100 346.0000 1.0000
55.2200 399.0000 1.0000
55.2300 382.0000 1.0000
55.2400 371.0000 1.0000
55.2500 375.0000 1.0000
55.2600 385.0000 1.0000
55.2700 369.0000 1.0000
55.2800 381.0000 1.0000
55.2900 371.0000 1.0000
55.3000 377.0000 1.0000
55.3100 362.0000 1.0000
55.3200 373.0000 1.0000
55.3300 349.0000 1.0000
55.3400 380.0000 1.0000
55.3500 345.0000 1.0000
55.3600 364.0000 1.0000
55.3700 374.0000 1.0000
55.3800 354.0000 1.0000
55.3900 360.0000 1.0000
55.4000 341.0000 1.0000
55.4100 360.0000 1.0000
55.4200 352.0000 1.0000
55.4300 341.0000 1.0000
55.4400 348.0000 1.0000
55.4500 348.0000 1.0000
55.4600 365.0000 1.0000
55.4700 355.0000 1.0000
55.4800 342.0000 1.0000
55.4900 345.0000 1.0000
55.5000 348.0000 1.0000
55.5100 370.0000 1.0000
55.5200 347.0000 1.0000
55.5300 353.0000 1.0000
55.5400 345.0000 1.0000
55.5500 358.0000 1.0000
55.5600 372.0000 1.0000
55.5700 375.0000 1.0000
55.5800 385.0000 1.0000
55.5900 362.0000 1.0000
55.6000 359.0000 1.0000
55.6100 371.0000 1.0000
55.6200 344.0000 1.0000
55.6300 378.0000 1.0000
55.6400 378.0000 1.0000
55.6500 376.0000 1.0000
55.6600 323.0000 1.0000
55.6700 360.0000 1.0000
55.6800 372.0000 1.0000
55.6900 362.0000 1.0000
55.7000 359.0000 1.0000
55.7100 337.0000 1.0000
55.7200 330.0000 1.0000
55.7300 347.0000 1.0000
55.7400 354.0000 1.0000
55.7500 354.0000 1.0000
55.7600 346.0000 1.0000
55.7700 367.0000 1.0000
55.7800 350.0000 1.0000
55.7900 351.0000 1.0000
55.8000 341.0000 1.0000
55.8100 368.0000 1.0000
55.8200 377.0000 1.0000
55.8300 389.0000 1.0000
55.8400 349.0000 1.0000
55.8500 384.0000 1.0000
55.8600 360.0000 1.0000
55.8700 346.0000 1.0000
55.8800 328.0000 1.0000
55.8900 369.0000 1.0000
55.9000 357.0000 1.0000
55.9100 340.0000 1.0000
55.9200 321.0000 1.0000
55.9300 343.0000 1.0000
55.9400 355.0000 1.0000
55.9500 337.0000 1.0000
55.9600 369.0000 1.0000
55.9700 360.0000 1.0000
55.9800 371.0000 1.0000
55.9900 360.0000 1.0000
56.0000 346.0000 1.0000
56.0100 323.0000 1.0000
56.0200 364.0000 1.0000
56.0300 348.0000 1.0000
56.0400 352.0000 1.0000
56.0500 330.0000 1.0000
56.0600 351.0000 1.0000
56.0700 346.0000 1.0000
56.0800 333.0000 1.0000
56.0900 368.0000 1.0000
56.1000 344.0000 1.0000
56.1100 324.0000 1.0000
56.1200 337.0000 1.0000
56.1300 371.0000 1.0000
56.1400 335.0000 1.0000
56.1500 347.0000 1.0000
56.1600 332.0000 1.0000
56.1700 363.0000 1.0000
56.1800 342.0000 1.0000
56.1900 368.0000 1.0000
56.2000 350.0000 1.0000
56.2100 351.0000 1.0000
56.2200 357.0000 1.0000
56.2300 377.0000 1.0000
56.2400 340.0000 1.0000
56.2500 327.0000 1.0000
56.2600 363.0000 1.0000
56.2700 347.0000 1.0000
56.2800 360.0000 1.0000
56.2900 346.0000 1.0000
56.3000 347.0000 1.0000
56.3100 367.0000 1.0000
56.3200 364.0000 1.0000
56.3300 369.0000 1.0000
56.3400 352.0000 1.0000
56.3500 347.0000 1.0000
56.3600 360.0000 1.0000
56.3700 366.0000 1.0000
56.3800 380.0000 1.0000
56.3900 360.0000 1.0000
56.4000 371.0000 1.0000
56.4100 352.0000 1.0000
56.4200 358.0000 1.0000
56.4300 336.0000 1.0000
56.4400 372.0000 1.0000
56.4500 351.0000 1.0000
56.4600 357.0000 1.0000
56.4700 315.0000 1.0000
56.4800 366.0000 1.0000
56.4900 357.0000 1.0000
56.5000 352.0000 1.0000
56.5100 325.0000 1.0000
56.5200 333.0000 1.0000
56.5300 330.0000 1.0000
56.5400 352.0000 1.0000
56.5500 329.0000 1.0000
56.5600 353.0000 1.0000
56.5700 342.0000 1.0000
56.5800 363.0000 1.0000
56.5900 338.0000 1.0000
56.6000 378.0000 1.0000
56.6100 344.0000 1.0000
56.6200 341.0000 1.0000
56.6300 365.0000 1.0000
56.6400 361.0000 1.0000
56.6500 374.0000 1.0000
56.6600 343.0000 1.0000
56.6700 363.0000 1.0000
56.6800 349.0000 1.0000
56.6900 382.0000 1.0000
56.7000 360.0000 1.0000
56.7100 349.0000 1.0000
56.7200 372.0000 1.0000
56.7300 352.0000 1.0000
56.7400 342.0000 1.0000
56.7500 327.0000 1.0000
56.7600 340.0000 1.0000
56.7700 352.0000 1.0000
56.7800 364.0000 1.0000
56.7900 352.0000 1.0000
56.8000 345.0000 1.0000
56.8100 348.0000 1.0000
56.8200 342.0000 1.0000
56.8300 341.0000 1.0000
56.8400 326.0000 1.0000
56.8500 355.0000 1.0000
56.8600 343.0000 1.0000
56.8700 361.0000 1.0000
56.8800 348.0000 1.0000
56.8900 336.0000 1.0000
56.9000 350.0000 1.0000
56.9100 356.0000 1.0000
56.9200 360.0000 1.0000
56.9300 357.0000 1.0000
56.9400 343.0000 1.0000
56.9500 373.0000 1.0000
56.9600 353.0000 1.0000
56.9700 371.0000 1.0000
56.9800 333.0000 1.0000
56.9900 346.0000 1.0000
57.0000 369.0000 1.0000
57.0100 342.0000 1.0000
57.0200 366.0000 1.0000
57.0300 384.0000 1.0000
57.0400 359.0000 1.0000
57.0500 368.0000 1.0000
57.0600 376.0000 1.0000
57.0700 350.0000 1.0000
57.0800 365.0000 1.0000
57.0900 349.0000 1.0000
57.1000 353.0000 1.0000
57.1100 340.0000 1.0000
57.1200 343.0000 1.0000
57.1300 323.0000 1.0000
57.1400 365.0000 1.0000
57.1500 352.0000 1.0000
57.1600 336.0000 1.0000
57.1700 363.0000 1.0000
57.1800 348.0000 1.0000
57.1900 352.0000 1.0000
57.2000 343.0000 1.0000
57.2100 368.0000 1.0000
57.2200 364.0000 1.0000
57.2300 346.0000 1.0000
57.2400 357.0000 1.0000
57.2500 348.0000 1.0000
57.2600 355.0000 1.0000
57.2700 311.0000 1.0000
57.2800 339.0000 1.0000
57.2900 334.0000 1.0000
57.3000 331.0000 1.0000
57.3100 357.0000 1.0000
57.3200 360.0000 1.0000
57.3300 359.0000 1.0000
57.3400 373.0000 1.0000
57.3500 371.0000 1.0000
57.3600 393.0000 1.0000
57.3700 354.0000 1.0000
57.3800 356.0000 1.0000
57.3900 362.0000 1.0000
57.4000 362.0000 1.0000
57.4100 366.0000 1.0000
57.4200 349.0000 1.0000
57.4300 363.0000 1.0000
57.4400 336.0000 1.0000
57.4500 364.0000 1.0000
57.4600 366.0000 1.0000
57.4700 364.0000 1.0000
57.4800 364.0000 1.0000
57.4900 355.0000 1.0000
57.5000 382.0000 1.0000
57.5100 348.0000 1.0000
57.5200 366.0000 1.0000
57.5300 375.0000 1.0000
57.5400 395.0000 1.0000
57.5500 394.0000 1.0000
57.5600 384.0000 1.0000
57.5700 389.0000 1.0000
57.5800 364.0000 1.0000
57.5900 364.0000 1.0000
57.6000 390.0000 1.0000
57.6100 345.0000 1.0000
57.6200 352.0000 1.0000
57.6300 367.0000 1.0000
57.6400 341.0000 1.0000
57.6500 376.0000 1.0000
57.6600 366.0000 1.0000
57.6700 354.0000 1.0000
57.6800 353.0000 1.0000
57.6900 378.0000 1.0000
57.7000 346.0000 1.0000
57.7100 357.0000 1.0000
57.7200 396.0000 1.0000
57.7300 338.0000 1.0000
57.7400 337.0000 1.0000
57.7500 359.0000 1.0000
57.7600 363.0000 1.0000
57.7700 369.0000 1.0000
57.7800 299.0000 1.0000
57.7900 335.0000 1.0000
57.8000 328.0000 1.0000
57.8100 342.0000 1.0000
57.8200 328.0000 1.0000
57.8300 347.0000 1.0000
57.8400 338.0000 1.0000
57.8500 350.0000 1.0000
57.8600 345.0000 1.0000
57.8700 372.0000 1.0000
57.8800 341.0000 1.0000
57.8900 367.0000 1.0000
57.9000 358.0000 1.0000
57.9100 360.0000 1.0000
57.9200 353.0000 1.0000
57.9300 356.0000 1.0000
57.9400 355.0000 1.0000
57.9500 354.0000 1.0000
57.9600 349.0000 1.0000
57.9700 350.0000 1.0000
57.9800 355.0000 1.0000
57.9900 353.0000 1.0000
58.0000 339.0000 1.0000
58.0100 308.0000 1.0000
58.0200 340.0000 1.0000
58.0300 348.0000 1.0000
58.0400 331.0000 1.0000
58.0500 329.0000 1.0000
58.0600 349.0000 1.0000
58.0700 371.0000 1.0000
58.0800 344.0000 1.0000
58.0900 370.0000 1.0000
58.1000 335.0000 1.0000
58.1100 332.0000 1.0000
58.1200 361.0000 1.0000
58.1300 375.0000 1.0000
58.1400 342.0000 1.0000
58.1500 396.0000 1.0000
58.1600 356.0000 1.0000
58.1700 347.0000 1.0000
58.1800 342.0000 1.0000
58.1900 348.0000 1.0000
58.2000 361.0000 1.0000
58.2100 379.0000 1.0000
58.2200 331.0000 1.0000
58.2300 356.0000 1.0000
58.2400 382.0000 1.0000
58.2500 369.0000 1.0000
58.2600 357.0000 1.0000
58.2700 366.0000 1.0000
58.2800 340.0000 1.0000
58.2900 331.0000 1.0000
58.3000 327.0000 1.0000
58.3100 352.0000 1.0000
58.3200 329.0000 1.0000
58.3300 334.0000 1.0000
58.3400 340.0000 1.0000
58.3500 351.0000 1.0000
58.3600 340.0000 1.0000
58.3700 355.0000 1.0000
58.3800 342.0000 1.0000
58.3900 338.0000 1.0000
58.4000 331.0000 1.0000
58.4100 318.0000 1.0000
58.4200 343.0000 1.0000
58.4300 344.0000 1.0000
58.4400 321.0000 1.0000
58.4500 366.0000 1.0000
58.4600 356.0000 1.0000
58.4700 376.0000 1.0000
58.4800 340.0000 1.0000
58.4900 345.0000 1.0000
58.5000 370.0000 1.0000
58.5100 380.0000 1.0000
58.5200 366.0000 1.0000
58.5300 368.0000 1.0000
58.5400 388.0000 1.0000
58.5500 365.0000 1.0000
58.5600 363.0000 1.0000
58.5700 368.0000 1.0000
58.5800 349.0000 1.0000
58.5900 348.0000 1.0000
58.6000 345.0000 1.0000
58.6100 365.0000 1.0000
58.6200 348.0000 1.0000
58.6300 341.0000 1.0000
58.6400 362.0000 1.0000
58.6500 307.0000 1.0000
58.6600 325.0000 1.0000
58.6700 339.0000 1.0000
58.6800 360.0000 1.0000
58.6900 351.0000 1.0000
58.7000 338.0000 1.0000
58.7100 326.0000 1.0000
58.7200 361.0000 1.0000
58.7300 341.0000 1.0000
58.7400 334.0000 1.0000
58.7500 348.0000 1.0000
58.7600 363.0000 1.0000
58.7700 358.0000 1.0000
58.7800 343.0000 1.0000
58.7900 338.0000 1.0000
58.8000 364.0000 1.0000
58.8100 335.0000 1.0000
58.8200 336.0000 1.0000
58.8300 346.0000 1.0000
58.8400 303.0000 1.0000
58.8500 341.0000 1.0000
58.8600 346.0000 1.0000
58.8700 335.0000 1.0000
58.8800 372.0000 1.0000
58.8900 359.0000 1.0000
58.9000 331.0000 1.0000
58.9100 348.0000 1.0000
58.9200 358.0000 1.0000
58.9300 343.0000 1.0000
58.9400 330.0000 1.0000
58.9500 361.0000 1.0000
58.9600 321.0000 1.0000
58.9700 340.0000 1.0000
58.9800 326.0000 1.0000
58.9900 324.0000 1.0000
59.0000 362.0000 1.0000
59.0100 322.0000 1.0000
59.0200 340.0000 1.0000
59.0300 334.0000 1.0000
59.0400 335.0000 1.0000
59.0500 352.0000 1.0000
59.0600 334.0000 1.0000
59.0700 341.0000 1.0000
59.0800 342.0000 1.0000
59.0900 332.0000 1.0000
59.1000 319.0000 1.0000
59.1100 322.0000 1.0000
59.1200 356.0000 1.0000
59.1300 352.0000 1.0000
59.1400 359.0000 1.0000
59.1500 365.0000 1.0000
59.1600 326.0000 1.0000
59.1700 357.0000 1.0000
59.1800 339.0000 1.0000
59.1900 342.0000 1.0000
59.2000 333.0000 1.0000
59.2100 335.0000 1.0000
59.2200 374.0000 1.0000
59.2300 356.0000 1.0000
59.2400 342.0000 1.0000
59.2500 343.0000 1.0000
59.2600 333.0000 1.0000
59.2700 353.0000 1.0000
59.2800 347.0000 1.0000
59.2900 360.0000 1.0000
59.3000 366.0000 1.0000
59.3100 353.0000 1.0000
59.3200 315.0000 1.0000
59.3300 355.0000 1.0000
59.3400 357.0000 1.0000
59.3500 312.0000 1.0000
59.3600 322.0000 1.0000
59.3700 355.0000 1.0000
59.3800 338.0000 1.0000
59.3900 350.0000 1.0000
59.4000 330.0000 1.0000
59.4100 350.0000 1.0000
59.4200 379.0000 1.0000
59.4300 371.0000 1.0000
59.4400 359.0000 1.0000
59.4500 348.0000 1.0000
59.4600 330.0000 1.0000
59.4700 357.0000 1.0000
59.4800 334.0000 1.0000
59.4900 292.0000 1.0000
59.5000 344.0000 1.0000
59.5100 341.0000 1.0000
59.5200 368.0000 1.0000
59.5300 342.0000 1.0000
59.5400 351.0000 1.0000
59.5500 345.0000 1.0000
59.5600 328.0000 1.0000
59.5700 340.0000 1.0000
59.5800 332.0000 1.0000
59.5900 357.0000 1.0000
59.6000 347.0000 1.0000
59.6100 346.0000 1.0000
59.6200 341.0000 1.0000
59.6300 339.0000 1.0000
59.6400 341.0000 1.0000
59.6500 344.0000 1.0000
59.6600 365.0000 1.0000
59.6700 356.0000 1.0000
59.6800 356.0000 1.0000
59.6900 319.0000 1.0000
59.7000 366.0000 1.0000
59.7100 369.0000 1.0000
59.7200 352.0000 1.0000
59.7300 319.0000 1.0000
59.7400 327.0000 1.0000
59.7500 340.0000 1.0000
59.7600 354.0000 1.0000
59.7700 352.0000 1.0000
59.7800 356.0000 1.0000
59.7900 347.0000 1.0000
59.8000 330.0000 1.0000
59.8100 348.0000 1.0000
59.8200 353.0000 1.0000
59.8300 350.0000 1.0000
59.8400 360.0000 1.0000
59.8500 328.0000 1.0000
59.8600 344.0000 1.0000
59.8700 332.0000 1.0000
59.8800 387.0000 1.0000
59.8900 348.0000 1.0000
59.9000 349.0000 1.0000
59.9100 367.0000 1.0000
59.9200 339.0000 1.0000
59.9300 364.0000 1.0000
59.9400 339.0000 1.0000
59.9500 362.0000 1.0000
59.9600 350.0000 1.0000
59.9700 359.0000 1.0000
59.9800 355.0000 1.0000
59.9900 329.0000 1.0000
60.0000 330.0000 1.0000
60.0100 345.0000 1.0000
60.0200 356.0000 1.0000
60.0300 360.0000 1.0000
60.0400 326.0000 1.0000
60.0500 339.0000 1.0000
60.0600 346.0000 1.0000
60.0700 318.0000 1.0000
60.0800 338.0000 1.0000
60.0900 357.0000 1.0000
60.1000 346.0000 1.0000
60.1100 338.0000 1.0000
60.1200 355.0000 1.0000
60.1300 338.0000 1.0000
60.1400 323.0000 1.0000
60.1500 361.0000 1.0000
60.1600 383.0000 1.0000
60.1700 359.0000 1.0000
60.1800 359.0000 1.0000
60.1900 361.0000 1.0000
60.2000 364.0000 1.0000
60.2100 350.0000 1.0000
60.2200 325.0000 1.0000
60.2300 368.0000 1.0000
60.2400 342.0000 1.0000
60.2500 332.0000 1.0000
60.2600 326.0000 1.0000
60.2700 347.0000 1.0000
60.2800 318.0000 1.0000
60.2900 335.0000 1.0000
60.3000 356.0000 1.0000
60.3100 319.0000 1.0000
60.3200 350.0000 1.0000
60.3300 352.0000 1.0000
60.3400 338.0000 1.0000
60.3500 367.0000 1.0000
60.3600 332.0000 1.0000
60.3700 323.0000 1.0000
60.3800 335.0000 1.0000
60.3900 350.0000 1.0000
60.4000 338.0000 1.0000
60.4100 323.0000 1.0000
60.4200 345.0000 1.0000
60.4300 368.0000 1.0000
60.4400 382.0000 1.0000
60.4500 336.0000 1.0000
60.4600 346.0000 1.0000
60.4700 364.0000 1.0000
60.4800 345.0000 1.0000
60.4900 375.0000 1.0000
60.5000 349.0000 1.0000
60.5100 373.0000 1.0000
60.5200 352.0000 1.0000
60.5300 354.0000 1.0000
60.5400 372.0000 1.0000
60.5500 335.0000 1.0000
60.5600 350.0000 1.0000
60.5700 344.0000 1.0000
60.5800 362.0000 1.0000
60.5900 342.0000 1.0000
60.6000 345.0000 1.0000
60.6100 338.0000 1.0000
60.6200 373.0000 1.0000
60.6300 353.0000 1.0000
60.6400 360.0000 1.0000
60.6500 329.0000 1.0000
60.6600 347.0000 1.0000
60.6700 379.0000 1.0000
60.6800 343.0000 1.0000
60.6900 352.0000 1.0000
60.7000 342.0000 1.0000
60.7100 360.0000 1.0000
60.7200 361.0000 1.0000
60.7300 340.0000 1.0000
60.7400 313.0000 1.0000
60.7500 349.0000 1.0000
60.7600 342.0000 1.0000
60.7700 339.0000 1.0000
60.7800 346.0000 1.0000
60.7900 347.0000 1.0000
60.8000 332.0000 1.0000
60.8100 360.0000 1.0000
60.8200 367.0000 1.0000
60.8300 355.0000 1.0000
60.8400 359.0000 1.0000
60.8500 371.0000 1.0000
60.8600 375.0000 1.0000
60.8700 362.0000 1.0000
60.8800 374.0000 1.0000
60.8900 349.0000 1.0000
60.9000 349.0000 1.0000
60.9100 361.0000 1.0000
60.9200 361.0000 1.0000
60.9300 394.0000 1.0000
60.9400 327.0000 1.0000
60.9500 354.0000 1.0000
60.9600 355.0000 1.0000
60.9700 372.0000 1.0000
60.9800 377.0000 1.0000
60.9900 365.0000 1.0000
61.0000 379.0000 1.0000
61.0100 369.0000 1.0000
61.0200 350.0000 1.0000
61.0300 373.0000 1.0000
61.0400 403.0000 1.0000
61.0500 384.0000 1.0000
61.0600 379.0000 1.0000
61.0700 356.0000 1.0000
61.0800 354.0000 1.0000
61.0900 406.0000 1.0000
61.1000 357.0000 1.0000
61.1100 387.0000 1.0000
61.1200 396.0000 1.0000
61.1300 385.0000 1.0000
61.1400 392.0000 1.0000
61.1500 401.0000 1.0000
61.1600 405.0000 1.0000
61.1700 389.0000 1.0000
61.1800 374.0000 1.0000
61.1900 413.0000 1.0000
61.2000 412.0000 1.0000
61.2100 396.0000 1.0000
61.2200 396.0000 1.0000
61.2300 412.0000 1.0000
61.2400 424.0000 1.0000
61.2500 450.0000 1.0000
61.2600 416.0000 1.0000
61.2700 444.0000 1.0000
61.2800 461.0000 1.0000
61.2900 476.0000 1.0000
61.3000 457.0000 1.0000
61.3100 505.0000 1.0000
61.3200 501.0000 1.0000
61.3300 541.0000 1.0000
61.3400 538.0000 1.0000
61.3500 563.0000 1.0000
61.3600 566.0000 1.0000
61.3700 544.0000 1.0000
61.3800 595.0000 1.0000
61.3900 576.0000 1.0000
61.4000 631.0000 1.0000
61.4100 637.0000 1.0000
61.4200 646.0000 1.0000
61.4300 651.0000 1.0000
61.4400 670.0000 1.0000
61.4500 690.0000 1.0000
61.4600 694.0000 1.0000
61.4700 716.0000 1.0000
61.4800 725.0000 1.0000
61.4900 745.0000 1.0000
61.5000 745.0000 1.0000
61.5100 741.0000 1.0000
61.5200 734.0000 1.0000
61.5300 784.0000 1.0000
61.5400 815.0000 1.0000
61.5500 765.0000 1.0000
61.5600 749.0000 1.0000
61.5700 715.0000 1.0000
61.5800 779.0000 1.0000
61.5900 763.0000 1.0000
61.6000 783.0000 1.0000
61.6100 753.0000 1.0000
61.6200 770.0000 1.0000
61.6300 723.0000 1.0000
61.6400 742.0000 1.0000
61.6500 704.0000 1.0000
61.6600 714.0000 1.0000
61.6700 704.0000 1.0000
61.6800 695.0000 1.0000
61.6900 710.0000 1.0000
61.7000 676.0000 1.0000
61.7100 646.0000 1.0000
61.7200 656.0000 1.0000
61.7300 651.0000 1.0000
61.7400 571.0000 1.0000
61.7500 619.0000 1.0000
61.7600 567.0000 1.0000
61.7700 565.0000 1.0000
61.7800 540.0000 1.0000
61.7900 498.0000 1.0000
61.8000 537.0000 1.0000
61.8100 541.0000 1.0000
61.8200 503.0000 1.0000
61.8300 505.0000 1.0000
61.8400 483.0000 1.0000
61.8500 477.0000 1.0000
61.8600 467.0000 1.0000
61.8700 483.0000 1.0000
61.8800 453.0000 1.0000
61.8900 477.0000 1.0000
61.9000 461.0000 1.0000
61.9100 415.0000 1.0000
61.9200 468.0000 1.0000
61.9300 440.0000 1.0000
61.9400 402.0000 1.0000
61.9500 453.0000 1.0000
61.9600 370.0000 1.0000
61.9700 401.0000 1.0000
61.9800 437.0000 1.0000
61.9900 427.0000 1.0000
62.0000 391.0000 1.0000
62.0100 426.0000 1.0000
62.0200 421.0000 1.0000
62.0300 424.0000 1.0000
62.0400 413.0000 1.0000
62.0500 424.0000 1.0000
62.0600 401.0000 1.0000
62.0700 409.0000 1.0000
62.0800 410.0000 1.0000
62.0900 382.0000 1.0000
62.1000 377.0000 1.0000
62.1100 378.0000 1.0000
62.1200 402.0000 1.0000
62.1300 391.0000 1.0000
62.1400 355.0000 1.0000
62.1500 385.0000 1.0000
62.1600 373.0000 1.0000
62.1700 393.0000 1.0000
62.1800 376.0000 1.0000
62.1900 425.0000 1.0000
62.2000 367.0000 1.0000
62.2100 381.0000 1.0000
62.2200 390.0000 1.0000
62.2300 391.0000 1.0000
62.2400 374.0000 1.0000
62.2500 404.0000 1.0000
62.2600 379.0000 1.0000
62.2700 402.0000 1.0000
62.2800 386.0000 1.0000
62.2900 379.0000 1.0000
62.3000 398.0000 1.0000
62.3100 401.0000 1.0000
62.3200 396.0000 1.0000
62.3300 413.0000 1.0000
62.3400 404.0000 1.0000
62.3500 392.0000 1.0000
62.3600 390.0000 1.0000
62.3700 427.0000 1.0000
62.3800 414.0000 1.0000
62.3900 413.0000 1.0000
62.4000 419.0000 1.0000
62.4100 450.0000 1.0000
62.4200 390.0000 1.0000
62.4300 376.0000 1.0000
62.4400 399.0000 1.0000
62.4500 385.0000 1.0000
62.4600 389.0000 1.0000
62.4700 408.0000 1.0000
62.4800 399.0000 1.0000
62.4900 417.0000 1.0000
62.5000 437.0000 1.0000
62.5100 404.0000 1.0000
62.5200 372.0000 1.0000
62.5300 406.0000 1.0000
62.5400 387.0000 1.0000
62.5500 371.0000 1.0000
62.5600 343.0000 1.0000
62.5700 377.0000 1.0000
62.5800 389.0000 1.0000
62.5900 368.0000 1.0000
62.6000 361.0000 1.0000
62.6100 377.0000 1.0000
62.6200 396.0000 1.0000
62.6300 348.0000 1.0000
62.6400 352.0000 1.0000
62.6500 362.0000 1.0000
62.6600 381.0000 1.0000
62.6700 329.0000 1.0000
62.6800 347.0000 1.0000
62.6900 348.0000 1.0000
62.7000 346.0000 1.0000
62.7100 345.0000 1.0000
62.7200 344.0000 1.0000
62.7300 334.0000 1.0000
62.7400 380.0000 1.0000
62.7500 352.0000 1.0000
62.7600 355.0000 1.0000
62.7700 366.0000 1.0000
62.7800 340.0000 1.0000
62.7900 384.0000 1.0000
62.8000 375.0000 1.0000
62.8100 390.0000 1.0000
62.8200 347.0000 1.0000
62.8300 335.0000 1.0000
62.8400 352.0000 1.0000
62.8500 350.0000 1.0000
62.8600 343.0000 1.0000
62.8700 344.0000 1.0000
62.8800 319.0000 1.0000
62.8900 366.0000 1.0000
62.9000 363.0000 1.0000
62.9100 327.0000 1.0000
62.9200 342.0000 1.0000
62.9300 331.0000 1.0000
62.9400 322.0000 1.0000
62.9500 322.0000 1.0000
62.9600 330.0000 1.0000
62.9700 369.0000 1.0000
62.9800 375.0000 1.0000
62.9900 340.0000 1.0000
63.0000 323.0000 1.0000
63.0100 336.0000 1.0000
63.0200 354.0000 1.0000
63.0300 327.0000 1.0000
63.0400 370.0000 1.0000
63.0500 354.0000 1.0000
63.0600 362.0000 1.0000
63.0700 370.0000 1.0000
63.0800 324.0000 1.0000
63.0900 338.0000 1.0000
63.1000 360.0000 1.0000
63.1100 395.0000 1.0000
63.1200 349.0000 1.0000
63.1300 338.0000 1.0000
63.1400 338.0000 1.0000
63.1500 350.0000 1.0000
63.1600 336.0000 1.0000
63.1700 354.0000 1.0000
63.1800 384.0000 1.0000
63.1900 326.0000 1.0000
63.2000 341.0000 1.0000
63.2100 347.0000 1.0000
63.2200 329.0000 1.0000
63.2300 354.0000 1.0000
63.2400 327.0000 1.0000
63.2500 357.0000 1.0000
63.2600 350.0000 1.0000
63.2700 323.0000 1.0000
63.2800 339.0000 1.0000
63.2900 348.0000 1.0000
63.3000 326.0000 1.0000
63.3100 334.0000 1.0000
63.3200 377.0000 1.0000
63.3300 350.0000 1.0000
63.3400 344.0000 1.0000
63.3500 352.0000 1.0000
63.3600 353.0000 1.0000
63.3700 383.0000 1.0000
63.3800 388.0000 1.0000
63.3900 335.0000 1.0000
63.4000 339.0000 1.0000
63.4100 338.0000 1.0000
63.4200 348.0000 1.0000
63.4300 331.0000 1.0000
63.4400 337.0000 1.0000
63.4500 350.0000 1.0000
63.4600 351.0000 1.0000
63.4700 332.0000 1.0000
63.4800 342.0000 1.0000
63.4900 339.0000 1.0000
63.5000 372.0000 1.0000
63.5100 391.0000 1.0000
63.5200 366.0000 1.0000
63.5300 348.0000 1.0000
63.5400 340.0000 1.0000
63.5500 331.0000 1.0000
63.5600 341.0000 1.0000
63.5700 334.0000 1.0000
63.5800 357.0000 1.0000
63.5900 371.0000 1.0000
63.6000 337.0000 1.0000
63.6100 366.0000 1.0000
63.6200 346.0000 1.0000
63.6300 351.0000 1.0000
63.6400 338.0000 1.0000
63.6500 369.0000 1.0000
63.6600 366.0000 1.0000
63.6700 350.0000 1.0000
63.6800 348.0000 1.0000
63.6900 325.0000 1.0000
63.7000 335.0000 1.0000
63.7100 353.0000 1.0000
63.7200 331.0000 1.0000
63.7300 351.0000 1.0000
63.7400 336.0000 1.0000
63.7500 374.0000 1.0000
63.7600 379.0000 1.0000
63.7700 380.0000 1.0000
63.7800 365.0000 1.0000
63.7900 396.0000 1.0000
63.8000 385.0000 1.0000
63.8100 374.0000 1.0000
63.8200 371.0000 1.0000
63.8300 364.0000 1.0000
63.8400 357.0000 1.0000
63.8500 377.0000 1.0000
63.8600 383.0000 1.0000
63.8700 421.0000 1.0000
63.8800 394.0000 1.0000
63.8900 399.0000 1.0000
63.9000 412.0000 1.0000
63.9100 421.0000 1.0000
63.9200 402.0000 1.0000
63.9300 381.0000 1.0000
63.9400 402.0000 1.0000
63.9500 406.0000 1.0000
63.9600 402.0000 1.0000
63.9700 399.0000 1.0000
63.9800 423.0000 1.0000
63.9900 391.0000 1.0000
64.0000 382.0000 1.0000
64.0100 421.0000 1.0000
64.0200 385.0000 1.0000
64.0300 387.0000 1.0000
64.0400 380.0000 1.0000
64.0500 377.0000 1.0000
64.0600 423.0000 1.0000
64.0700 402.0000 1.0000
64.0800 388.0000 1.0000
64.0900 399.0000 1.0000
64.1000 373.0000 1.0000
64.1100 374.0000 1.0000
64.1200 393.0000 1.0000
64.1300 391.0000 1.0000
64.1400 390.0000 1.0000
64.1500 383.0000 1.0000
64.1600 386.0000 1.0000
64.1700 381.0000 1.0000
64.1800 371.0000 1.0000
64.1900 389.0000 1.0000
64.2000 370.0000 1.0000
64.2100 391.0000 1.0000
64.2200 363.0000 1.0000
64.2300 377.0000 1.0000
64.2400 380.0000 1.0000
64.2500 372.0000 1.0000
64.2600 404.0000 1.0000
64.2700 365.0000 1.0000
64.2800 356.0000 1.0000
64.2900 370.0000 1.0000
64.3000 385.0000 1.0000
64.3100 376.0000 1.0000
64.3200 328.0000 1.0000
64.3300 364.0000 1.0000
64.3400 359.0000 1.0000
64.3500 389.0000 1.0000
64.3600 380.0000 1.0000
64.3700 363.0000 1.0000
64.3800 391.0000 1.0000
64.3900 356.0000 1.0000
64.4000 343.0000 1.0000
64.4100 358.0000 1.0000
64.4200 338.0000 1.0000
64.4300 382.0000 1.0000
64.4400 357.0000 1.0000
64.4500 383.0000 1.0000
64.4600 334.0000 1.0000
64.4700 370.0000 1.0000
64.4800 356.0000 1.0000
64.4900 330.0000 1.0000
64.5000 344.0000 1.0000
64.5100 346.0000 1.0000
64.5200 365.0000 1.0000
64.5300 371.0000 1.0000
64.5400 399.0000 1.0000
64.5500 362.0000 1.0000
64.5600 340.0000 1.0000
64.5700 389.0000 1.0000
64.5800 361.0000 1.0000
64.5900 365.0000 1.0000
64.6000 347.0000 1.0000
64.6100 350.0000 1.0000
64.6200 364.0000 1.0000
64.6300 344.0000 1.0000
64.6400 371.0000 1.0000
64.6500 360.0000 1.0000
64.6600 367.0000 1.0000
64.6700 364.0000 1.0000
64.6800 342.0000 1.0000
64.6900 366.0000 1.0000
64.7000 347.0000 1.0000
64.7100 349.0000 1.0000
64.7200 355.0000 1.0000
64.7300 381.0000 1.0000
64.7400 377.0000 1.0000
64.7500 351.0000 1.0000
64.7600 324.0000 1.0000
64.7700 313.0000 1.0000
64.7800 370.0000 1.0000
64.7900 361.0000 1.0000
64.8000 376.0000 1.0000
64.8100 397.0000 1.0000
64.8200 364.0000 1.0000
64.8300 357.0000 1.0000
64.8400 363.0000 1.0000
64.8500 373.0000 1.0000
64.8600 365.0000 1.0000
64.8700 392.0000 1.0000
64.8800 352.0000 1.0000
64.8900 338.0000 1.0000
64.9000 373.0000 1.0000
64.9100 350.0000 1.0000
64.9200 327.0000 1.0000
64.9300 364.0000 1.0000
64.9400 362.0000 1.0000
64.9500 367.0000 1.0000
64.9600 342.0000 1.0000
64.9700 388.0000 1.0000
64.9800 369.0000 1.0000
64.9900 393.0000 1.0000
65.0000 387.0000 1.0000
65.0100 359.0000 1.0000
65.0200 372.0000 1.0000
65.0300 373.0000 1.0000
65.0400 419.0000 1.0000
65.0500 389.0000 1.0000
65.0600 347.0000 1.0000
65.0700 385.0000 1.0000
65.0800 403.0000 1.0000
65.0900 409.0000 1.0000
65.1000 428.0000 1.0000
65.1100 397.0000 1.0000
65.1200 397.0000 1.0000
65.1300 395.0000 1.0000
65.1400 376.0000 1.0000
65.1500 423.0000 1.0000
65.1600 398.0000 1.0000
65.1700 407.0000 1.0000
65.1800 419.0000 1.0000
65.1900 445.0000 1.0000
65.2000 462.0000 1.0000
65.2100 499.0000 1.0000
65.2200 467.0000 1.0000
65.2300 463.0000 1.0000
65.2400 454.0000 1.0000
65.2500 484.0000 1.0000
65.2600 498.0000 1.0000
65.2700 533.0000 1.0000
65.2800 543.0000 1.0000
65.2900 583.0000 1.0000
65.3000 606.0000 1.0000
65.3100 579.0000 1.0000
65.3200 571.0000 1.0000
65.3300 594.0000 1.0000
65.3400 659.0000 1.0000
65.3500 671.0000 1.0000
65.3600 686.0000 1.0000
65.3700 726.0000 1.0000
65.3800 734.0000 1.0000
65.3900 785.0000 1.0000
65.4000 769.0000 1.0000
65.4100 842.0000 1.0000
65.4200 869.0000 1.0000
65.4300 944.0000 1.0000
65.4400 971.0000 1.0000
65.4500 990.0000 1.0000
65.4600 999.0000 1.0000
65.4700 1116.0000 1.0000
65.4800 1096.0000 1.0000
65.4900 1171.0000 1.0000
65.5000 1196.0000 1.0000
65.5100 1146.0000 1.0000
65.5200 1217.0000 1.0000
65.5300 1251.0000 1.0000
65.5400 1234.0000 1.0000
65.5500 1201.0000 1.0000
65.5600 1239.0000 1.0000
65.5700 1275.0000 1.0000
65.5800 1287.0000 1.0000
65.5900 1197.0000 1.0000
65.6000 1185.0000 1.0000
65.6100 1155.0000 1.0000
65.6200 1117.0000 1.0000
65.6300 1126.0000 1.0000
65.6400 1140.0000 1.0000
65.6500 1108.0000 1.0000
65.6600 1023.0000 1.0000
65.6700 1035.0000 1.0000
65.6800 1019.0000 1.0000
65.6900 1017.0000 1.0000
65.7000 972.0000 1.0000
65.7100 1008.0000 1.0000
65.7200 976.0000 1.0000
65.7300 981.0000 1.0000
65.7400 940.0000 1.0000
65.7500 892.0000 1.0000
65.7600 879.0000 1.0000
65.7700 898.0000 1.0000
65.7800 777.0000 1.0000
65.7900 770.0000 1.0000
65.8000 756.0000 1.0000
65.8100 714.0000 1.0000
65.8200 721.0000 1.0000
65.8300 702.0000 1.0000
65.8400 644.0000 1.0000
65.8500 630.0000 1.0000
65.8600 602.0000 1.0000
65.8700 552.0000 1.0000
65.8800 521.0000 1.0000
65.8900 568.0000 1.0000
65.9000 518.0000 1.0000
65.9100 506.0000 1.0000
65.9200 525.0000 1.0000
65.9300 488.0000 1.0000
65.9400 453.0000 1.0000
65.9500 487.0000 1.0000
65.9600 466.0000 1.0000
65.9700 431.0000 1.0000
65.9800 453.0000 1.0000
65.9900 462.0000 1.0000
66.0000 436.0000 1.0000
66.0100 389.0000 1.0000
66.0200 422.0000 1.0000
66.0300 407.0000 1.0000
66.0400 387.0000 1.0000
66.0500 388.0000 1.0000
66.0600 375.0000 1.0000
66.0700 415.0000 1.0000
66.0800 398.0000 1.0000
66.0900 398.0000 1.0000
66.1000 397.0000 1.0000
66.1100 356.0000 1.0000
66.1200 371.0000 1.0000
66.1300 381.0000 1.0000
66.1400 378.0000 1.0000
66.1500 351.0000 1.0000
66.1600 354.0000 1.0000
66.1700 371.0000 1.0000
66.1800 385.0000 1.0000
66.1900 358.0000 1.0000
66.2000 360.0000 1.0000
66.2100 364.0000 1.0000
66.2200 370.0000 1.0000
66.2300 346.0000 1.0000
66.2400 341.0000 1.0000
66.2500 383.0000 1.0000
66.2600 314.0000 1.0000
66.2700 356.0000 1.0000
66.2800 353.0000 1.0000
66.2900 351.0000 1.0000
66.3000 329.0000 1.0000
66.3100 343.0000 1.0000
66.3200 358.0000 1.0000
66.3300 354.0000 1.0000
66.3400 354.0000 1.0000
66.3500 319.0000 1.0000
66.3600 328.0000 1.0000
66.3700 304.0000 1.0000
66.3800 332.0000 1.0000
66.3900 347.0000 1.0000
66.4000 340.0000 1.0000
66.4100 325.0000 1.0000
66.4200 332.0000 1.0000
66.4300 325.0000 1.0000
66.4400 352.0000 1.0000
66.4500 329.0000 1.0000
66.4600 342.0000 1.0000
66.4700 361.0000 1.0000
66.4800 367.0000 1.0000
66.4900 327.0000 1.0000
66.5000 327.0000 1.0000
66.5100 312.0000 1.0000
66.5200 324.0000 1.0000
66.5300 378.0000 1.0000
66.5400 322.0000 1.0000
66.5500 344.0000 1.0000
66.5600 321.0000 1.0000
66.5700 327.0000 1.0000
66.5800 335.0000 1.0000
66.5900 317.0000 1.0000
66.6000 311.0000 1.0000
66.6100 334.0000 1.0000
66.6200 309.0000 1.0000
66.6300 353.0000 1.0000
66.6400 312.0000 1.0000
66.6500 290.0000 1.0000
66.6600 331.0000 1.0000
66.6700 329.0000 1.0000
66.6800 297.0000 1.0000
66.6900 341.0000 1.0000
66.7000 348.0000 1.0000
66.7100 324.0000 1.0000
66.7200 350.0000 1.0000
66.7300 302.0000 1.0000
66.7400 320.0000 1.0000
66.7500 327.0000 1.0000
66.7600 326.0000 1.0000
66.7700 316.0000 1.0000
66.7800 321.0000 1.0000
66.7900 328.0000 1.0000
66.8000 292.0000 1.0000
66.8100 341.0000 1.0000
66.8200 330.0000 1.0000
66.8300 311.0000 1.0000
66.8400 334.0000 1.0000
66.8500 322.0000 1.0000
66.8600 345.0000 1.0000
66.8700 347.0000 1.0000
66.8800 330.0000 1.0000
66.8900 318.0000 1.0000
66.9000 322.0000 1.0000
66.9100 303.0000 1.0000
66.9200 328.0000 1.0000
66.9300 322.0000 1.0000
66.9400 322.0000 1.0000
66.9500 318.0000 1.0000
66.9600 320.0000 1.0000
66.9700 321.0000 1.0000
66.9800 330.0000 1.0000
66.9900 328.0000 1.0000
67.0000 322.0000 1.0000
67.0100 316.0000 1.0000
67.0200 311.0000 1.0000
67.0300 313.0000 1.0000
67.0400 348.0000 1.0000
67.0500 330.0000 1.0000
67.0600 310.0000 1.0000
67.0700 333.0000 1.0000
67.0800 337.0000 1.0000
67.0900 310.0000 1.0000
67.1000 337.0000 1.0000
67.1100 334.0000 1.0000
67.1200 315.0000 1.0000
67.1300 313.0000 1.0000
67.1400 313.0000 1.0000
67.1500 328.0000 1.0000
67.1600 338.0000 1.0000
67.1700 338.0000 1.0000
67.1800 328.0000 1.0000
67.1900 319.0000 1.0000
67.2000 313.0000 1.0000
67.2100 315.0000 1.0000
67.2200 320.0000 1.0000
67.2300 318.0000 1.0000
67.2400 329.0000 1.0000
67.2500 290.0000 1.0000
67.2600 323.0000 1.0000
67.2700 318.0000 1.0000
67.2800 295.0000 1.0000
67.2900 328.0000 1.0000
67.3000 351.0000 1.0000
67.3100 310.0000 1.0000
67.3200 332.0000 1.0000
67.3300 328.0000 1.0000
67.3400 317.0000 1.0000
67.3500 345.0000 1.0000
67.3600 308.0000 1.0000
67.3700 301.0000 1.0000
67.3800 282.0000 1.0000
67.3900 345.0000 1.0000
67.4000 316.0000 1.0000
67.4100 337.0000 1.0000
67.4200 324.0000 1.0000
67.4300 341.0000 1.0000
67.4400 329.0000 1.0000
67.4500 315.0000 1.0000
67.4600 312.0000 1.0000
67.4700 312.0000 1.0000
67.4800 306.0000 1.0000
67.4900 313.0000 1.0000
67.5000 320.0000 1.0000
67.5100 323.0000 1.0000
67.5200 320.0000 1.0000
67.5300 316.0000 1.0000
67.5400 324.0000 1.0000
67.5500 320.0000 1.0000
67.5600 298.0000 1.0000
67.5700 299.0000 1.0000
67.5800 324.0000 1.0000
67.5900 329.0000 1.0000
67.6000 306.0000 1.0000
67.6100 292.0000 1.0000
67.6200 279.0000 1.0000
67.6300 331.0000 1.0000
67.6400 325.0000 1.0000
67.6500 302.0000 1.0000
67.6600 313.0000 1.0000
67.6700 340.0000 1.0000
67.6800 267.0000 1.0000
67.6900 307.0000 1.0000
67.7000 332.0000 1.0000
67.7100 286.0000 1.0000
67.7200 315.0000 1.0000
67.7300 329.0000 1.0000
67.7400 324.0000 1.0000
67.7500 320.0000 1.0000
67.7600 320.0000 1.0000
67.7700 285.0000 1.0000
67.7800 270.0000 1.0000
67.7900 300.0000 1.0000
67.8000 318.0000 1.0000
67.8100 293.0000 1.0000
67.8200 334.0000 1.0000
67.8300 303.0000 1.0000
67.8400 285.0000 1.0000
67.8500 306.0000 1.0000
67.8600 301.0000 1.0000
67.8700 315.0000 1.0000
67.8800 301.0000 1.0000
67.8900 330.0000 1.0000
67.9000 287.0000 1.0000
67.9100 306.0000 1.0000
67.9200 320.0000 1.0000
67.9300 320.0000 1.0000
67.9400 314.0000 1.0000
67.9500 319.0000 1.0000
67.9600 303.0000 1.0000
67.9700 285.0000 1.0000
67.9800 288.0000 1.0000
67.9900 296.0000 1.0000
68.0000 325.0000 1.0000
68.0100 308.0000 1.0000
68.0200 307.0000 1.0000
68.0300 295.0000 1.0000
68.0400 295.0000 1.0000
68.0500 318.0000 1.0000
68.0600 313.0000 1.0000
68.0700 341.0000 1.0000
68.0800 313.0000 1.0000
68.0900 316.0000 1.0000
68.1000 303.0000 1.0000
68.1100 309.0000 1.0000
68.1200 303.0000 1.0000
68.1300 291.0000 1.0000
68.1400 292.0000 1.0000
68.1500 298.0000 1.0000
68.1600 293.0000 1.0000
68.1700 292.0000 1.0000
68.1800 307.0000 1.0000
68.1900 290.0000 1.0000
68.2000 284.0000 1.0000
68.2100 327.0000 1.0000
68.2200 315.0000 1.0000
68.2300 301.0000 1.0000
68.2400 287.0000 1.0000
68.2500 299.0000 1.0000
68.2600 280.0000 1.0000
68.2700 322.0000 1.0000
68.2800 343.0000 1.0000
68.2900 299.0000 1.0000
68.3000 291.0000 1.0000
68.3100 308.0000 1.0000
68.3200 309.0000 1.0000
68.3300 308.0000 1.0000
68.3400 309.0000 1.0000
68.3500 305.0000 1.0000
68.3600 304.0000 1.0000
68.3700 309.0000 1.0000
68.3800 300.0000 1.0000
68.3900 317.0000 1.0000
68.4000 306.0000 1.0000
68.4100 322.0000 1.0000
68.4200 316.0000 1.0000
68.4300 290.0000 1.0000
68.4400 276.0000 1.0000
68.4500 327.0000 1.0000
68.4600 323.0000 1.0000
68.4700 284.0000 1.0000
68.4800 362.0000 1.0000
68.4900 347.0000 1.0000
68.5000 313.0000 1.0000
68.5100 316.0000 1.0000
68.5200 290.0000 1.0000
68.5300 312.0000 1.0000
68.5400 316.0000 1.0000
68.5500 310.0000 1.0000
68.5600 310.0000 1.0000
68.5700 293.0000 1.0000
68.5800 302.0000 1.0000
68.5900 296.0000 1.0000
68.6000 286.0000 1.0000
68.6100 323.0000 1.0000
68.6200 317.0000 1.0000
68.6300 310.0000 1.0000
68.6400 308.0000 1.0000
68.6500 308.0000 1.0000
68.6600 300.0000 1.0000
68.6700 279.0000 1.0000
68.6800 302.0000 1.0000
68.6900 319.0000 1.0000
68.7000 324.0000 1.0000
68.7100 300.0000 1.0000
68.7200 313.0000 1.0000
68.7300 308.0000 1.0000
68.7400 325.0000 1.0000
68.7500 328.0000 1.0000
68.7600 323.0000 1.0000
68.7700 325.0000 1.0000
68.7800 322.0000 1.0000
68.7900 313.0000 1.0000
68.8000 319.0000 1.0000
68.8100 311.0000 1.0000
68.8200 303.0000 1.0000
68.8300 293.0000 1.0000
68.8400 302.0000 1.0000
68.8500 316.0000 1.0000
68.8600 300.0000 1.0000
68.8700 320.0000 1.0000
68.8800 339.0000 1.0000
68.8900 317.0000 1.0000
68.9000 294.0000 1.0000
68.9100 291.0000 1.0000
68.9200 273.0000 1.0000
68.9300 292.0000 1.0000
68.9400 308.0000 1.0000
68.9500 293.0000 1.0000
68.9600 319.0000 1.0000
68.9700 275.0000 1.0000
68.9800 305.0000 1.0000
68.9900 296.0000 1.0000
69.0000 353.0000 1.0000
69.0100 322.0000 1.0000
69.0200 319.0000 1.0000
69.0300 293.0000 1.0000
69.0400 294.0000 1.0000
69.0500 309.0000 1.0000
69.0600 306.0000 1.0000
69.0700 291.0000 1.0000
69.0800 298.0000 1.0000
69.0900 297.0000 1.0000
69.1000 292.0000 1.0000
69.1100 301.0000 1.0000
69.1200 315.0000 1.0000
69.1300 322.0000 1.0000
69.1400 286.0000 1.0000
69.1500 324.0000 1.0000
69.1600 314.0000 1.0000
69.1700 316.0000 1.0000
69.1800 314.0000 1.0000
69.1900 309.0000 1.0000
69.2000 298.0000 1.0000
69.2100 292.0000 1.0000
69.2200 273.0000 1.0000
69.2300 285.0000 1.0000
69.2400 288.0000 1.0000
69.2500 293.0000 1.0000
69.2600 298.0000 1.0000
69.2700 300.0000 1.0000
69.2800 319.0000 1.0000
69.2900 340.0000 1.0000
69.3000 303.0000 1.0000
69.3100 313.0000 1.0000
69.3200 289.0000 1.0000
69.3300 302.0000 1.0000
69.3400 311.0000 1.0000
69.3500 299.0000 1.0000
69.3600 292.0000 1.0000
69.3700 287.0000 1.0000
69.3800 302.0000 1.0000
69.3900 309.0000 1.0000
69.4000 311.0000 1.0000
69.4100 293.0000 1.0000
69.4200 314.0000 1.0000
69.4300 300.0000 1.0000
69.4400 299.0000 1.0000
69.4500 322.0000 1.0000
69.4600 284.0000 1.0000
69.4700 301.0000 1.0000
69.4800 306.0000 1.0000
69.4900 283.0000 1.0000
69.5000 320.0000 1.0000
69.5100 298.0000 1.0000
69.5200 327.0000 1.0000
69.5300 289.0000 1.0000
69.5400 303.0000 1.0000
69.5500 323.0000 1.0000
69.5600 307.0000 1.0000
69.5700 320.0000 1.0000
69.5800 297.0000 1.0000
69.5900 281.0000 1.0000
69.6000 326.0000 1.0000
69.6100 299.0000 1.0000
69.6200 326.0000 1.0000
69.6300 284.0000 1.0000
69.6400 294.0000 1.0000
69.6500 274.0000 1.0000
69.6600 295.0000 1.0000
69.6700 327.0000 1.0000
69.6800 322.0000 1.0000
69.6900 299.0000 1.0000
69.7000 318.0000 1.0000
69.7100 294.0000 1.0000
69.7200 288.0000 1.0000
69.7300 281.0000 1.0000
69.7400 274.0000 1.0000
69.7500 287.0000 1.0000
69.7600 302.0000 1.0000
69.7700 299.0000 1.0000
69.7800 295.0000 1.0000
69.7900 274.0000 1.0000
69.8000 301.0000 1.0000
69.8100 307.0000 1.0000
69.8200 289.0000 1.0000
69.8300 323.0000 1.0000
69.8400 316.0000 1.0000
69.8500 295.0000 1.0000
69.8600 298.0000 1.0000
69.8700 297.0000 1.0000
69.8800 274.0000 1.0000
69.8900 288.0000 1.0000
69.9000 276.0000 1.0000
69.9100 278.0000 1.0000
69.9200 284.0000 1.0000
69.9300 279.0000 1.0000
69.9400 266.0000 1.0000
69.9500 295.0000 1.0000
69.9600 265.0000 1.0000
69.9700 306.0000 1.0000
69.9800 285.0000 1.0000
69.9900 293.0000 1.0000
70.0000 300.0000 1.0000
*RAS_INT_END
*RAS_TEMPERATURE_START
*RAS_TEMPERATURE_END
*RAS_DATA_END
