*RAS_DATA_START
*RAS_HEADER_START
*DISP_FMT_X "%.2f"
*DISP_FMT_Y "%.0f"
*DISP_FULLSCALE "14492.0000000000"
*DISP_LINE_COLOR "255.0000000000"
*DISP_LINE_STYLE "0.0000000000"
*DISP_LINE_WIDTH "0.2500000000"
*DISP_NOTE "測定データ-1"
*DISP_OFFSET_Y "0.0000000000"
*DISP_PEAKSEARCH_UNIT_Y "cps"
*DISP_RANGE_BOTTOM "0.0000000000"
*DISP_RANGE_LEFT "20.0000000000"
*DISP_RANGE_LOGCUTOFF "0.0100000000"
*DISP_RANGE_RIGHT "70.0000000000"
*DISP_RANGE_TOP "14492.0000000000"
*DISP_SCALE_MODE_Y "0.0000000000"
*DISP_TAB_NAME "2θ/θ"
*DISP_TITLE_Y "強度"
*DISP_UNIT_Y "cps"
*DISP_WINDOW_NAME "MSG_MACROENGINE"
*FILE_COMMENT " "
*FILE_MD5 ""
*FILE_MEMO " "
*FILE_OPERATOR "Administrator"
*FILE_SAMPLE " "
*FILE_TYPE "RAS_RAW"
*FILE_USERGROUP "システムマネージャ"
*FILE_VERSION "1.0000000000"
*HW_ATTACHMENT_ID "ATT0025"
*HW_ATTACHMENT_NAME "標準|Standard"
*HW_COUNTER_ID-0 "CUT0025"
*HW_COUNTER_ID-1 "CUT0020"
*HW_COUNTER_ID-2 "CUT0020"
*HW_COUNTER_ID-3 "CSL0021"
*HW_COUNTER_ID-4 "CMC0021"
*HW_COUNTER_NAME-0 "D/teX Ultra|D/teX Ultra"
*HW_COUNTER_NAME-1 "None|None"
*HW_COUNTER_NAME-2 "None|None"
*HW_COUNTER_NAME-3 "BBM|BBM"
*HW_COUNTER_NAME-4 "検出器モノクロメータ|Detector monochromator"
*HW_COUNTER_SELECT_NAME "D/teX Ultra|D/teX Ultra"
*HW_GONIOMETER_ID "GON0023"
*HW_GONIOMETER_NAME "SmartLab|SmartLab"
*HW_GONIOMETER_RADIUS-0 "90.0"
*HW_GONIOMETER_RADIUS-1 "114.0"
*HW_GONIOMETER_RADIUS-2 "190.0"
*HW_GONIOMETER_RADIUS-3 "300.0"
*HW_GONIOMETER_RADIUS-4 "187.0"
*HW_GONIOMETER_RADIUS-5 "300.0"
*HW_GONIOMETER_RADIUS-6 "113.0"
*HW_GONIOMETER_RADIUS-7 "331.0"
*HW_I_OPT_ID-0 "CBO0021"
*HW_I_OPT_ID-1 "ICR0023"
*HW_I_OPT_ID-2 "ISL0021"
*HW_I_OPT_ID-3 "ISO0021"
*HW_I_OPT_ID-4 "IAD0021"
*HW_I_OPT_ID-5 "IPR0001"
*HW_I_OPT_NAME-0 "CBOユニット|CBO unit"
*HW_I_OPT_NAME-1 "標準入射光学ユニット|Standard incident optical unit"
*HW_I_OPT_NAME-2 "標準入射スリットボックス|Standard incident slit box"
*HW_I_OPT_NAME-3 "入射平行スリット|Incident parallel slit"
*HW_I_OPT_NAME-4 "長手制限スリット|Length limiting slit"
*HW_I_OPT_NAME-5 "None|None"
*HW_R_ATTENUATER_AUTOMODE "0"
*HW_R_OPT_ID-0 "RSS0021"
*HW_R_OPT_ID-1 "RCR0023"
*HW_R_OPT_ID-2 "RSO0021"
*HW_R_OPT_ID-3 "RRS0021"
*HW_R_OPT_ID-4 "ATN0021"
*HW_R_OPT_ID-5 "RFL0021"
*HW_R_OPT_ID-6 "RAD0021"
*HW_R_OPT_NAME-0 "標準受光スリットボックス1|Standard receiving slit box # 1"
*HW_R_OPT_NAME-1 "標準受光光学ユニット1|Standard receiving unit # 1"
*HW_R_OPT_NAME-2 "標準受光光学ユニット2|Standard receiving optical unit # 2"
*HW_R_OPT_NAME-3 "標準受光スリットボックス2|Standard receiving slit box # 2"
*HW_R_OPT_NAME-4 "標準アッテネータ|Standard Attenuator"
*HW_R_OPT_NAME-5 "Cu Kβ|Cu K-beta"
*HW_R_OPT_NAME-6 "調整用受光スリット|Alignment receiving slit"
*HW_SAMPLE_HOLDER_ID "SMP0023"
*HW_SAMPLE_HOLDER_NAME "標準Zステージ|Standard Z stage"
*HW_XG_CURRENT_MAX "50"
*HW_XG_CURRENT_MIN "2"
*HW_XG_CURRENT_RESOLUTION "1"
*HW_XG_CURRENT_UNIT "mA"
*HW_XG_FOCUS "1mm x 10mm"
*HW_XG_FOCUS_TYPE "Normal"
*HW_XG_ID ""
*HW_XG_NAME "3kW 封入管(ID:1200)|3kW Sealed tube(ID:1200)"
*HW_XG_TARGET_ATOMIC_NUMBER "29.0000000000"
*HW_XG_TARGET_NAME "Cu"
*HW_XG_TYPE "Hermetic"
*HW_XG_VOLTAGE_MAX "60"
*HW_XG_VOLTAGE_MIN "20"
*HW_XG_VOLTAGE_RESOLUTION "1"
*HW_XG_VOLTAGE_UNIT "kV"
*HW_XG_WATT_MAX "1.500"
*HW_XG_WATT_UNIT "kW"
*HW_XG_WAVE_LENGTH_ALPHA1 "1.540593"
*HW_XG_WAVE_LENGTH_ALPHA2 "1.544414"
*HW_XG_WAVE_LENGTH_BETA "1.392250"
*MEAS_COND_AXIS_NAME-0 "2θ/θ"
*MEAS_COND_AXIS_NAME-1 "2θ"
*MEAS_COND_AXIS_NAME-2 "ω"
*MEAS_COND_AXIS_NAME-3 "Z"
*MEAS_COND_AXIS_NAME-4 "2θ/ω"
*MEAS_COND_AXIS_NAME-5 "θs"
*MEAS_COND_AXIS_NAME-6 "θd"
*MEAS_COND_AXIS_NAME-7 "Ts"
*MEAS_COND_AXIS_NAME-8 "CBO選択スリット"
*MEAS_COND_AXIS_NAME-9 "M"
*MEAS_COND_AXIS_NAME-10 "入射平行スリット"
*MEAS_COND_AXIS_NAME-11 "入射スリット"
*MEAS_COND_AXIS_NAME-12 ""
*MEAS_COND_AXIS_NAME-13 "Zs"
*MEAS_COND_AXIS_NAME-14 "入射光学素子"
*MEAS_COND_AXIS_NAME-15 "長手制限スリット"
*MEAS_COND_AXIS_NAME-16 "センタースリット"
*MEAS_COND_AXIS_NAME-17 "フィルター"
*MEAS_COND_AXIS_NAME-18 "受光スリット1"
*MEAS_COND_AXIS_NAME-19 "受光スリット2"
*MEAS_COND_AXIS_NAME-20 "受光光学素子"
*MEAS_COND_AXIS_NAME-21 "受光平行スリット"
*MEAS_COND_AXIS_NAME-22 "調整用受光スリット"
*MEAS_COND_AXIS_NAME-23 ""
*MEAS_COND_AXIS_NAME-24 ""
*MEAS_COND_AXIS_NAME-25 "Zd"
*MEAS_COND_AXIS_NAME-26 "アッテネータ"
*MEAS_COND_AXIS_NAME-27 "検出器モノクロメータ"
*MEAS_COND_AXIS_NAME-28 "モノクロメータスリット"
*MEAS_COND_AXIS_NAME-29 "プライマリビーム"
*MEAS_COND_AXIS_NAME-30 "PHA"
*MEAS_COND_AXIS_NAME_INTERNAL-0 "TwoThetaTheta"
*MEAS_COND_AXIS_NAME_INTERNAL-1 "TwoTheta"
*MEAS_COND_AXIS_NAME_INTERNAL-2 "Omega"
*MEAS_COND_AXIS_NAME_INTERNAL-3 "Z"
*MEAS_COND_AXIS_NAME_INTERNAL-4 "TwoThetaOmega"
*MEAS_COND_AXIS_NAME_INTERNAL-5 "ThetaS"
*MEAS_COND_AXIS_NAME_INTERNAL-6 "ThetaD"
*MEAS_COND_AXIS_NAME_INTERNAL-7 "Ts"
*MEAS_COND_AXIS_NAME_INTERNAL-8 "CBO"
*MEAS_COND_AXIS_NAME_INTERNAL-9 "CBO-M"
*MEAS_COND_AXIS_NAME_INTERNAL-10 "IncidentSollerSlit"
*MEAS_COND_AXIS_NAME_INTERNAL-11 "IncidentSlitBox"
*MEAS_COND_AXIS_NAME_INTERNAL-12 "IncidentSlitBox-_Axis"
*MEAS_COND_AXIS_NAME_INTERNAL-13 "Zs"
*MEAS_COND_AXIS_NAME_INTERNAL-14 "IncidentMonochromator"
*MEAS_COND_AXIS_NAME_INTERNAL-15 "IncidentAxdSlit"
*MEAS_COND_AXIS_NAME_INTERNAL-16 "CenterSlit"
*MEAS_COND_AXIS_NAME_INTERNAL-17 "Filter"
*MEAS_COND_AXIS_NAME_INTERNAL-18 "ReceivingSlitBox1"
*MEAS_COND_AXIS_NAME_INTERNAL-19 "ReceivingSlitBox2"
*MEAS_COND_AXIS_NAME_INTERNAL-20 "ReceivingOptics"
*MEAS_COND_AXIS_NAME_INTERNAL-21 "ReceivingSollerSlit"
*MEAS_COND_AXIS_NAME_INTERNAL-22 "ReceivingAxdSlit"
*MEAS_COND_AXIS_NAME_INTERNAL-23 "ReceivingSlitBox1-_Axis"
*MEAS_COND_AXIS_NAME_INTERNAL-24 "ReceivingSlitBox2-_Axis"
*MEAS_COND_AXIS_NAME_INTERNAL-25 "ReceivingSlitBox2-Zd"
*MEAS_COND_AXIS_NAME_INTERNAL-26 "Attenuator"
*MEAS_COND_AXIS_NAME_INTERNAL-27 "CounterMonochromator"
*MEAS_COND_AXIS_NAME_INTERNAL-28 "CounterSlit"
*MEAS_COND_AXIS_NAME_INTERNAL-29 "IncidentPrimary"
*MEAS_COND_AXIS_NAME_INTERNAL-30 "PHA"
*MEAS_COND_AXIS_NAME_MAGICNO-0 "83951616.0000000000"
*MEAS_COND_AXIS_NAME_MAGICNO-1 "268632064.0000000000"
*MEAS_COND_AXIS_NAME_MAGICNO-2 "268500992.0000000000"
*MEAS_COND_AXIS_NAME_MAGICNO-3 "285278208.0000000000"
*MEAS_COND_AXIS_NAME_MAGICNO-4 "83951616.0000000000"
*MEAS_COND_AXIS_NAME_MAGICNO-5 "131072.0000000000"
*MEAS_COND_AXIS_NAME_MAGICNO-6 "131072.0000000000"
*MEAS_COND_AXIS_NAME_MAGICNO-7 "318898176.0000000000"
*MEAS_COND_AXIS_NAME_MAGICNO-8 "20971521.0000000000"
*MEAS_COND_AXIS_NAME_MAGICNO-9 "285343744.0000000000"
*MEAS_COND_AXIS_NAME_MAGICNO-10 "20971521.0000000000"
*MEAS_COND_AXIS_NAME_MAGICNO-11 "22020097.0000000000"
*MEAS_COND_AXIS_NAME_MAGICNO-12 "25165824.0000000000"
*MEAS_COND_AXIS_NAME_MAGICNO-13 "318898176.0000000000"
*MEAS_COND_AXIS_NAME_MAGICNO-14 "1.0000000000"
*MEAS_COND_AXIS_NAME_MAGICNO-15 "20971521.0000000000"
*MEAS_COND_AXIS_NAME_MAGICNO-16 "20971521.0000000000"
*MEAS_COND_AXIS_NAME_MAGICNO-17 "20971521.0000000000"
*MEAS_COND_AXIS_NAME_MAGICNO-18 "23068673.0000000000"
*MEAS_COND_AXIS_NAME_MAGICNO-19 "23068673.0000000000"
*MEAS_COND_AXIS_NAME_MAGICNO-20 "20971521.0000000000"
*MEAS_COND_AXIS_NAME_MAGICNO-21 "20971521.0000000000"
*MEAS_COND_AXIS_NAME_MAGICNO-22 "20971521.0000000000"
*MEAS_COND_AXIS_NAME_MAGICNO-23 "25165824.0000000000"
*MEAS_COND_AXIS_NAME_MAGICNO-24 "25165824.0000000000"
*MEAS_COND_AXIS_NAME_MAGICNO-25 "285343744.0000000000"
*MEAS_COND_AXIS_NAME_MAGICNO-26 "17301505.0000000000"
*MEAS_COND_AXIS_NAME_MAGICNO-27 "20971521.0000000000"
*MEAS_COND_AXIS_NAME_MAGICNO-28 "20971521.0000000000"
*MEAS_COND_AXIS_NAME_MAGICNO-29 "20971521.0000000000"
*MEAS_COND_AXIS_NAME_MAGICNO-30 "0.0000000000"
*MEAS_COND_AXIS_OFFSET-0 "-"
*MEAS_COND_AXIS_OFFSET-1 "-0.1081000000"
*MEAS_COND_AXIS_OFFSET-2 "0.3758000000"
*MEAS_COND_AXIS_OFFSET-3 "-"
*MEAS_COND_AXIS_OFFSET-4 "-"
*MEAS_COND_AXIS_OFFSET-5 "0.3758000000"
*MEAS_COND_AXIS_OFFSET-6 "-0.4839000000"
*MEAS_COND_AXIS_OFFSET-7 "-"
*MEAS_COND_AXIS_OFFSET-8 "-"
*MEAS_COND_AXIS_OFFSET-9 "-"
*MEAS_COND_AXIS_OFFSET-10 "-"
*MEAS_COND_AXIS_OFFSET-11 "-"
*MEAS_COND_AXIS_OFFSET-12 "-"
*MEAS_COND_AXIS_OFFSET-13 "-"
*MEAS_COND_AXIS_OFFSET-14 "-"
*MEAS_COND_AXIS_OFFSET-15 "-"
*MEAS_COND_AXIS_OFFSET-16 "-"
*MEAS_COND_AXIS_OFFSET-17 "-"
*MEAS_COND_AXIS_OFFSET-18 "-"
*MEAS_COND_AXIS_OFFSET-19 "-"
*MEAS_COND_AXIS_OFFSET-20 "-"
*MEAS_COND_AXIS_OFFSET-21 "-"
*MEAS_COND_AXIS_OFFSET-22 "-"
*MEAS_COND_AXIS_OFFSET-23 "-"
*MEAS_COND_AXIS_OFFSET-24 "-"
*MEAS_COND_AXIS_OFFSET-25 "-"
*MEAS_COND_AXIS_OFFSET-26 "-"
*MEAS_COND_AXIS_OFFSET-27 "-"
*MEAS_COND_AXIS_OFFSET-28 "-"
*MEAS_COND_AXIS_OFFSET-29 "-"
*MEAS_COND_AXIS_OFFSET-30 "-"
*MEAS_COND_AXIS_POSITION-0 "0.0000000000"
*MEAS_COND_AXIS_POSITION-1 "0.0000000000"
*MEAS_COND_AXIS_POSITION-2 "0.0000000000"
*MEAS_COND_AXIS_POSITION-3 "-0.5500000000"
*MEAS_COND_AXIS_POSITION-4 "0.0000000000"
*MEAS_COND_AXIS_POSITION-5 "0.0000000000"
*MEAS_COND_AXIS_POSITION-6 "0.0000000000"
*MEAS_COND_AXIS_POSITION-7 "-0.4278800000"
*MEAS_COND_AXIS_POSITION-8 "BB"
*MEAS_COND_AXIS_POSITION-9 "0.0000000000"
*MEAS_COND_AXIS_POSITION-10 "Soller_slit_5.0deg"
*MEAS_COND_AXIS_POSITION-11 "2/3deg"
*MEAS_COND_AXIS_POSITION-12 "2.2088000000"
*MEAS_COND_AXIS_POSITION-13 "-0.4140600000"
*MEAS_COND_AXIS_POSITION-14 "0.0000000000"
*MEAS_COND_AXIS_POSITION-15 "10.0mm"
*MEAS_COND_AXIS_POSITION-16 "None"
*MEAS_COND_AXIS_POSITION-17 "Cu_K-beta"
*MEAS_COND_AXIS_POSITION-18 "13.000mm"
*MEAS_COND_AXIS_POSITION-19 "13.000mm"
*MEAS_COND_AXIS_POSITION-20 "No_unit"
*MEAS_COND_AXIS_POSITION-21 "Soller_slit_5.0deg"
*MEAS_COND_AXIS_POSITION-22 "None"
*MEAS_COND_AXIS_POSITION-23 "13.0000000000"
*MEAS_COND_AXIS_POSITION-24 "13.0000000000"
*MEAS_COND_AXIS_POSITION-25 "0.0109400000"
*MEAS_COND_AXIS_POSITION-26 "Open"
*MEAS_COND_AXIS_POSITION-27 "None"
*MEAS_COND_AXIS_POSITION-28 "None"
*MEAS_COND_AXIS_POSITION-29 "None"
*MEAS_COND_AXIS_POSITION-30 "38.0000000000"
*MEAS_COND_AXIS_UNIT-0 "deg"
*MEAS_COND_AXIS_UNIT-1 "deg"
*MEAS_COND_AXIS_UNIT-2 "deg"
*MEAS_COND_AXIS_UNIT-3 "mm"
*MEAS_COND_AXIS_UNIT-4 "deg"
*MEAS_COND_AXIS_UNIT-5 "deg"
*MEAS_COND_AXIS_UNIT-6 "deg"
*MEAS_COND_AXIS_UNIT-7 "mm"
*MEAS_COND_AXIS_UNIT-8 ""
*MEAS_COND_AXIS_UNIT-9 "pulse"
*MEAS_COND_AXIS_UNIT-10 ""
*MEAS_COND_AXIS_UNIT-11 ""
*MEAS_COND_AXIS_UNIT-12 "mm"
*MEAS_COND_AXIS_UNIT-13 "mm"
*MEAS_COND_AXIS_UNIT-14 ""
*MEAS_COND_AXIS_UNIT-15 ""
*MEAS_COND_AXIS_UNIT-16 ""
*MEAS_COND_AXIS_UNIT-17 ""
*MEAS_COND_AXIS_UNIT-18 ""
*MEAS_COND_AXIS_UNIT-19 ""
*MEAS_COND_AXIS_UNIT-20 ""
*MEAS_COND_AXIS_UNIT-21 ""
*MEAS_COND_AXIS_UNIT-22 ""
*MEAS_COND_AXIS_UNIT-23 "mm"
*MEAS_COND_AXIS_UNIT-24 "mm"
*MEAS_COND_AXIS_UNIT-25 "mm"
*MEAS_COND_AXIS_UNIT-26 ""
*MEAS_COND_AXIS_UNIT-27 ""
*MEAS_COND_AXIS_UNIT-28 ""
*MEAS_COND_AXIS_UNIT-29 ""
*MEAS_COND_AXIS_UNIT-30 "div"
*MEAS_COND_COUNTER_CNTLOSS_CORR "0.0000000000"
*MEAS_COND_COUNTER_PHABASE "38.0000000000"
*MEAS_COND_COUNTER_PHAWINDOW "16.0000000000"
*MEAS_COND_COUNTER_PHA_UNIT "div"
*MEAS_COND_COUNTER_TAUDIFF "30.0000000000"
*MEAS_COND_COUNTER_TAUINT "0.0000000000"
*MEAS_COND_IRRADIATION_MODE "OFF"
*MEAS_COND_IRRADIATION_WIDTH ""
*MEAS_COND_OPT_ATTR "集中法"
*MEAS_COND_OPT_NAME "@集中法"
*MEAS_COND_UNSYMMETRIC_MODE "OFF"
*MEAS_COND_XG_CURRENT "30.0000000000"
*MEAS_COND_XG_VOLTAGE "40.0000000000"
*MEAS_COND_XG_WAVE_TYPE "Ka"
*MEAS_DATA_COUNT "5001.0000000000"
*MEAS_SCAN_AXIS_X "2θ/θ"
*MEAS_SCAN_AXIS_X_INTERNAL "TwoThetaTheta"
*MEAS_SCAN_END_TIME "07/08/21 11:46:33"
*MEAS_SCAN_MODE "CONTINUOUS"
*MEAS_SCAN_MONITOR "0"
*MEAS_SCAN_RESOLUTION_X "0.0002"
*MEAS_SCAN_SPEED "1.0"
*MEAS_SCAN_SPEED_UNIT "deg/min"
*MEAS_SCAN_START "20.0000000000"
*MEAS_SCAN_START_TIME "07/08/21 10:53:40"
*MEAS_SCAN_STEP "0.0100000000"
*MEAS_SCAN_STOP "70.0000000000"
*MEAS_SCAN_UNIT_X "deg"
*MEAS_SCAN_UNIT_Y "counts"
*RAS_HEADER_END
*RAS_INT_START
20.0000 1757.0000 1.0000
20.0100 1736.0000 1.0000
20.0200 1714.0000 1.0000
20.0300 1757.0000 1.0000
20.0400 1730.0000 1.0000
20.0500 1758.0000 1.0000
20.0600 1759.0000 1.0000
20.0700 1753.0000 1.0000
20.0800 1764.0000 1.0000
20.0900 1717.0000 1.0000
20.1000 1667.0000 1.0000
20.1100 1764.0000 1.0000
20.1200 1791.0000 1.0000
20.1300 1729.0000 1.0000
20.1400 1715.0000 1.0000
20.1500 1714.0000 1.0000
20.1600 1851.0000 1.0000
20.1700 1719.0000 1.0000
20.1800 1767.0000 1.0000
20.1900 1770.0000 1.0000
20.2000 1803.0000 1.0000
20.2100 1712.0000 1.0000
20.2200 1774.0000 1.0000
20.2300 1788.0000 1.0000
20.2400 1775.0000 1.0000
20.2500 1773.0000 1.0000
20.2600 1793.0000 1.0000
20.2700 1683.0000 1.0000
20.2800 1717.0000 1.0000
20.2900 1773.0000 1.0000
20.3000 1747.0000 1.0000
20.3100 1743.0000 1.0000
20.3200 1809.0000 1.0000
20.3300 1840.0000 1.0000
20.3400 1845.0000 1.0000
20.3500 1751.0000 1.0000
20.3600 1701.0000 1.0000
20.3700 1744.0000 1.0000
20.3800 1784.0000 1.0000
20.3900 1760.0000 1.0000
20.4000 1775.0000 1.0000
20.4100 1791.0000 1.0000
20.4200 1728.0000 1.0000
20.4300 1758.0000 1.0000
20.4400 1772.0000 1.0000
20.4500 1744.0000 1.0000
20.4600 1718.0000 1.0000
20.4700 1720.0000 1.0000
20.4800 1736.0000 1.0000
20.4900 1774.0000 1.0000
20.5000 1760.0000 1.0000
20.5100 1745.0000 1.0000
20.5200 1782.0000 1.0000
20.5300 1755.0000 1.0000
20.5400 1741.0000 1.0000
20.5500 1737.0000 1.0000
20.5600 1805.0000 1.0000
20.5700 1698.0000 1.0000
20.5800 1749.0000 1.0000
20.5900 1844.0000 1.0000
20.6000 1763.0000 1.0000
20.6100 1777.0000 1.0000
20.6200 1834.0000 1.0000
20.6300 1749.0000 1.0000
20.6400 1828.0000 1.0000
20.6500 1729.0000 1.0000
20.6600 1717.0000 1.0000
20.6700 1740.0000 1.0000
20.6800 1788.0000 1.0000
20.6900 1764.0000 1.0000
20.7000 1737.0000 1.0000
20.7100 1716.0000 1.0000
20.7200 1724.0000 1.0000
20.7300 1799.0000 1.0000
20.7400 1773.0000 1.0000
20.7500 1731.0000 1.0000
20.7600 1729.0000 1.0000
20.7700 1759.0000 1.0000
20.7800 1777.0000 1.0000
20.7900 1764.0000 1.0000
20.8000 1788.0000 1.0000
20.8100 1718.0000 1.0000
20.8200 1777.0000 1.0000
20.8300 1710.0000 1.0000
20.8400 1802.0000 1.0000
20.8500 1793.0000 1.0000
20.8600 1764.0000 1.0000
20.8700 1787.0000 1.0000
20.8800 1773.0000 1.0000
20.8900 1755.0000 1.0000
20.9000 1777.0000 1.0000
20.9100 1691.0000 1.0000
20.9200 1712.0000 1.0000
20.9300 1722.0000 1.0000
20.9400 1694.0000 1.0000
20.9500 1764.0000 1.0000
20.9600 1747.0000 1.0000
20.9700 1735.0000 1.0000
20.9800 1773.0000 1.0000
20.9900 1704.0000 1.0000
21.0000 1713.0000 1.0000
21.0100 1769.0000 1.0000
21.0200 1778.0000 1.0000
21.0300 1826.0000 1.0000
21.0400 1736.0000 1.0000
21.0500 1758.0000 1.0000
21.0600 1749.0000 1.0000
21.0700 1695.0000 1.0000
21.0800 1735.0000 1.0000
21.0900 1702.0000 1.0000
21.1000 1741.0000 1.0000
21.1100 1809.0000 1.0000
21.1200 1790.0000 1.0000
21.1300 1748.0000 1.0000
21.1400 1713.0000 1.0000
21.1500 1722.0000 1.0000
21.1600 1746.0000 1.0000
21.1700 1781.0000 1.0000
21.1800 1733.0000 1.0000
21.1900 1790.0000 1.0000
21.2000 1780.0000 1.0000
21.2100 1772.0000 1.0000
21.2200 1762.0000 1.0000
21.2300 1689.0000 1.0000
21.2400 1703.0000 1.0000
21.2500 1756.0000 1.0000
21.2600 1812.0000 1.0000
21.2700 1778.0000 1.0000
21.2800 1753.0000 1.0000
21.2900 1729.0000 1.0000
21.3000 1760.0000 1.0000
21.3100 1835.0000 1.0000
21.3200 1754.0000 1.0000
21.3300 1747.0000 1.0000
21.3400 1707.0000 1.0000
21.3500 1794.0000 1.0000
21.3600 1752.0000 1.0000
21.3700 1782.0000 1.0000
21.3800 1774.0000 1.0000
21.3900 1799.0000 1.0000
21.4000 1777.0000 1.0000
21.4100 1828.0000 1.0000
21.4200 1742.0000 1.0000
21.4300 1768.0000 1.0000
21.4400 1745.0000 1.0000
21.4500 1736.0000 1.0000
21.4600 1739.0000 1.0000
21.4700 1771.0000 1.0000
21.4800 1768.0000 1.0000
21.4900 1776.0000 1.0000
21.5000 1713.0000 1.0000
21.5100 1737.0000 1.0000
21.5200 1758.0000 1.0000
21.5300 1840.0000 1.0000
21.5400 1774.0000 1.0000
21.5500 1750.0000 1.0000
21.5600 1767.0000 1.0000
21.5700 1761.0000 1.0000
21.5800 1795.0000 1.0000
21.5900 1737.0000 1.0000
21.6000 1833.0000 1.0000
21.6100 1743.0000 1.0000
21.6200 1765.0000 1.0000
21.6300 1766.0000 1.0000
21.6400 1760.0000 1.0000
21.6500 1737.0000 1.0000
21.6600 1796.0000 1.0000
21.6700 1753.0000 1.0000
21.6800 1712.0000 1.0000
21.6900 1770.0000 1.0000
21.7000 1740.0000 1.0000
21.7100 1739.0000 1.0000
21.7200 1738.0000 1.0000
21.7300 1786.0000 1.0000
21.7400 1795.0000 1.0000
21.7500 1800.0000 1.0000
21.7600 1783.0000 1.0000
21.7700 1768.0000 1.0000
21.7800 1796.0000 1.0000
21.7900 1776.0000 1.0000
21.8000 1770.0000 1.0000
21.8100 1777.0000 1.0000
21.8200 1762.0000 1.0000
21.8300 1818.0000 1.0000
21.8400 1758.0000 1.0000
21.8500 1786.0000 1.0000
21.8600 1748.0000 1.0000
21.8700 1740.0000 1.0000
21.8800 1751.0000 1.0000
21.8900 1652.0000 1.0000
21.9000 1756.0000 1.0000
21.9100 1770.0000 1.0000
21.9200 1798.0000 1.0000
21.9300 1766.0000 1.0000
21.9400 1796.0000 1.0000
21.9500 1745.0000 1.0000
21.9600 1818.0000 1.0000
21.9700 1702.0000 1.0000
21.9800 1646.0000 1.0000
21.9900 1684.0000 1.0000
22.0000 1727.0000 1.0000
22.0100 1762.0000 1.0000
22.0200 1754.0000 1.0000
22.0300 1705.0000 1.0000
22.0400 1765.0000 1.0000
22.0500 1709.0000 1.0000
22.0600 1738.0000 1.0000
22.0700 1746.0000 1.0000
22.0800 1830.0000 1.0000
22.0900 1803.0000 1.0000
22.1000 1825.0000 1.0000
22.1100 1764.0000 1.0000
22.1200 1782.0000 1.0000
22.1300 1801.0000 1.0000
22.1400 1777.0000 1.0000
22.1500 1759.0000 1.0000
22.1600 1793.0000 1.0000
22.1700 1775.0000 1.0000
22.1800 1747.0000 1.0000
22.1900 1804.0000 1.0000
22.2000 1805.0000 1.0000
22.2100 1816.0000 1.0000
22.2200 1751.0000 1.0000
22.2300 1775.0000 1.0000
22.2400 1802.0000 1.0000
22.2500 1736.0000 1.0000
22.2600 1793.0000 1.0000
22.2700 1677.0000 1.0000
22.2800 1788.0000 1.0000
22.2900 1756.0000 1.0000
22.3000 1723.0000 1.0000
22.3100 1795.0000 1.0000
22.3200 1792.0000 1.0000
22.3300 1769.0000 1.0000
22.3400 1747.0000 1.0000
22.3500 1757.0000 1.0000
22.3600 1792.0000 1.0000
22.3700 1752.0000 1.0000
22.3800 1770.0000 1.0000
22.3900 1783.0000 1.0000
22.4000 1715.0000 1.0000
22.4100 1737.0000 1.0000
22.4200 1772.0000 1.0000
22.4300 1744.0000 1.0000
22.4400 1750.0000 1.0000
22.4500 1778.0000 1.0000
22.4600 1704.0000 1.0000
22.4700 1800.0000 1.0000
22.4800 1740.0000 1.0000
22.4900 1768.0000 1.0000
22.5000 1809.0000 1.0000
22.5100 1738.0000 1.0000
22.5200 1728.0000 1.0000
22.5300 1736.0000 1.0000
22.5400 1762.0000 1.0000
22.5500 1738.0000 1.0000
22.5600 1733.0000 1.0000
22.5700 1776.0000 1.0000
22.5800 1737.0000 1.0000
22.5900 1772.0000 1.0000
22.6000 1755.0000 1.0000
22.6100 1765.0000 1.0000
22.6200 1772.0000 1.0000
22.6300 1748.0000 1.0000
22.6400 1824.0000 1.0000
22.6500 1791.0000 1.0000
22.6600 1708.0000 1.0000
22.6700 1808.0000 1.0000
22.6800 1755.0000 1.0000
22.6900 1774.0000 1.0000
22.7000 1712.0000 1.0000
22.7100 1804.0000 1.0000
22.7200 1795.0000 1.0000
22.7300 1825.0000 1.0000
22.7400 1818.0000 1.0000
22.7500 1749.0000 1.0000
22.7600 1776.0000 1.0000
22.7700 1880.0000 1.0000
22.7800 1767.0000 1.0000
22.7900 1793.0000 1.0000
22.8000 1827.0000 1.0000
22.8100 1784.0000 1.0000
22.8200 1796.0000 1.0000
22.8300 1821.0000 1.0000
22.8400 1776.0000 1.0000
22.8500 1742.0000 1.0000
22.8600 1794.0000 1.0000
22.8700 1722.0000 1.0000
22.8800 1783.0000 1.0000
22.8900 1717.0000 1.0000
22.9000 1761.0000 1.0000
22.9100 1812.0000 1.0000
22.9200 1781.0000 1.0000
22.9300 1812.0000 1.0000
22.9400 1811.0000 1.0000
22.9500 1788.0000 1.0000
22.9600 1789.0000 1.0000
22.9700 1789.0000 1.0000
22.9800 1810.0000 1.0000
22.9900 1782.0000 1.0000
23.0000 1772.0000 1.0000
23.0100 1745.0000 1.0000
23.0200 1783.0000 1.0000
23.0300 1821.0000 1.0000
23.0400 1797.0000 1.0000
23.0500 1774.0000 1.0000
23.0600 1833.0000 1.0000
23.0700 1775.0000 1.0000
23.0800 1758.0000 1.0000
23.0900 1772.0000 1.0000
23.1000 1818.0000 1.0000
23.1100 1766.0000 1.0000
23.1200 1804.0000 1.0000
23.1300 1800.0000 1.0000
23.1400 1775.0000 1.0000
23.1500 1816.0000 1.0000
23.1600 1756.0000 1.0000
23.1700 1796.0000 1.0000
23.1800 1799.0000 1.0000
23.1900 1768.0000 1.0000
23.2000 1793.0000 1.0000
23.2100 1719.0000 1.0000
23.2200 1782.0000 1.0000
23.2300 1755.0000 1.0000
23.2400 1727.0000 1.0000
23.2500 1705.0000 1.0000
23.2600 1797.0000 1.0000
23.2700 1826.0000 1.0000
23.2800 1800.0000 1.0000
23.2900 1773.0000 1.0000
23.3000 1784.0000 1.0000
23.3100 1860.0000 1.0000
23.3200 1786.0000 1.0000
23.3300 1749.0000 1.0000
23.3400 1753.0000 1.0000
23.3500 1776.0000 1.0000
23.3600 1803.0000 1.0000
23.3700 1772.0000 1.0000
23.3800 1782.0000 1.0000
23.3900 1725.0000 1.0000
23.4000 1802.0000 1.0000
23.4100 1812.0000 1.0000
23.4200 1752.0000 1.0000
23.4300 1829.0000 1.0000
23.4400 1787.0000 1.0000
23.4500 1756.0000 1.0000
23.4600 1805.0000 1.0000
23.4700 1762.0000 1.0000
23.4800 1755.0000 1.0000
23.4900 1763.0000 1.0000
23.5000 1812.0000 1.0000
23.5100 1810.0000 1.0000
23.5200 1728.0000 1.0000
23.5300 1834.0000 1.0000
23.5400 1864.0000 1.0000
23.5500 1788.0000 1.0000
23.5600 1784.0000 1.0000
23.5700 1720.0000 1.0000
23.5800 1796.0000 1.0000
23.5900 1758.0000 1.0000
23.6000 1824.0000 1.0000
23.6100 1777.0000 1.0000
23.6200 1817.0000 1.0000
23.6300 1758.0000 1.0000
23.6400 1729.0000 1.0000
23.6500 1734.0000 1.0000
23.6600 1782.0000 1.0000
23.6700 1865.0000 1.0000
23.6800 1867.0000 1.0000
23.6900 1891.0000 1.0000
23.7000 1785.0000 1.0000
23.7100 1816.0000 1.0000
23.7200 1797.0000 1.0000
23.7300 1791.0000 1.0000
23.7400 1837.0000 1.0000
23.7500 1806.0000 1.0000
23.7600 1820.0000 1.0000
23.7700 1800.0000 1.0000
23.7800 1799.0000 1.0000
23.7900 1804.0000 1.0000
23.8000 1839.0000 1.0000
23.8100 1853.0000 1.0000
23.8200 1780.0000 1.0000
23.8300 1823.0000 1.0000
23.8400 1795.0000 1.0000
23.8500 1824.0000 1.0000
23.8600 1786.0000 1.0000
23.8700 1801.0000 1.0000
23.8800 1802.0000 1.0000
23.8900 1792.0000 1.0000
23.9000 1765.0000 1.0000
23.9100 1732.0000 1.0000
23.9200 1759.0000 1.0000
23.9300 1718.0000 1.0000
23.9400 1831.0000 1.0000
23.9500 1874.0000 1.0000
23.9600 1809.0000 1.0000
23.9700 1791.0000 1.0000
23.9800 1828.0000 1.0000
23.9900 1804.0000 1.0000
24.0000 1853.0000 1.0000
24.0100 1747.0000 1.0000
24.0200 1801.0000 1.0000
24.0300 1795.0000 1.0000
24.0400 1774.0000 1.0000
24.0500 1809.0000 1.0000
24.0600 1776.0000 1.0000
24.0700 1797.0000 1.0000
24.0800 1804.0000 1.0000
24.0900 1825.0000 1.0000
24.1000 1776.0000 1.0000
24.1100 1773.0000 1.0000
24.1200 1811.0000 1.0000
24.1300 1754.0000 1.0000
24.1400 1770.0000 1.0000
24.1500 1784.0000 1.0000
24.1600 1754.0000 1.0000
24.1700 1843.0000 1.0000
24.1800 1786.0000 1.0000
24.1900 1841.0000 1.0000
24.2000 1860.0000 1.0000
24.2100 1724.0000 1.0000
24.2200 1750.0000 1.0000
24.2300 1753.0000 1.0000
24.2400 1752.0000 1.0000
24.2500 1824.0000 1.0000
24.2600 1838.0000 1.0000
24.2700 1779.0000 1.0000
24.2800 1756.0000 1.0000
24.2900 1786.0000 1.0000
24.3000 1789.0000 1.0000
24.3100 1799.0000 1.0000
24.3200 1802.0000 1.0000
24.3300 1827.0000 1.0000
24.3400 1769.0000 1.0000
24.3500 1793.0000 1.0000
24.3600 1884.0000 1.0000
24.3700 1788.0000 1.0000
24.3800 1812.0000 1.0000
24.3900 1809.0000 1.0000
24.4000 1722.0000 1.0000
24.4100 1738.0000 1.0000
24.4200 1831.0000 1.0000
24.4300 1768.0000 1.0000
24.4400 1822.0000 1.0000
24.4500 1757.0000 1.0000
24.4600 1776.0000 1.0000
24.4700 1797.0000 1.0000
24.4800 1814.0000 1.0000
24.4900 1785.0000 1.0000
24.5000 1817.0000 1.0000
24.5100 1795.0000 1.0000
24.5200 1767.0000 1.0000
24.5300 1823.0000 1.0000
24.5400 1759.0000 1.0000
24.5500 1780.0000 1.0000
24.5600 1786.0000 1.0000
24.5700 1791.0000 1.0000
24.5800 1795.0000 1.0000
24.5900 1793.0000 1.0000
24.6000 1825.0000 1.0000
24.6100 1793.0000 1.0000
24.6200 1796.0000 1.0000
24.6300 1825.0000 1.0000
24.6400 1837.0000 1.0000
24.6500 1803.0000 1.0000
24.6600 1845.0000 1.0000
24.6700 1819.0000 1.0000
24.6800 1822.0000 1.0000
24.6900 1852.0000 1.0000
24.7000 1827.0000 1.0000
24.7100 1819.0000 1.0000
24.7200 1829.0000 1.0000
24.7300 1878.0000 1.0000
24.7400 1923.0000 1.0000
24.7500 1835.0000 1.0000
24.7600 1852.0000 1.0000
24.7700 1804.0000 1.0000
24.7800 1803.0000 1.0000
24.7900 1876.0000 1.0000
24.8000 1870.0000 1.0000
24.8100 1886.0000 1.0000
24.8200 1825.0000 1.0000
24.8300 1873.0000 1.0000
24.8400 1818.0000 1.0000
24.8500 1860.0000 1.0000
24.8600 1868.0000 1.0000
24.8700 1955.0000 1.0000
24.8800 1874.0000 1.0000
24.8900 1833.0000 1.0000
24.9000 1949.0000 1.0000
24.9100 1826.0000 1.0000
24.9200 1857.0000 1.0000
24.9300 1830.0000 1.0000
24.9400 1952.0000 1.0000
24.9500 1849.0000 1.0000
24.9600 1875.0000 1.0000
24.9700 1863.0000 1.0000
24.9800 1890.0000 1.0000
24.9900 1938.0000 1.0000
25.0000 1966.0000 1.0000
25.0100 1874.0000 1.0000
25.0200 1891.0000 1.0000
25.0300 1882.0000 1.0000
25.0400 1913.0000 1.0000
25.0500 1878.0000 1.0000
25.0600 1820.0000 1.0000
25.0700 1882.0000 1.0000
25.0800 1856.0000 1.0000
25.0900 1929.0000 1.0000
25.1000 1889.0000 1.0000
25.1100 1958.0000 1.0000
25.1200 1872.0000 1.0000
25.1300 1801.0000 1.0000
25.1400 1842.0000 1.0000
25.1500 1866.0000 1.0000
25.1600 1922.0000 1.0000
25.1700 1766.0000 1.0000
25.1800 1879.0000 1.0000
25.1900 1839.0000 1.0000
25.2000 1813.0000 1.0000
25.2100 1867.0000 1.0000
25.2200 1869.0000 1.0000
25.2300 1858.0000 1.0000
25.2400 1852.0000 1.0000
25.2500 1906.0000 1.0000
25.2600 1868.0000 1.0000
25.2700 1940.0000 1.0000
25.2800 1905.0000 1.0000
25.2900 1803.0000 1.0000
25.3000 1821.0000 1.0000
25.3100 1823.0000 1.0000
25.3200 1832.0000 1.0000
25.3300 1787.0000 1.0000
25.3400 1886.0000 1.0000
25.3500 1881.0000 1.0000
25.3600 1894.0000 1.0000
25.3700 1818.0000 1.0000
25.3800 1891.0000 1.0000
25.3900 1851.0000 1.0000
25.4000 1825.0000 1.0000
25.4100 1815.0000 1.0000
25.4200 1788.0000 1.0000
25.4300 1805.0000 1.0000
25.4400 1898.0000 1.0000
25.4500 1771.0000 1.0000
25.4600 1780.0000 1.0000
25.4700 1751.0000 1.0000
25.4800 1764.0000 1.0000
25.4900 1892.0000 1.0000
25.5000 1832.0000 1.0000
25.5100 1755.0000 1.0000
25.5200 1860.0000 1.0000
25.5300 1839.0000 1.0000
25.5400 1823.0000 1.0000
25.5500 1858.0000 1.0000
25.5600 1911.0000 1.0000
25.5700 1891.0000 1.0000
25.5800 1872.0000 1.0000
25.5900 1775.0000 1.0000
25.6000 1822.0000 1.0000
25.6100 1773.0000 1.0000
25.6200 1804.0000 1.0000
25.6300 1849.0000 1.0000
25.6400 1828.0000 1.0000
25.6500 1795.0000 1.0000
25.6600 1760.0000 1.0000
25.6700 1753.0000 1.0000
25.6800 1897.0000 1.0000
25.6900 1850.0000 1.0000
25.7000 1879.0000 1.0000
25.7100 1852.0000 1.0000
25.7200 1859.0000 1.0000
25.7300 1823.0000 1.0000
25.7400 1795.0000 1.0000
25.7500 1824.0000 1.0000
25.7600 1822.0000 1.0000
25.7700 1788.0000 1.0000
25.7800 1812.0000 1.0000
25.7900 1843.0000 1.0000
25.8000 1830.0000 1.0000
25.8100 1807.0000 1.0000
25.8200 1837.0000 1.0000
25.8300 1769.0000 1.0000
25.8400 1875.0000 1.0000
25.8500 1817.0000 1.0000
25.8600 1837.0000 1.0000
25.8700 1866.0000 1.0000
25.8800 1845.0000 1.0000
25.8900 1890.0000 1.0000
25.9000 1885.0000 1.0000
25.9100 1847.0000 1.0000
25.9200 1824.0000 1.0000
25.9300 1832.0000 1.0000
25.9400 1775.0000 1.0000
25.9500 1841.0000 1.0000
25.9600 1786.0000 1.0000
25.9700 1823.0000 1.0000
25.9800 1799.0000 1.0000
25.9900 1802.0000 1.0000
26.0000 1793.0000 1.0000
26.0100 1837.0000 1.0000
26.0200 1795.0000 1.0000
26.0300 1884.0000 1.0000
26.0400 1852.0000 1.0000
26.0500 1800.0000 1.0000
26.0600 1778.0000 1.0000
26.0700 1827.0000 1.0000
26.0800 1810.0000 1.0000
26.0900 1884.0000 1.0000
26.1000 1754.0000 1.0000
26.1100 1762.0000 1.0000
26.1200 1775.0000 1.0000
26.1300 1791.0000 1.0000
26.1400 1822.0000 1.0000
26.1500 1828.0000 1.0000
26.1600 1829.0000 1.0000
26.1700 1801.0000 1.0000
26.1800 1767.0000 1.0000
26.1900 1775.0000 1.0000
26.2000 1768.0000 1.0000
26.2100 1888.0000 1.0000
26.2200 1837.0000 1.0000
26.2300 1879.0000 1.0000
26.2400 1818.0000 1.0000
26.2500 1868.0000 1.0000
26.2600 1784.0000 1.0000
26.2700 1824.0000 1.0000
26.2800 1806.0000 1.0000
26.2900 1846.0000 1.0000
26.3000 1819.0000 1.0000
26.3100 1817.0000 1.0000
26.3200 1885.0000 1.0000
26.3300 1842.0000 1.0000
26.3400 1806.0000 1.0000
26.3500 1850.0000 1.0000
26.3600 1871.0000 1.0000
26.3700 1828.0000 1.0000
26.3800 1858.0000 1.0000
26.3900 1857.0000 1.0000
26.4000 1873.0000 1.0000
26.4100 1837.0000 1.0000
26.4200 1840.0000 1.0000
26.4300 1828.0000 1.0000
26.4400 1811.0000 1.0000
26.4500 1799.0000 1.0000
26.4600 1830.0000 1.0000
26.4700 1799.0000 1.0000
26.4800 1877.0000 1.0000
26.4900 1860.0000 1.0000
26.5000 1826.0000 1.0000
26.5100 1850.0000 1.0000
26.5200 1841.0000 1.0000
26.5300 1868.0000 1.0000
26.5400 1873.0000 1.0000
26.5500 1883.0000 1.0000
26.5600 1873.0000 1.0000
26.5700 1895.0000 1.0000
26.5800 1852.0000 1.0000
26.5900 1938.0000 1.0000
26.6000 1879.0000 1.0000
26.6100 1886.0000 1.0000
26.6200 1913.0000 1.0000
26.6300 1871.0000 1.0000
26.6400 1921.0000 1.0000
26.6500 1970.0000 1.0000
26.6600 1853.0000 1.0000
26.6700 1814.0000 1.0000
26.6800 1845.0000 1.0000
26.6900 1863.0000 1.0000
26.7000 1973.0000 1.0000
26.7100 1977.0000 1.0000
26.7200 1902.0000 1.0000
26.7300 1942.0000 1.0000
26.7400 1944.0000 1.0000
26.7500 1918.0000 1.0000
26.7600 1925.0000 1.0000
26.7700 1936.0000 1.0000
26.7800 1927.0000 1.0000
26.7900 1934.0000 1.0000
26.8000 1969.0000 1.0000
26.8100 1990.0000 1.0000
26.8200 1952.0000 1.0000
26.8300 2064.0000 1.0000
26.8400 1983.0000 1.0000
26.8500 2022.0000 1.0000
26.8600 1965.0000 1.0000
26.8700 2019.0000 1.0000
26.8800 2053.0000 1.0000
26.8900 2061.0000 1.0000
26.9000 2026.0000 1.0000
26.9100 2082.0000 1.0000
26.9200 2139.0000 1.0000
26.9300 2150.0000 1.0000
26.9400 2152.0000 1.0000
26.9500 2153.0000 1.0000
26.9600 2159.0000 1.0000
26.9700 2274.0000 1.0000
26.9800 2239.0000 1.0000
26.9900 2368.0000 1.0000
27.0000 2458.0000 1.0000
27.0100 2425.0000 1.0000
27.0200 2486.0000 1.0000
27.0300 2543.0000 1.0000
27.0400 2601.0000 1.0000
27.0500 2627.0000 1.0000
27.0600 2681.0000 1.0000
27.0700 2758.0000 1.0000
27.0800 2889.0000 1.0000
27.0900 2957.0000 1.0000
27.1000 3095.0000 1.0000
27.1100 3235.0000 1.0000
27.1200 3228.0000 1.0000
27.1300 3444.0000 1.0000
27.1400 3584.0000 1.0000
27.1500 3773.0000 1.0000
27.1600 3972.0000 1.0000
27.1700 4118.0000 1.0000
27.1800 4333.0000 1.0000
27.1900 4534.0000 1.0000
27.2000 4790.0000 1.0000
27.2100 4995.0000 1.0000
27.2200 5356.0000 1.0000
27.2300 5644.0000 1.0000
27.2400 6001.0000 1.0000
27.2500 6289.0000 1.0000
27.2600 6536.0000 1.0000
27.2700 6675.0000 1.0000
27.2800 6899.0000 1.0000
27.2900 7086.0000 1.0000
27.3000 7246.0000 1.0000
27.3100 7197.0000 1.0000
27.3200 7140.0000 1.0000
27.3300 6812.0000 1.0000
27.3400 6651.0000 1.0000
27.3500 6463.0000 1.0000
27.3600 6148.0000 1.0000
27.3700 5851.0000 1.0000
27.3800 5676.0000 1.0000
27.3900 5356.0000 1.0000
27.4000 5031.0000 1.0000
27.4100 4773.0000 1.0000
27.4200 4499.0000 1.0000
27.4300 4240.0000 1.0000
27.4400 4057.0000 1.0000
27.4500 3856.0000 1.0000
27.4600 3666.0000 1.0000
27.4700 3546.0000 1.0000
27.4800 3410.0000 1.0000
27.4900 3224.0000 1.0000
27.5000 3116.0000 1.0000
27.5100 2936.0000 1.0000
27.5200 2947.0000 1.0000
27.5300 2783.0000 1.0000
27.5400 2762.0000 1.0000
27.5500 2703.0000 1.0000
27.5600 2578.0000 1.0000
27.5700 2551.0000 1.0000
27.5800 2491.0000 1.0000
27.5900 2410.0000 1.0000
27.6000 2438.0000 1.0000
27.6100 2342.0000 1.0000
27.6200 2280.0000 1.0000
27.6300 2298.0000 1.0000
27.6400 2226.0000 1.0000
27.6500 2289.0000 1.0000
27.6600 2140.0000 1.0000
27.6700 2157.0000 1.0000
27.6800 2109.0000 1.0000
27.6900 2121.0000 1.0000
27.7000 2079.0000 1.0000
27.7100 2128.0000 1.0000
27.7200 2075.0000 1.0000
27.7300 2054.0000 1.0000
27.7400 2026.0000 1.0000
27.7500 1974.0000 1.0000
27.7600 1995.0000 1.0000
27.7700 2006.0000 1.0000
27.7800 1973.0000 1.0000
27.7900 1919.0000 1.0000
27.8000 1998.0000 1.0000
27.8100 1904.0000 1.0000
27.8200 1956.0000 1.0000
27.8300 1900.0000 1.0000
27.8400 1923.0000 1.0000
27.8500 1939.0000 1.0000
27.8600 1930.0000 1.0000
27.8700 1826.0000 1.0000
27.8800 1883.0000 1.0000
27.8900 1918.0000 1.0000
27.9000 1831.0000 1.0000
27.9100 1850.0000 1.0000
27.9200 1876.0000 1.0000
27.9300 1786.0000 1.0000
27.9400 1790.0000 1.0000
27.9500 1787.0000 1.0000
27.9600 1866.0000 1.0000
27.9700 1805.0000 1.0000
27.9800 1848.0000 1.0000
27.9900 1810.0000 1.0000
28.0000 1772.0000 1.0000
28.0100 1745.0000 1.0000
28.0200 1818.0000 1.0000
28.0300 1711.0000 1.0000
28.0400 1761.0000 1.0000
28.0500 1802.0000 1.0000
28.0600 1758.0000 1.0000
28.0700 1680.0000 1.0000
28.0800 1743.0000 1.0000
28.0900 1742.0000 1.0000
28.1000 1804.0000 1.0000
28.1100 1754.0000 1.0000
28.1200 1761.0000 1.0000
28.1300 1764.0000 1.0000
28.1400 1776.0000 1.0000
28.1500 1732.0000 1.0000
28.1600 1731.0000 1.0000
28.1700 1761.0000 1.0000
28.1800 1744.0000 1.0000
28.1900 1719.0000 1.0000
28.2000 1815.0000 1.0000
28.2100 1824.0000 1.0000
28.2200 1761.0000 1.0000
28.2300 1682.0000 1.0000
28.2400 1730.0000 1.0000
28.2500 1759.0000 1.0000
28.2600 1731.0000 1.0000
28.2700 1758.0000 1.0000
28.2800 1712.0000 1.0000
28.2900 1706.0000 1.0000
28.3000 1713.0000 1.0000
28.3100 1691.0000 1.0000
28.3200 1725.0000 1.0000
28.3300 1745.0000 1.0000
28.3400 1743.0000 1.0000
28.3500 1690.0000 1.0000
28.3600 1751.0000 1.0000
28.3700 1771.0000 1.0000
28.3800 1658.0000 1.0000
28.3900 1740.0000 1.0000
28.4000 1695.0000 1.0000
28.4100 1654.0000 1.0000
28.4200 1624.0000 1.0000
28.4300 1707.0000 1.0000
28.4400 1722.0000 1.0000
28.4500 1677.0000 1.0000
28.4600 1760.0000 1.0000
28.4700 1703.0000 1.0000
28.4800 1715.0000 1.0000
28.4900 1643.0000 1.0000
28.5000 1697.0000 1.0000
28.5100 1682.0000 1.0000
28.5200 1660.0000 1.0000
28.5300 1739.0000 1.0000
28.5400 1751.0000 1.0000
28.5500 1738.0000 1.0000
28.5600 1714.0000 1.0000
28.5700 1624.0000 1.0000
28.5800 1616.0000 1.0000
28.5900 1654.0000 1.0000
28.6000 1660.0000 1.0000
28.6100 1636.0000 1.0000
28.6200 1620.0000 1.0000
28.6300 1612.0000 1.0000
28.6400 1671.0000 1.0000
28.6500 1624.0000 1.0000
28.6600 1662.0000 1.0000
28.6700 1631.0000 1.0000
28.6800 1607.0000 1.0000
28.6900 1643.0000 1.0000
28.7000 1706.0000 1.0000
28.7100 1617.0000 1.0000
28.7200 1724.0000 1.0000
28.7300 1639.0000 1.0000
28.7400 1632.0000 1.0000
28.7500 1664.0000 1.0000
28.7600 1639.0000 1.0000
28.7700 1701.0000 1.0000
28.7800 1617.0000 1.0000
28.7900 1663.0000 1.0000
28.8000 1687.0000 1.0000
28.8100 1672.0000 1.0000
28.8200 1650.0000 1.0000
28.8300 1649.0000 1.0000
28.8400 1688.0000 1.0000
28.8500 1661.0000 1.0000
28.8600 1590.0000 1.0000
28.8700 1685.0000 1.0000
28.8800 1647.0000 1.0000
28.8900 1667.0000 1.0000
28.9000 1678.0000 1.0000
28.9100 1641.0000 1.0000
28.9200 1660.0000 1.0000
28.9300 1663.0000 1.0000
28.9400 1622.0000 1.0000
28.9500 1623.0000 1.0000
28.9600 1631.0000 1.0000
28.9700 1626.0000 1.0000
28.9800 1553.0000 1.0000
28.9900 1692.0000 1.0000
29.0000 1619.0000 1.0000
29.0100 1632.0000 1.0000
29.0200 1613.0000 1.0000
29.0300 1667.0000 1.0000
29.0400 1620.0000 1.0000
29.0500 1626.0000 1.0000
29.0600 1664.0000 1.0000
29.0700 1667.0000 1.0000
29.0800 1653.0000 1.0000
29.0900 1643.0000 1.0000
29.1000 1666.0000 1.0000
29.1100 1648.0000 1.0000
29.1200 1644.0000 1.0000
29.1300 1689.0000 1.0000
29.1400 1627.0000 1.0000
29.1500 1608.0000 1.0000
29.1600 1641.0000 1.0000
29.1700 1689.0000 1.0000
29.1800 1579.0000 1.0000
29.1900 1535.0000 1.0000
29.2000 1644.0000 1.0000
29.2100 1673.0000 1.0000
29.2200 1645.0000 1.0000
29.2300 1705.0000 1.0000
29.2400 1598.0000 1.0000
29.2500 1581.0000 1.0000
29.2600 1627.0000 1.0000
29.2700 1655.0000 1.0000
29.2800 1614.0000 1.0000
29.2900 1654.0000 1.0000
29.3000 1588.0000 1.0000
29.3100 1589.0000 1.0000
29.3200 1655.0000 1.0000
29.3300 1559.0000 1.0000
29.3400 1604.0000 1.0000
29.3500 1611.0000 1.0000
29.3600 1688.0000 1.0000
29.3700 1609.0000 1.0000
29.3800 1634.0000 1.0000
29.3900 1619.0000 1.0000
29.4000 1634.0000 1.0000
29.4100 1606.0000 1.0000
29.4200 1604.0000 1.0000
29.4300 1611.0000 1.0000
29.4400 1534.0000 1.0000
29.4500 1606.0000 1.0000
29.4600 1591.0000 1.0000
29.4700 1648.0000 1.0000
29.4800 1599.0000 1.0000
29.4900 1640.0000 1.0000
29.5000 1596.0000 1.0000
29.5100 1604.0000 1.0000
29.5200 1574.0000 1.0000
29.5300 1582.0000 1.0000
29.5400 1548.0000 1.0000
29.5500 1597.0000 1.0000
29.5600 1608.0000 1.0000
29.5700 1576.0000 1.0000
29.5800 1662.0000 1.0000
29.5900 1612.0000 1.0000
29.6000 1584.0000 1.0000
29.6100 1634.0000 1.0000
29.6200 1607.0000 1.0000
29.6300 1579.0000 1.0000
29.6400 1555.0000 1.0000
29.6500 1613.0000 1.0000
29.6600 1558.0000 1.0000
29.6700 1563.0000 1.0000
29.6800 1616.0000 1.0000
29.6900 1518.0000 1.0000
29.7000 1591.0000 1.0000
29.7100 1528.0000 1.0000
29.7200 1575.0000 1.0000
29.7300 1576.0000 1.0000
29.7400 1654.0000 1.0000
29.7500 1596.0000 1.0000
29.7600 1596.0000 1.0000
29.7700 1529.0000 1.0000
29.7800 1489.0000 1.0000
29.7900 1544.0000 1.0000
29.8000 1561.0000 1.0000
29.8100 1616.0000 1.0000
29.8200 1601.0000 1.0000
29.8300 1551.0000 1.0000
29.8400 1563.0000 1.0000
29.8500 1606.0000 1.0000
29.8600 1601.0000 1.0000
29.8700 1644.0000 1.0000
29.8800 1647.0000 1.0000
29.8900 1568.0000 1.0000
29.9000 1590.0000 1.0000
29.9100 1586.0000 1.0000
29.9200 1555.0000 1.0000
29.9300 1548.0000 1.0000
29.9400 1601.0000 1.0000
29.9500 1502.0000 1.0000
29.9600 1564.0000 1.0000
29.9700 1627.0000 1.0000
29.9800 1582.0000 1.0000
29.9900 1600.0000 1.0000
30.0000 1621.0000 1.0000
30.0100 1581.0000 1.0000
30.0200 1524.0000 1.0000
30.0300 1543.0000 1.0000
30.0400 1554.0000 1.0000
30.0500 1579.0000 1.0000
30.0600 1627.0000 1.0000
30.0700 1575.0000 1.0000
30.0800 1534.0000 1.0000
30.0900 1564.0000 1.0000
30.1000 1574.0000 1.0000
30.1100 1590.0000 1.0000
30.1200 1582.0000 1.0000
30.1300 1553.0000 1.0000
30.1400 1615.0000 1.0000
30.1500 1547.0000 1.0000
30.1600 1508.0000 1.0000
30.1700 1542.0000 1.0000
30.1800 1545.0000 1.0000
30.1900 1530.0000 1.0000
30.2000 1496.0000 1.0000
30.2100 1496.0000 1.0000
30.2200 1523.0000 1.0000
30.2300 1593.0000 1.0000
30.2400 1562.0000 1.0000
30.2500 1557.0000 1.0000
30.2600 1548.0000 1.0000
30.2700 1557.0000 1.0000
30.2800 1580.0000 1.0000
30.2900 1535.0000 1.0000
30.3000 1553.0000 1.0000
30.3100 1553.0000 1.0000
30.3200 1603.0000 1.0000
30.3300 1619.0000 1.0000
30.3400 1546.0000 1.0000
30.3500 1531.0000 1.0000
30.3600 1593.0000 1.0000
30.3700 1530.0000 1.0000
30.3800 1567.0000 1.0000
30.3900 1529.0000 1.0000
30.4000 1559.0000 1.0000
30.4100 1528.0000 1.0000
30.4200 1615.0000 1.0000
30.4300 1536.0000 1.0000
30.4400 1528.0000 1.0000
30.4500 1597.0000 1.0000
30.4600 1527.0000 1.0000
30.4700 1528.0000 1.0000
30.4800 1576.0000 1.0000
30.4900 1483.0000 1.0000
30.5000 1534.0000 1.0000
30.5100 1593.0000 1.0000
30.5200 1482.0000 1.0000
30.5300 1525.0000 1.0000
30.5400 1574.0000 1.0000
30.5500 1535.0000 1.0000
30.5600 1607.0000 1.0000
30.5700 1513.0000 1.0000
30.5800 1538.0000 1.0000
30.5900 1574.0000 1.0000
30.6000 1507.0000 1.0000
30.6100 1481.0000 1.0000
30.6200 1520.0000 1.0000
30.6300 1497.0000 1.0000
30.6400 1478.0000 1.0000
30.6500 1565.0000 1.0000
30.6600 1538.0000 1.0000
30.6700 1520.0000 1.0000
30.6800 1520.0000 1.0000
30.6900 1483.0000 1.0000
30.7000 1481.0000 1.0000
30.7100 1463.0000 1.0000
30.7200 1514.0000 1.0000
30.7300 1540.0000 1.0000
30.7400 1569.0000 1.0000
30.7500 1530.0000 1.0000
30.7600 1470.0000 1.0000
30.7700 1545.0000 1.0000
30.7800 1589.0000 1.0000
30.7900 1532.0000 1.0000
30.8000 1469.0000 1.0000
30.8100 1497.0000 1.0000
30.8200 1543.0000 1.0000
30.8300 1524.0000 1.0000
30.8400 1517.0000 1.0000
30.8500 1468.0000 1.0000
30.8600 1482.0000 1.0000
30.8700 1504.0000 1.0000
30.8800 1548.0000 1.0000
30.8900 1578.0000 1.0000
30.9000 1520.0000 1.0000
30.9100 1489.0000 1.0000
30.9200 1499.0000 1.0000
30.9300 1546.0000 1.0000
30.9400 1527.0000 1.0000
30.9500 1487.0000 1.0000
30.9600 1478.0000 1.0000
30.9700 1559.0000 1.0000
30.9800 1510.0000 1.0000
30.9900 1422.0000 1.0000
31.0000 1486.0000 1.0000
31.0100 1557.0000 1.0000
31.0200 1588.0000 1.0000
31.0300 1532.0000 1.0000
31.0400 1513.0000 1.0000
31.0500 1445.0000 1.0000
31.0600 1517.0000 1.0000
31.0700 1547.0000 1.0000
31.0800 1511.0000 1.0000
31.0900 1501.0000 1.0000
31.1000 1478.0000 1.0000
31.1100 1490.0000 1.0000
31.1200 1486.0000 1.0000
31.1300 1548.0000 1.0000
31.1400 1509.0000 1.0000
31.1500 1502.0000 1.0000
31.1600 1453.0000 1.0000
31.1700 1514.0000 1.0000
31.1800 1457.0000 1.0000
31.1900 1500.0000 1.0000
31.2000 1507.0000 1.0000
31.2100 1546.0000 1.0000
31.2200 1481.0000 1.0000
31.2300 1522.0000 1.0000
31.2400 1460.0000 1.0000
31.2500 1534.0000 1.0000
31.2600 1468.0000 1.0000
31.2700 1510.0000 1.0000
31.2800 1480.0000 1.0000
31.2900 1451.0000 1.0000
31.3000 1492.0000 1.0000
31.3100 1464.0000 1.0000
31.3200 1493.0000 1.0000
31.3300 1457.0000 1.0000
31.3400 1545.0000 1.0000
31.3500 1501.0000 1.0000
31.3600 1501.0000 1.0000
31.3700 1466.0000 1.0000
31.3800 1465.0000 1.0000
31.3900 1463.0000 1.0000
31.4000 1484.0000 1.0000
31.4100 1520.0000 1.0000
31.4200 1518.0000 1.0000
31.4300 1426.0000 1.0000
31.4400 1464.0000 1.0000
31.4500 1380.0000 1.0000
31.4600 1456.0000 1.0000
31.4700 1498.0000 1.0000
31.4800 1430.0000 1.0000
31.4900 1379.0000 1.0000
31.5000 1423.0000 1.0000
31.5100 1488.0000 1.0000
31.5200 1496.0000 1.0000
31.5300 1506.0000 1.0000
31.5400 1462.0000 1.0000
31.5500 1460.0000 1.0000
31.5600 1436.0000 1.0000
31.5700 1451.0000 1.0000
31.5800 1455.0000 1.0000
31.5900 1441.0000 1.0000
31.6000 1498.0000 1.0000
31.6100 1458.0000 1.0000
31.6200 1480.0000 1.0000
31.6300 1460.0000 1.0000
31.6400 1490.0000 1.0000
31.6500 1456.0000 1.0000
31.6600 1448.0000 1.0000
31.6700 1406.0000 1.0000
31.6800 1447.0000 1.0000
31.6900 1441.0000 1.0000
31.7000 1442.0000 1.0000
31.7100 1451.0000 1.0000
31.7200 1526.0000 1.0000
31.7300 1441.0000 1.0000
31.7400 1508.0000 1.0000
31.7500 1462.0000 1.0000
31.7600 1434.0000 1.0000
31.7700 1466.0000 1.0000
31.7800 1453.0000 1.0000
31.7900 1440.0000 1.0000
31.8000 1469.0000 1.0000
31.8100 1398.0000 1.0000
31.8200 1462.0000 1.0000
31.8300 1433.0000 1.0000
31.8400 1433.0000 1.0000
31.8500 1422.0000 1.0000
31.8600 1523.0000 1.0000
31.8700 1483.0000 1.0000
31.8800 1385.0000 1.0000
31.8900 1432.0000 1.0000
31.9000 1380.0000 1.0000
31.9100 1478.0000 1.0000
31.9200 1487.0000 1.0000
31.9300 1435.0000 1.0000
31.9400 1438.0000 1.0000
31.9500 1438.0000 1.0000
31.9600 1471.0000 1.0000
31.9700 1503.0000 1.0000
31.9800 1544.0000 1.0000
31.9900 1525.0000 1.0000
32.0000 1501.0000 1.0000
32.0100 1377.0000 1.0000
32.0200 1398.0000 1.0000
32.0300 1444.0000 1.0000
32.0400 1546.0000 1.0000
32.0500 1554.0000 1.0000
32.0600 1558.0000 1.0000
32.0700 1499.0000 1.0000
32.0800 1507.0000 1.0000
32.0900 1506.0000 1.0000
32.1000 1444.0000 1.0000
32.1100 1432.0000 1.0000
32.1200 1418.0000 1.0000
32.1300 1429.0000 1.0000
32.1400 1431.0000 1.0000
32.1500 1406.0000 1.0000
32.1600 1407.0000 1.0000
32.1700 1415.0000 1.0000
32.1800 1421.0000 1.0000
32.1900 1415.0000 1.0000
32.2000 1427.0000 1.0000
32.2100 1404.0000 1.0000
32.2200 1442.0000 1.0000
32.2300 1427.0000 1.0000
32.2400 1431.0000 1.0000
32.2500 1460.0000 1.0000
32.2600 1394.0000 1.0000
32.2700 1392.0000 1.0000
32.2800 1390.0000 1.0000
32.2900 1463.0000 1.0000
32.3000 1401.0000 1.0000
32.3100 1420.0000 1.0000
32.3200 1363.0000 1.0000
32.3300 1425.0000 1.0000
32.3400 1338.0000 1.0000
32.3500 1416.0000 1.0000
32.3600 1391.0000 1.0000
32.3700 1439.0000 1.0000
32.3800 1370.0000 1.0000
32.3900 1404.0000 1.0000
32.4000 1390.0000 1.0000
32.4100 1398.0000 1.0000
32.4200 1330.0000 1.0000
32.4300 1387.0000 1.0000
32.4400 1406.0000 1.0000
32.4500 1430.0000 1.0000
32.4600 1321.0000 1.0000
32.4700 1323.0000 1.0000
32.4800 1398.0000 1.0000
32.4900 1376.0000 1.0000
32.5000 1388.0000 1.0000
32.5100 1404.0000 1.0000
32.5200 1357.0000 1.0000
32.5300 1332.0000 1.0000
32.5400 1417.0000 1.0000
32.5500 1381.0000 1.0000
32.5600 1432.0000 1.0000
32.5700 1409.0000 1.0000
32.5800 1443.0000 1.0000
32.5900 1372.0000 1.0000
32.6000 1393.0000 1.0000
32.6100 1390.0000 1.0000
32.6200 1459.0000 1.0000
32.6300 1418.0000 1.0000
32.6400 1402.0000 1.0000
32.6500 1353.0000 1.0000
32.6600 1395.0000 1.0000
32.6700 1362.0000 1.0000
32.6800 1368.0000 1.0000
32.6900 1354.0000 1.0000
32.7000 1361.0000 1.0000
32.7100 1351.0000 1.0000
32.7200 1343.0000 1.0000
32.7300 1331.0000 1.0000
32.7400 1383.0000 1.0000
32.7500 1328.0000 1.0000
32.7600 1438.0000 1.0000
32.7700 1411.0000 1.0000
32.7800 1294.0000 1.0000
32.7900 1413.0000 1.0000
32.8000 1320.0000 1.0000
32.8100 1302.0000 1.0000
32.8200 1352.0000 1.0000
32.8300 1289.0000 1.0000
32.8400 1354.0000 1.0000
32.8500 1352.0000 1.0000
32.8600 1348.0000 1.0000
32.8700 1346.0000 1.0000
32.8800 1410.0000 1.0000
32.8900 1411.0000 1.0000
32.9000 1396.0000 1.0000
32.9100 1392.0000 1.0000
32.9200 1394.0000 1.0000
32.9300 1374.0000 1.0000
32.9400 1404.0000 1.0000
32.9500 1370.0000 1.0000
32.9600 1427.0000 1.0000
32.9700 1321.0000 1.0000
32.9800 1327.0000 1.0000
32.9900 1339.0000 1.0000
33.0000 1373.0000 1.0000
33.0100 1410.0000 1.0000
33.0200 1340.0000 1.0000
33.0300 1322.0000 1.0000
33.0400 1321.0000 1.0000
33.0500 1379.0000 1.0000
33.0600 1332.0000 1.0000
33.0700 1362.0000 1.0000
33.0800 1340.0000 1.0000
33.0900 1372.0000 1.0000
33.1000 1337.0000 1.0000
33.1100 1366.0000 1.0000
33.1200 1352.0000 1.0000
33.1300 1381.0000 1.0000
33.1400 1323.0000 1.0000
33.1500 1367.0000 1.0000
33.1600 1369.0000 1.0000
33.1700 1354.0000 1.0000
33.1800 1374.0000 1.0000
33.1900 1340.0000 1.0000
33.2000 1304.0000 1.0000
33.2100 1289.0000 1.0000
33.2200 1350.0000 1.0000
33.2300 1327.0000 1.0000
33.2400 1339.0000 1.0000
33.2500 1349.0000 1.0000
33.2600 1305.0000 1.0000
33.2700 1332.0000 1.0000
33.2800 1326.0000 1.0000
33.2900 1309.0000 1.0000
33.3000 1295.0000 1.0000
33.3100 1350.0000 1.0000
33.3200 1389.0000 1.0000
33.3300 1237.0000 1.0000
33.3400 1269.0000 1.0000
33.3500 1328.0000 1.0000
33.3600 1355.0000 1.0000
33.3700 1397.0000 1.0000
33.3800 1308.0000 1.0000
33.3900 1268.0000 1.0000
33.4000 1336.0000 1.0000
33.4100 1350.0000 1.0000
33.4200 1310.0000 1.0000
33.4300 1373.0000 1.0000
33.4400 1309.0000 1.0000
33.4500 1358.0000 1.0000
33.4600 1349.0000 1.0000
33.4700 1404.0000 1.0000
33.4800 1325.0000 1.0000
33.4900 1356.0000 1.0000
33.5000 1359.0000 1.0000
33.5100 1350.0000 1.0000
33.5200 1376.0000 1.0000
33.5300 1398.0000 1.0000
33.5400 1348.0000 1.0000
33.5500 1314.0000 1.0000
33.5600 1349.0000 1.0000
33.5700 1339.0000 1.0000
33.5800 1346.0000 1.0000
33.5900 1322.0000 1.0000
33.6000 1344.0000 1.0000
33.6100 1348.0000 1.0000
33.6200 1265.0000 1.0000
33.6300 1304.0000 1.0000
33.6400 1332.0000 1.0000
33.6500 1301.0000 1.0000
33.6600 1328.0000 1.0000
33.6700 1377.0000 1.0000
33.6800 1375.0000 1.0000
33.6900 1362.0000 1.0000
33.7000 1401.0000 1.0000
33.7100 1329.0000 1.0000
33.7200 1322.0000 1.0000
33.7300 1386.0000 1.0000
33.7400 1364.0000 1.0000
33.7500 1387.0000 1.0000
33.7600 1376.0000 1.0000
33.7700 1385.0000 1.0000
33.7800 1374.0000 1.0000
33.7900 1382.0000 1.0000
33.8000 1461.0000 1.0000
33.8100 1396.0000 1.0000
33.8200 1378.0000 1.0000
33.8300 1357.0000 1.0000
33.8400 1483.0000 1.0000
33.8500 1512.0000 1.0000
33.8600 1507.0000 1.0000
33.8700 1550.0000 1.0000
33.8800 1505.0000 1.0000
33.8900 1579.0000 1.0000
33.9000 1569.0000 1.0000
33.9100 1572.0000 1.0000
33.9200 1572.0000 1.0000
33.9300 1534.0000 1.0000
33.9400 1589.0000 1.0000
33.9500 1556.0000 1.0000
33.9600 1503.0000 1.0000
33.9700 1563.0000 1.0000
33.9800 1562.0000 1.0000
33.9900 1596.0000 1.0000
34.0000 1585.0000 1.0000
34.0100 1546.0000 1.0000
34.0200 1571.0000 1.0000
34.0300 1565.0000 1.0000
34.0400 1527.0000 1.0000
34.0500 1512.0000 1.0000
34.0600 1517.0000 1.0000
34.0700 1526.0000 1.0000
34.0800 1507.0000 1.0000
34.0900 1486.0000 1.0000
34.1000 1489.0000 1.0000
34.1100 1475.0000 1.0000
34.1200 1504.0000 1.0000
34.1300 1522.0000 1.0000
34.1400 1507.0000 1.0000
34.1500 1564.0000 1.0000
34.1600 1528.0000 1.0000
34.1700 1540.0000 1.0000
34.1800 1537.0000 1.0000
34.1900 1545.0000 1.0000
34.2000 1557.0000 1.0000
34.2100 1552.0000 1.0000
34.2200 1669.0000 1.0000
34.2300 1607.0000 1.0000
34.2400 1685.0000 1.0000
34.2500 1680.0000 1.0000
34.2600 1708.0000 1.0000
34.2700 1711.0000 1.0000
34.2800 1749.0000 1.0000
34.2900 1790.0000 1.0000
34.3000 1719.0000 1.0000
34.3100 1868.0000 1.0000
34.3200 1884.0000 1.0000
34.3300 1922.0000 1.0000
34.3400 2026.0000 1.0000
34.3500 2172.0000 1.0000
34.3600 2234.0000 1.0000
34.3700 2270.0000 1.0000
34.3800 2414.0000 1.0000
34.3900 2462.0000 1.0000
34.4000 2624.0000 1.0000
34.4100 2807.0000 1.0000
34.4200 2842.0000 1.0000
34.4300 2993.0000 1.0000
34.4400 3076.0000 1.0000
34.4500 3126.0000 1.0000
34.4600 3252.0000 1.0000
34.4700 3437.0000 1.0000
34.4800 3514.0000 1.0000
34.4900 3505.0000 1.0000
34.5000 3412.0000 1.0000
34.5100 3413.0000 1.0000
34.5200 3359.0000 1.0000
34.5300 3371.0000 1.0000
34.5400 3231.0000 1.0000
34.5500 3208.0000 1.0000
34.5600 3157.0000 1.0000
34.5700 3023.0000 1.0000
34.5800 2911.0000 1.0000
34.5900 2788.0000 1.0000
34.6000 2658.0000 1.0000
34.6100 2611.0000 1.0000
34.6200 2440.0000 1.0000
34.6300 2321.0000 1.0000
34.6400 2287.0000 1.0000
34.6500 2220.0000 1.0000
34.6600 2153.0000 1.0000
34.6700 2068.0000 1.0000
34.6800 1897.0000 1.0000
34.6900 1914.0000 1.0000
34.7000 1929.0000 1.0000
34.7100 1810.0000 1.0000
34.7200 1797.0000 1.0000
34.7300 1717.0000 1.0000
34.7400 1722.0000 1.0000
34.7500 1695.0000 1.0000
34.7600 1657.0000 1.0000
34.7700 1601.0000 1.0000
34.7800 1585.0000 1.0000
34.7900 1557.0000 1.0000
34.8000 1536.0000 1.0000
34.8100 1540.0000 1.0000
34.8200 1479.0000 1.0000
34.8300 1471.0000 1.0000
34.8400 1490.0000 1.0000
34.8500 1461.0000 1.0000
34.8600 1458.0000 1.0000
34.8700 1430.0000 1.0000
34.8800 1375.0000 1.0000
34.8900 1429.0000 1.0000
34.9000 1416.0000 1.0000
34.9100 1417.0000 1.0000
34.9200 1388.0000 1.0000
34.9300 1337.0000 1.0000
34.9400 1370.0000 1.0000
34.9500 1366.0000 1.0000
34.9600 1348.0000 1.0000
34.9700 1341.0000 1.0000
34.9800 1324.0000 1.0000
34.9900 1322.0000 1.0000
35.0000 1260.0000 1.0000
35.0100 1273.0000 1.0000
35.0200 1268.0000 1.0000
35.0300 1306.0000 1.0000
35.0400 1325.0000 1.0000
35.0500 1267.0000 1.0000
35.0600 1214.0000 1.0000
35.0700 1260.0000 1.0000
35.0800 1289.0000 1.0000
35.0900 1276.0000 1.0000
35.1000 1212.0000 1.0000
35.1100 1250.0000 1.0000
35.1200 1254.0000 1.0000
35.1300 1205.0000 1.0000
35.1400 1249.0000 1.0000
35.1500 1251.0000 1.0000
35.1600 1212.0000 1.0000
35.1700 1228.0000 1.0000
35.1800 1157.0000 1.0000
35.1900 1216.0000 1.0000
35.2000 1273.0000 1.0000
35.2100 1241.0000 1.0000
35.2200 1242.0000 1.0000
35.2300 1267.0000 1.0000
35.2400 1230.0000 1.0000
35.2500 1239.0000 1.0000
35.2600 1237.0000 1.0000
35.2700 1240.0000 1.0000
35.2800 1193.0000 1.0000
35.2900 1171.0000 1.0000
35.3000 1211.0000 1.0000
35.3100 1256.0000 1.0000
35.3200 1230.0000 1.0000
35.3300 1201.0000 1.0000
35.3400 1160.0000 1.0000
35.3500 1163.0000 1.0000
35.3600 1204.0000 1.0000
35.3700 1157.0000 1.0000
35.3800 1222.0000 1.0000
35.3900 1231.0000 1.0000
35.4000 1215.0000 1.0000
35.4100 1210.0000 1.0000
35.4200 1172.0000 1.0000
35.4300 1185.0000 1.0000
35.4400 1188.0000 1.0000
35.4500 1192.0000 1.0000
35.4600 1163.0000 1.0000
35.4700 1162.0000 1.0000
35.4800 1187.0000 1.0000
35.4900 1202.0000 1.0000
35.5000 1206.0000 1.0000
35.5100 1153.0000 1.0000
35.5200 1180.0000 1.0000
35.5300 1241.0000 1.0000
35.5400 1178.0000 1.0000
35.5500 1180.0000 1.0000
35.5600 1148.0000 1.0000
35.5700 1146.0000 1.0000
35.5800 1186.0000 1.0000
35.5900 1204.0000 1.0000
35.6000 1161.0000 1.0000
35.6100 1100.0000 1.0000
35.6200 1199.0000 1.0000
35.6300 1140.0000 1.0000
35.6400 1158.0000 1.0000
35.6500 1124.0000 1.0000
35.6600 1128.0000 1.0000
35.6700 1115.0000 1.0000
35.6800 1136.0000 1.0000
35.6900 1115.0000 1.0000
35.7000 1200.0000 1.0000
35.7100 1169.0000 1.0000
35.7200 1127.0000 1.0000
35.7300 1139.0000 1.0000
35.7400 1099.0000 1.0000
35.7500 1155.0000 1.0000
35.7600 1154.0000 1.0000
35.7700 1113.0000 1.0000
35.7800 1116.0000 1.0000
35.7900 1162.0000 1.0000
35.8000 1199.0000 1.0000
35.8100 1177.0000 1.0000
35.8200 1197.0000 1.0000
35.8300 1115.0000 1.0000
35.8400 1148.0000 1.0000
35.8500 1105.0000 1.0000
35.8600 1082.0000 1.0000
35.8700 1135.0000 1.0000
35.8800 1099.0000 1.0000
35.8900 1154.0000 1.0000
35.9000 1127.0000 1.0000
35.9100 1178.0000 1.0000
35.9200 1139.0000 1.0000
35.9300 1111.0000 1.0000
35.9400 1121.0000 1.0000
35.9500 1123.0000 1.0000
35.9600 1097.0000 1.0000
35.9700 1094.0000 1.0000
35.9800 1119.0000 1.0000
35.9900 1138.0000 1.0000
36.0000 1131.0000 1.0000
36.0100 1115.0000 1.0000
36.0200 1100.0000 1.0000
36.0300 1150.0000 1.0000
36.0400 1122.0000 1.0000
36.0500 1161.0000 1.0000
36.0600 1123.0000 1.0000
36.0700 1118.0000 1.0000
36.0800 1135.0000 1.0000
36.0900 1123.0000 1.0000
36.1000 1092.0000 1.0000
36.1100 1157.0000 1.0000
36.1200 1199.0000 1.0000
36.1300 1154.0000 1.0000
36.1400 1238.0000 1.0000
36.1500 1206.0000 1.0000
36.1600 1251.0000 1.0000
36.1700 1219.0000 1.0000
36.1800 1248.0000 1.0000
36.1900 1263.0000 1.0000
36.2000 1183.0000 1.0000
36.2100 1285.0000 1.0000
36.2200 1281.0000 1.0000
36.2300 1274.0000 1.0000
36.2400 1231.0000 1.0000
36.2500 1286.0000 1.0000
36.2600 1367.0000 1.0000
36.2700 1353.0000 1.0000
36.2800 1410.0000 1.0000
36.2900 1380.0000 1.0000
36.3000 1433.0000 1.0000
36.3100 1511.0000 1.0000
36.3200 1603.0000 1.0000
36.3300 1690.0000 1.0000
36.3400 1746.0000 1.0000
36.3500 1750.0000 1.0000
36.3600 1884.0000 1.0000
36.3700 1927.0000 1.0000
36.3800 1997.0000 1.0000
36.3900 2075.0000 1.0000
36.4000 2132.0000 1.0000
36.4100 2176.0000 1.0000
36.4200 2142.0000 1.0000
36.4300 2057.0000 1.0000
36.4400 1950.0000 1.0000
36.4500 2025.0000 1.0000
36.4600 1950.0000 1.0000
36.4700 1873.0000 1.0000
36.4800 1823.0000 1.0000
36.4900 1814.0000 1.0000
36.5000 1720.0000 1.0000
36.5100 1622.0000 1.0000
36.5200 1582.0000 1.0000
36.5300 1525.0000 1.0000
36.5400 1420.0000 1.0000
36.5500 1406.0000 1.0000
36.5600 1363.0000 1.0000
36.5700 1289.0000 1.0000
36.5800 1299.0000 1.0000
36.5900 1226.0000 1.0000
36.6000 1184.0000 1.0000
36.6100 1242.0000 1.0000
36.6200 1155.0000 1.0000
36.6300 1156.0000 1.0000
36.6400 1175.0000 1.0000
36.6500 1130.0000 1.0000
36.6600 1165.0000 1.0000
36.6700 1155.0000 1.0000
36.6800 1127.0000 1.0000
36.6900 1101.0000 1.0000
36.7000 1133.0000 1.0000
36.7100 1092.0000 1.0000
36.7200 1126.0000 1.0000
36.7300 1096.0000 1.0000
36.7400 1120.0000 1.0000
36.7500 1019.0000 1.0000
36.7600 1045.0000 1.0000
36.7700 1105.0000 1.0000
36.7800 1088.0000 1.0000
36.7900 1108.0000 1.0000
36.8000 1070.0000 1.0000
36.8100 1060.0000 1.0000
36.8200 1038.0000 1.0000
36.8300 1092.0000 1.0000
36.8400 1109.0000 1.0000
36.8500 1080.0000 1.0000
36.8600 1086.0000 1.0000
36.8700 1103.0000 1.0000
36.8800 1093.0000 1.0000
36.8900 1064.0000 1.0000
36.9000 1052.0000 1.0000
36.9100 1031.0000 1.0000
36.9200 1070.0000 1.0000
36.9300 1048.0000 1.0000
36.9400 1064.0000 1.0000
36.9500 1014.0000 1.0000
36.9600 1029.0000 1.0000
36.9700 1108.0000 1.0000
36.9800 1061.0000 1.0000
36.9900 1046.0000 1.0000
37.0000 1099.0000 1.0000
37.0100 1083.0000 1.0000
37.0200 1037.0000 1.0000
37.0300 1028.0000 1.0000
37.0400 1036.0000 1.0000
37.0500 1070.0000 1.0000
37.0600 1066.0000 1.0000
37.0700 1105.0000 1.0000
37.0800 1097.0000 1.0000
37.0900 1085.0000 1.0000
37.1000 1075.0000 1.0000
37.1100 1047.0000 1.0000
37.1200 1051.0000 1.0000
37.1300 1071.0000 1.0000
37.1400 1047.0000 1.0000
37.1500 1020.0000 1.0000
37.1600 1065.0000 1.0000
37.1700 1039.0000 1.0000
37.1800 1073.0000 1.0000
37.1900 1077.0000 1.0000
37.2000 1077.0000 1.0000
37.2100 1056.0000 1.0000
37.2200 1060.0000 1.0000
37.2300 1032.0000 1.0000
37.2400 1112.0000 1.0000
37.2500 1037.0000 1.0000
37.2600 1058.0000 1.0000
37.2700 1049.0000 1.0000
37.2800 1063.0000 1.0000
37.2900 1022.0000 1.0000
37.3000 1051.0000 1.0000
37.3100 1070.0000 1.0000
37.3200 1069.0000 1.0000
37.3300 1029.0000 1.0000
37.3400 987.0000 1.0000
37.3500 1057.0000 1.0000
37.3600 1058.0000 1.0000
37.3700 1044.0000 1.0000
37.3800 968.0000 1.0000
37.3900 1090.0000 1.0000
37.4000 1089.0000 1.0000
37.4100 1048.0000 1.0000
37.4200 1044.0000 1.0000
37.4300 1027.0000 1.0000
37.4400 1024.0000 1.0000
37.4500 1056.0000 1.0000
37.4600 1032.0000 1.0000
37.4700 1049.0000 1.0000
37.4800 1034.0000 1.0000
37.4900 1054.0000 1.0000
37.5000 1061.0000 1.0000
37.5100 1048.0000 1.0000
37.5200 1098.0000 1.0000
37.5300 1030.0000 1.0000
37.5400 1003.0000 1.0000
37.5500 1058.0000 1.0000
37.5600 1014.0000 1.0000
37.5700 1053.0000 1.0000
37.5800 987.0000 1.0000
37.5900 1042.0000 1.0000
37.6000 1061.0000 1.0000
37.6100 1032.0000 1.0000
37.6200 1052.0000 1.0000
37.6300 1084.0000 1.0000
37.6400 1070.0000 1.0000
37.6500 1047.0000 1.0000
37.6600 1041.0000 1.0000
37.6700 1017.0000 1.0000
37.6800 991.0000 1.0000
37.6900 1050.0000 1.0000
37.7000 1028.0000 1.0000
37.7100 1056.0000 1.0000
37.7200 1063.0000 1.0000
37.7300 1033.0000 1.0000
37.7400 1051.0000 1.0000
37.7500 1073.0000 1.0000
37.7600 1047.0000 1.0000
37.7700 1014.0000 1.0000
37.7800 1067.0000 1.0000
37.7900 1098.0000 1.0000
37.8000 1065.0000 1.0000
37.8100 1013.0000 1.0000
37.8200 1069.0000 1.0000
37.8300 1074.0000 1.0000
37.8400 1119.0000 1.0000
37.8500 1110.0000 1.0000
37.8600 1076.0000 1.0000
37.8700 1090.0000 1.0000
37.8800 1046.0000 1.0000
37.8900 1039.0000 1.0000
37.9000 1042.0000 1.0000
37.9100 1092.0000 1.0000
37.9200 1091.0000 1.0000
37.9300 1142.0000 1.0000
37.9400 1105.0000 1.0000
37.9500 1066.0000 1.0000
37.9600 1079.0000 1.0000
37.9700 1077.0000 1.0000
37.9800 1108.0000 1.0000
37.9900 1126.0000 1.0000
38.0000 1151.0000 1.0000
38.0100 1085.0000 1.0000
38.0200 1142.0000 1.0000
38.0300 1123.0000 1.0000
38.0400 1145.0000 1.0000
38.0500 1127.0000 1.0000
38.0600 1191.0000 1.0000
38.0700 1194.0000 1.0000
38.0800 1178.0000 1.0000
38.0900 1138.0000 1.0000
38.1000 1180.0000 1.0000
38.1100 1138.0000 1.0000
38.1200 1224.0000 1.0000
38.1300 1228.0000 1.0000
38.1400 1251.0000 1.0000
38.1500 1291.0000 1.0000
38.1600 1304.0000 1.0000
38.1700 1336.0000 1.0000
38.1800 1343.0000 1.0000
38.1900 1394.0000 1.0000
38.2000 1382.0000 1.0000
38.2100 1488.0000 1.0000
38.2200 1469.0000 1.0000
38.2300 1508.0000 1.0000
38.2400 1560.0000 1.0000
38.2500 1620.0000 1.0000
38.2600 1692.0000 1.0000
38.2700 1753.0000 1.0000
38.2800 1742.0000 1.0000
38.2900 1810.0000 1.0000
38.3000 1911.0000 1.0000
38.3100 2087.0000 1.0000
38.3200 2110.0000 1.0000
38.3300 2131.0000 1.0000
38.3400 2339.0000 1.0000
38.3500 2437.0000 1.0000
38.3600 2609.0000 1.0000
38.3700 2796.0000 1.0000
38.3800 2911.0000 1.0000
38.3900 3152.0000 1.0000
38.4000 3316.0000 1.0000
38.4100 3472.0000 1.0000
38.4200 3822.0000 1.0000
38.4300 4065.0000 1.0000
38.4400 4338.0000 1.0000
38.4500 4562.0000 1.0000
38.4600 4962.0000 1.0000
38.4700 5084.0000 1.0000
38.4800 5504.0000 1.0000
38.4900 5702.0000 1.0000
38.5000 5942.0000 1.0000
38.5100 6049.0000 1.0000
38.5200 6177.0000 1.0000
38.5300 6115.0000 1.0000
38.5400 6251.0000 1.0000
38.5500 6278.0000 1.0000
38.5600 6121.0000 1.0000
38.5700 6155.0000 1.0000
38.5800 6018.0000 1.0000
38.5900 5839.0000 1.0000
38.6000 5605.0000 1.0000
38.6100 5347.0000 1.0000
38.6200 5134.0000 1.0000
38.6300 4947.0000 1.0000
38.6400 4715.0000 1.0000
38.6500 4400.0000 1.0000
38.6600 4147.0000 1.0000
38.6700 3929.0000 1.0000
38.6800 3730.0000 1.0000
38.6900 3456.0000 1.0000
38.7000 3290.0000 1.0000
38.7100 3042.0000 1.0000
38.7200 2890.0000 1.0000
38.7300 2626.0000 1.0000
38.7400 2508.0000 1.0000
38.7500 2326.0000 1.0000
38.7600 2185.0000 1.0000
38.7700 2019.0000 1.0000
38.7800 1980.0000 1.0000
38.7900 2002.0000 1.0000
38.8000 1861.0000 1.0000
38.8100 1764.0000 1.0000
38.8200 1623.0000 1.0000
38.8300 1605.0000 1.0000
38.8400 1483.0000 1.0000
38.8500 1517.0000 1.0000
38.8600 1460.0000 1.0000
38.8700 1320.0000 1.0000
38.8800 1304.0000 1.0000
38.8900 1263.0000 1.0000
38.9000 1242.0000 1.0000
38.9100 1269.0000 1.0000
38.9200 1230.0000 1.0000
38.9300 1187.0000 1.0000
38.9400 1119.0000 1.0000
38.9500 1211.0000 1.0000
38.9600 1197.0000 1.0000
38.9700 1165.0000 1.0000
38.9800 1126.0000 1.0000
38.9900 1122.0000 1.0000
39.0000 1096.0000 1.0000
39.0100 1090.0000 1.0000
39.0200 1099.0000 1.0000
39.0300 1139.0000 1.0000
39.0400 1063.0000 1.0000
39.0500 1093.0000 1.0000
39.0600 1075.0000 1.0000
39.0700 1095.0000 1.0000
39.0800 1066.0000 1.0000
39.0900 1009.0000 1.0000
39.1000 1043.0000 1.0000
39.1100 1049.0000 1.0000
39.1200 1039.0000 1.0000
39.1300 1049.0000 1.0000
39.1400 1006.0000 1.0000
39.1500 1001.0000 1.0000
39.1600 985.0000 1.0000
39.1700 1006.0000 1.0000
39.1800 1045.0000 1.0000
39.1900 992.0000 1.0000
39.2000 1026.0000 1.0000
39.2100 987.0000 1.0000
39.2200 981.0000 1.0000
39.2300 929.0000 1.0000
39.2400 927.0000 1.0000
39.2500 960.0000 1.0000
39.2600 980.0000 1.0000
39.2700 950.0000 1.0000
39.2800 973.0000 1.0000
39.2900 1027.0000 1.0000
39.3000 1007.0000 1.0000
39.3100 972.0000 1.0000
39.3200 953.0000 1.0000
39.3300 975.0000 1.0000
39.3400 938.0000 1.0000
39.3500 969.0000 1.0000
39.3600 923.0000 1.0000
39.3700 953.0000 1.0000
39.3800 982.0000 1.0000
39.3900 965.0000 1.0000
39.4000 1011.0000 1.0000
39.4100 977.0000 1.0000
39.4200 1004.0000 1.0000
39.4300 1017.0000 1.0000
39.4400 979.0000 1.0000
39.4500 967.0000 1.0000
39.4600 1011.0000 1.0000
39.4700 1015.0000 1.0000
39.4800 992.0000 1.0000
39.4900 1000.0000 1.0000
39.5000 982.0000 1.0000
39.5100 977.0000 1.0000
39.5200 963.0000 1.0000
39.5300 1016.0000 1.0000
39.5400 986.0000 1.0000
39.5500 976.0000 1.0000
39.5600 1046.0000 1.0000
39.5700 1000.0000 1.0000
39.5800 999.0000 1.0000
39.5900 973.0000 1.0000
39.6000 926.0000 1.0000
39.6100 999.0000 1.0000
39.6200 1058.0000 1.0000
39.6300 984.0000 1.0000
39.6400 985.0000 1.0000
39.6500 995.0000 1.0000
39.6600 1044.0000 1.0000
39.6700 1008.0000 1.0000
39.6800 991.0000 1.0000
39.6900 1003.0000 1.0000
39.7000 1000.0000 1.0000
39.7100 1032.0000 1.0000
39.7200 983.0000 1.0000
39.7300 940.0000 1.0000
39.7400 949.0000 1.0000
39.7500 948.0000 1.0000
39.7600 945.0000 1.0000
39.7700 987.0000 1.0000
39.7800 977.0000 1.0000
39.7900 923.0000 1.0000
39.8000 937.0000 1.0000
39.8100 972.0000 1.0000
39.8200 925.0000 1.0000
39.8300 887.0000 1.0000
39.8400 897.0000 1.0000
39.8500 920.0000 1.0000
39.8600 923.0000 1.0000
39.8700 908.0000 1.0000
39.8800 934.0000 1.0000
39.8900 948.0000 1.0000
39.9000 879.0000 1.0000
39.9100 855.0000 1.0000
39.9200 865.0000 1.0000
39.9300 955.0000 1.0000
39.9400 925.0000 1.0000
39.9500 944.0000 1.0000
39.9600 881.0000 1.0000
39.9700 876.0000 1.0000
39.9800 868.0000 1.0000
39.9900 890.0000 1.0000
40.0000 893.0000 1.0000
40.0100 947.0000 1.0000
40.0200 919.0000 1.0000
40.0300 928.0000 1.0000
40.0400 924.0000 1.0000
40.0500 958.0000 1.0000
40.0600 924.0000 1.0000
40.0700 937.0000 1.0000
40.0800 925.0000 1.0000
40.0900 888.0000 1.0000
40.1000 860.0000 1.0000
40.1100 848.0000 1.0000
40.1200 892.0000 1.0000
40.1300 908.0000 1.0000
40.1400 907.0000 1.0000
40.1500 821.0000 1.0000
40.1600 861.0000 1.0000
40.1700 890.0000 1.0000
40.1800 935.0000 1.0000
40.1900 913.0000 1.0000
40.2000 870.0000 1.0000
40.2100 918.0000 1.0000
40.2200 917.0000 1.0000
40.2300 880.0000 1.0000
40.2400 901.0000 1.0000
40.2500 912.0000 1.0000
40.2600 932.0000 1.0000
40.2700 885.0000 1.0000
40.2800 887.0000 1.0000
40.2900 883.0000 1.0000
40.3000 881.0000 1.0000
40.3100 915.0000 1.0000
40.3200 863.0000 1.0000
40.3300 874.0000 1.0000
40.3400 944.0000 1.0000
40.3500 900.0000 1.0000
40.3600 901.0000 1.0000
40.3700 935.0000 1.0000
40.3800 918.0000 1.0000
40.3900 874.0000 1.0000
40.4000 888.0000 1.0000
40.4100 892.0000 1.0000
40.4200 886.0000 1.0000
40.4300 878.0000 1.0000
40.4400 868.0000 1.0000
40.4500 812.0000 1.0000
40.4600 846.0000 1.0000
40.4700 906.0000 1.0000
40.4800 904.0000 1.0000
40.4900 887.0000 1.0000
40.5000 863.0000 1.0000
40.5100 858.0000 1.0000
40.5200 889.0000 1.0000
40.5300 899.0000 1.0000
40.5400 866.0000 1.0000
40.5500 878.0000 1.0000
40.5600 859.0000 1.0000
40.5700 874.0000 1.0000
40.5800 894.0000 1.0000
40.5900 855.0000 1.0000
40.6000 835.0000 1.0000
40.6100 878.0000 1.0000
40.6200 826.0000 1.0000
40.6300 883.0000 1.0000
40.6400 914.0000 1.0000
40.6500 849.0000 1.0000
40.6600 827.0000 1.0000
40.6700 831.0000 1.0000
40.6800 826.0000 1.0000
40.6900 880.0000 1.0000
40.7000 869.0000 1.0000
40.7100 869.0000 1.0000
40.7200 902.0000 1.0000
40.7300 902.0000 1.0000
40.7400 914.0000 1.0000
40.7500 893.0000 1.0000
40.7600 885.0000 1.0000
40.7700 874.0000 1.0000
40.7800 846.0000 1.0000
40.7900 802.0000 1.0000
40.8000 822.0000 1.0000
40.8100 792.0000 1.0000
40.8200 855.0000 1.0000
40.8300 815.0000 1.0000
40.8400 853.0000 1.0000
40.8500 874.0000 1.0000
40.8600 844.0000 1.0000
40.8700 867.0000 1.0000
40.8800 842.0000 1.0000
40.8900 929.0000 1.0000
40.9000 823.0000 1.0000
40.9100 801.0000 1.0000
40.9200 849.0000 1.0000
40.9300 836.0000 1.0000
40.9400 857.0000 1.0000
40.9500 880.0000 1.0000
40.9600 860.0000 1.0000
40.9700 829.0000 1.0000
40.9800 861.0000 1.0000
40.9900 840.0000 1.0000
41.0000 862.0000 1.0000
41.0100 855.0000 1.0000
41.0200 858.0000 1.0000
41.0300 830.0000 1.0000
41.0400 855.0000 1.0000
41.0500 917.0000 1.0000
41.0600 891.0000 1.0000
41.0700 884.0000 1.0000
41.0800 849.0000 1.0000
41.0900 852.0000 1.0000
41.1000 823.0000 1.0000
41.1100 815.0000 1.0000
41.1200 864.0000 1.0000
41.1300 873.0000 1.0000
41.1400 831.0000 1.0000
41.1500 867.0000 1.0000
41.1600 836.0000 1.0000
41.1700 885.0000 1.0000
41.1800 888.0000 1.0000
41.1900 835.0000 1.0000
41.2000 858.0000 1.0000
41.2100 849.0000 1.0000
41.2200 862.0000 1.0000
41.2300 855.0000 1.0000
41.2400 858.0000 1.0000
41.2500 872.0000 1.0000
41.2600 844.0000 1.0000
41.2700 902.0000 1.0000
41.2800 871.0000 1.0000
41.2900 837.0000 1.0000
41.3000 835.0000 1.0000
41.3100 879.0000 1.0000
41.3200 843.0000 1.0000
41.3300 848.0000 1.0000
41.3400 874.0000 1.0000
41.3500 826.0000 1.0000
41.3600 842.0000 1.0000
41.3700 850.0000 1.0000
41.3800 913.0000 1.0000
41.3900 880.0000 1.0000
41.4000 836.0000 1.0000
41.4100 852.0000 1.0000
41.4200 843.0000 1.0000
41.4300 862.0000 1.0000
41.4400 806.0000 1.0000
41.4500 908.0000 1.0000
41.4600 851.0000 1.0000
41.4700 848.0000 1.0000
41.4800 817.0000 1.0000
41.4900 789.0000 1.0000
41.5000 827.0000 1.0000
41.5100 850.0000 1.0000
41.5200 900.0000 1.0000
41.5300 885.0000 1.0000
41.5400 896.0000 1.0000
41.5500 905.0000 1.0000
41.5600 857.0000 1.0000
41.5700 848.0000 1.0000
41.5800 943.0000 1.0000
41.5900 947.0000 1.0000
41.6000 843.0000 1.0000
41.6100 884.0000 1.0000
41.6200 883.0000 1.0000
41.6300 895.0000 1.0000
41.6400 933.0000 1.0000
41.6500 876.0000 1.0000
41.6600 865.0000 1.0000
41.6700 898.0000 1.0000
41.6800 882.0000 1.0000
41.6900 843.0000 1.0000
41.7000 866.0000 1.0000
41.7100 856.0000 1.0000
41.7200 850.0000 1.0000
41.7300 872.0000 1.0000
41.7400 860.0000 1.0000
41.7500 885.0000 1.0000
41.7600 802.0000 1.0000
41.7700 840.0000 1.0000
41.7800 870.0000 1.0000
41.7900 840.0000 1.0000
41.8000 832.0000 1.0000
41.8100 889.0000 1.0000
41.8200 904.0000 1.0000
41.8300 872.0000 1.0000
41.8400 881.0000 1.0000
41.8500 862.0000 1.0000
41.8600 886.0000 1.0000
41.8700 848.0000 1.0000
41.8800 856.0000 1.0000
41.8900 838.0000 1.0000
41.9000 842.0000 1.0000
41.9100 858.0000 1.0000
41.9200 881.0000 1.0000
41.9300 864.0000 1.0000
41.9400 855.0000 1.0000
41.9500 863.0000 1.0000
41.9600 875.0000 1.0000
41.9700 860.0000 1.0000
41.9800 853.0000 1.0000
41.9900 824.0000 1.0000
42.0000 845.0000 1.0000
42.0100 887.0000 1.0000
42.0200 850.0000 1.0000
42.0300 826.0000 1.0000
42.0400 848.0000 1.0000
42.0500 834.0000 1.0000
42.0600 836.0000 1.0000
42.0700 865.0000 1.0000
42.0800 907.0000 1.0000
42.0900 830.0000 1.0000
42.1000 873.0000 1.0000
42.1100 887.0000 1.0000
42.1200 838.0000 1.0000
42.1300 888.0000 1.0000
42.1400 851.0000 1.0000
42.1500 805.0000 1.0000
42.1600 809.0000 1.0000
42.1700 828.0000 1.0000
42.1800 812.0000 1.0000
42.1900 890.0000 1.0000
42.2000 865.0000 1.0000
42.2100 813.0000 1.0000
42.2200 863.0000 1.0000
42.2300 890.0000 1.0000
42.2400 831.0000 1.0000
42.2500 841.0000 1.0000
42.2600 874.0000 1.0000
42.2700 871.0000 1.0000
42.2800 808.0000 1.0000
42.2900 883.0000 1.0000
42.3000 888.0000 1.0000
42.3100 872.0000 1.0000
42.3200 873.0000 1.0000
42.3300 854.0000 1.0000
42.3400 883.0000 1.0000
42.3500 867.0000 1.0000
42.3600 829.0000 1.0000
42.3700 831.0000 1.0000
42.3800 817.0000 1.0000
42.3900 824.0000 1.0000
42.4000 852.0000 1.0000
42.4100 860.0000 1.0000
42.4200 816.0000 1.0000
42.4300 843.0000 1.0000
42.4400 850.0000 1.0000
42.4500 821.0000 1.0000
42.4600 838.0000 1.0000
42.4700 835.0000 1.0000
42.4800 875.0000 1.0000
42.4900 911.0000 1.0000
42.5000 855.0000 1.0000
42.5100 828.0000 1.0000
42.5200 864.0000 1.0000
42.5300 829.0000 1.0000
42.5400 852.0000 1.0000
42.5500 819.0000 1.0000
42.5600 859.0000 1.0000
42.5700 864.0000 1.0000
42.5800 819.0000 1.0000
42.5900 825.0000 1.0000
42.6000 869.0000 1.0000
42.6100 839.0000 1.0000
42.6200 842.0000 1.0000
42.6300 843.0000 1.0000
42.6400 812.0000 1.0000
42.6500 864.0000 1.0000
42.6600 823.0000 1.0000
42.6700 835.0000 1.0000
42.6800 835.0000 1.0000
42.6900 875.0000 1.0000
42.7000 902.0000 1.0000
42.7100 923.0000 1.0000
42.7200 840.0000 1.0000
42.7300 824.0000 1.0000
42.7400 868.0000 1.0000
42.7500 860.0000 1.0000
42.7600 869.0000 1.0000
42.7700 872.0000 1.0000
42.7800 843.0000 1.0000
42.7900 841.0000 1.0000
42.8000 838.0000 1.0000
42.8100 825.0000 1.0000
42.8200 802.0000 1.0000
42.8300 844.0000 1.0000
42.8400 824.0000 1.0000
42.8500 853.0000 1.0000
42.8600 812.0000 1.0000
42.8700 822.0000 1.0000
42.8800 881.0000 1.0000
42.8900 886.0000 1.0000
42.9000 893.0000 1.0000
42.9100 904.0000 1.0000
42.9200 862.0000 1.0000
42.9300 864.0000 1.0000
42.9400 857.0000 1.0000
42.9500 833.0000 1.0000
42.9600 902.0000 1.0000
42.9700 837.0000 1.0000
42.9800 814.0000 1.0000
42.9900 845.0000 1.0000
43.0000 845.0000 1.0000
43.0100 861.0000 1.0000
43.0200 845.0000 1.0000
43.0300 855.0000 1.0000
43.0400 867.0000 1.0000
43.0500 890.0000 1.0000
43.0600 855.0000 1.0000
43.0700 862.0000 1.0000
43.0800 839.0000 1.0000
43.0900 884.0000 1.0000
43.1000 885.0000 1.0000
43.1100 868.0000 1.0000
43.1200 916.0000 1.0000
43.1300 904.0000 1.0000
43.1400 918.0000 1.0000
43.1500 909.0000 1.0000
43.1600 884.0000 1.0000
43.1700 925.0000 1.0000
43.1800 946.0000 1.0000
43.1900 950.0000 1.0000
43.2000 953.0000 1.0000
43.2100 986.0000 1.0000
43.2200 924.0000 1.0000
43.2300 918.0000 1.0000
43.2400 898.0000 1.0000
43.2500 924.0000 1.0000
43.2600 905.0000 1.0000
43.2700 934.0000 1.0000
43.2800 927.0000 1.0000
43.2900 889.0000 1.0000
43.3000 883.0000 1.0000
43.3100 925.0000 1.0000
43.3200 867.0000 1.0000
43.3300 875.0000 1.0000
43.3400 872.0000 1.0000
43.3500 865.0000 1.0000
43.3600 883.0000 1.0000
43.3700 884.0000 1.0000
43.3800 914.0000 1.0000
43.3900 886.0000 1.0000
43.4000 869.0000 1.0000
43.4100 848.0000 1.0000
43.4200 879.0000 1.0000
43.4300 891.0000 1.0000
43.4400 854.0000 1.0000
43.4500 867.0000 1.0000
43.4600 877.0000 1.0000
43.4700 829.0000 1.0000
43.4800 834.0000 1.0000
43.4900 839.0000 1.0000
43.5000 889.0000 1.0000
43.5100 876.0000 1.0000
43.5200 857.0000 1.0000
43.5300 851.0000 1.0000
43.5400 837.0000 1.0000
43.5500 807.0000 1.0000
43.5600 829.0000 1.0000
43.5700 850.0000 1.0000
43.5800 859.0000 1.0000
43.5900 809.0000 1.0000
43.6000 865.0000 1.0000
43.6100 868.0000 1.0000
43.6200 841.0000 1.0000
43.6300 879.0000 1.0000
43.6400 836.0000 1.0000
43.6500 811.0000 1.0000
43.6600 830.0000 1.0000
43.6700 853.0000 1.0000
43.6800 885.0000 1.0000
43.6900 854.0000 1.0000
43.7000 845.0000 1.0000
43.7100 829.0000 1.0000
43.7200 853.0000 1.0000
43.7300 809.0000 1.0000
43.7400 817.0000 1.0000
43.7500 812.0000 1.0000
43.7600 803.0000 1.0000
43.7700 824.0000 1.0000
43.7800 866.0000 1.0000
43.7900 853.0000 1.0000
43.8000 837.0000 1.0000
43.8100 840.0000 1.0000
43.8200 862.0000 1.0000
43.8300 767.0000 1.0000
43.8400 782.0000 1.0000
43.8500 818.0000 1.0000
43.8600 781.0000 1.0000
43.8700 847.0000 1.0000
43.8800 812.0000 1.0000
43.8900 832.0000 1.0000
43.9000 828.0000 1.0000
43.9100 804.0000 1.0000
43.9200 790.0000 1.0000
43.9300 812.0000 1.0000
43.9400 828.0000 1.0000
43.9500 868.0000 1.0000
43.9600 849.0000 1.0000
43.9700 865.0000 1.0000
43.9800 845.0000 1.0000
43.9900 814.0000 1.0000
44.0000 799.0000 1.0000
44.0100 829.0000 1.0000
44.0200 856.0000 1.0000
44.0300 863.0000 1.0000
44.0400 861.0000 1.0000
44.0500 820.0000 1.0000
44.0600 805.0000 1.0000
44.0700 819.0000 1.0000
44.0800 807.0000 1.0000
44.0900 844.0000 1.0000
44.1000 874.0000 1.0000
44.1100 815.0000 1.0000
44.1200 840.0000 1.0000
44.1300 773.0000 1.0000
44.1400 847.0000 1.0000
44.1500 829.0000 1.0000
44.1600 829.0000 1.0000
44.1700 807.0000 1.0000
44.1800 826.0000 1.0000
44.1900 797.0000 1.0000
44.2000 835.0000 1.0000
44.2100 861.0000 1.0000
44.2200 823.0000 1.0000
44.2300 843.0000 1.0000
44.2400 833.0000 1.0000
44.2500 832.0000 1.0000
44.2600 830.0000 1.0000
44.2700 810.0000 1.0000
44.2800 857.0000 1.0000
44.2900 845.0000 1.0000
44.3000 868.0000 1.0000
44.3100 846.0000 1.0000
44.3200 820.0000 1.0000
44.3300 847.0000 1.0000
44.3400 815.0000 1.0000
44.3500 830.0000 1.0000
44.3600 817.0000 1.0000
44.3700 827.0000 1.0000
44.3800 787.0000 1.0000
44.3900 854.0000 1.0000
44.4000 807.0000 1.0000
44.4100 778.0000 1.0000
44.4200 807.0000 1.0000
44.4300 846.0000 1.0000
44.4400 823.0000 1.0000
44.4500 801.0000 1.0000
44.4600 852.0000 1.0000
44.4700 804.0000 1.0000
44.4800 810.0000 1.0000
44.4900 844.0000 1.0000
44.5000 821.0000 1.0000
44.5100 802.0000 1.0000
44.5200 835.0000 1.0000
44.5300 816.0000 1.0000
44.5400 781.0000 1.0000
44.5500 801.0000 1.0000
44.5600 779.0000 1.0000
44.5700 833.0000 1.0000
44.5800 783.0000 1.0000
44.5900 789.0000 1.0000
44.6000 804.0000 1.0000
44.6100 810.0000 1.0000
44.6200 814.0000 1.0000
44.6300 804.0000 1.0000
44.6400 819.0000 1.0000
44.6500 795.0000 1.0000
44.6600 752.0000 1.0000
44.6700 774.0000 1.0000
44.6800 793.0000 1.0000
44.6900 788.0000 1.0000
44.7000 794.0000 1.0000
44.7100 833.0000 1.0000
44.7200 818.0000 1.0000
44.7300 808.0000 1.0000
44.7400 817.0000 1.0000
44.7500 787.0000 1.0000
44.7600 792.0000 1.0000
44.7700 796.0000 1.0000
44.7800 800.0000 1.0000
44.7900 799.0000 1.0000
44.8000 785.0000 1.0000
44.8100 765.0000 1.0000
44.8200 783.0000 1.0000
44.8300 776.0000 1.0000
44.8400 784.0000 1.0000
44.8500 803.0000 1.0000
44.8600 820.0000 1.0000
44.8700 764.0000 1.0000
44.8800 798.0000 1.0000
44.8900 823.0000 1.0000
44.9000 792.0000 1.0000
44.9100 836.0000 1.0000
44.9200 812.0000 1.0000
44.9300 804.0000 1.0000
44.9400 779.0000 1.0000
44.9500 839.0000 1.0000
44.9600 788.0000 1.0000
44.9700 775.0000 1.0000
44.9800 817.0000 1.0000
44.9900 781.0000 1.0000
45.0000 802.0000 1.0000
45.0100 773.0000 1.0000
45.0200 761.0000 1.0000
45.0300 768.0000 1.0000
45.0400 761.0000 1.0000
45.0500 799.0000 1.0000
45.0600 773.0000 1.0000
45.0700 811.0000 1.0000
45.0800 801.0000 1.0000
45.0900 780.0000 1.0000
45.1000 798.0000 1.0000
45.1100 793.0000 1.0000
45.1200 775.0000 1.0000
45.1300 800.0000 1.0000
45.1400 835.0000 1.0000
45.1500 824.0000 1.0000
45.1600 811.0000 1.0000
45.1700 863.0000 1.0000
45.1800 782.0000 1.0000
45.1900 751.0000 1.0000
45.2000 776.0000 1.0000
45.2100 789.0000 1.0000
45.2200 814.0000 1.0000
45.2300 792.0000 1.0000
45.2400 771.0000 1.0000
45.2500 782.0000 1.0000
45.2600 741.0000 1.0000
45.2700 805.0000 1.0000
45.2800 793.0000 1.0000
45.2900 784.0000 1.0000
45.3000 773.0000 1.0000
45.3100 808.0000 1.0000
45.3200 798.0000 1.0000
45.3300 779.0000 1.0000
45.3400 803.0000 1.0000
45.3500 834.0000 1.0000
45.3600 805.0000 1.0000
45.3700 789.0000 1.0000
45.3800 797.0000 1.0000
45.3900 760.0000 1.0000
45.4000 801.0000 1.0000
45.4100 797.0000 1.0000
45.4200 775.0000 1.0000
45.4300 812.0000 1.0000
45.4400 828.0000 1.0000
45.4500 790.0000 1.0000
45.4600 784.0000 1.0000
45.4700 791.0000 1.0000
45.4800 773.0000 1.0000
45.4900 812.0000 1.0000
45.5000 823.0000 1.0000
45.5100 824.0000 1.0000
45.5200 787.0000 1.0000
45.5300 783.0000 1.0000
45.5400 745.0000 1.0000
45.5500 785.0000 1.0000
45.5600 834.0000 1.0000
45.5700 817.0000 1.0000
45.5800 807.0000 1.0000
45.5900 774.0000 1.0000
45.6000 777.0000 1.0000
45.6100 775.0000 1.0000
45.6200 786.0000 1.0000
45.6300 806.0000 1.0000
45.6400 747.0000 1.0000
45.6500 785.0000 1.0000
45.6600 781.0000 1.0000
45.6700 785.0000 1.0000
45.6800 775.0000 1.0000
45.6900 793.0000 1.0000
45.7000 804.0000 1.0000
45.7100 804.0000 1.0000
45.7200 780.0000 1.0000
45.7300 771.0000 1.0000
45.7400 796.0000 1.0000
45.7500 774.0000 1.0000
45.7600 778.0000 1.0000
45.7700 782.0000 1.0000
45.7800 760.0000 1.0000
45.7900 747.0000 1.0000
45.8000 747.0000 1.0000
45.8100 767.0000 1.0000
45.8200 736.0000 1.0000
45.8300 721.0000 1.0000
45.8400 777.0000 1.0000
45.8500 810.0000 1.0000
45.8600 790.0000 1.0000
45.8700 740.0000 1.0000
45.8800 721.0000 1.0000
45.8900 772.0000 1.0000
45.9000 776.0000 1.0000
45.9100 789.0000 1.0000
45.9200 752.0000 1.0000
45.9300 764.0000 1.0000
45.9400 789.0000 1.0000
45.9500 772.0000 1.0000
45.9600 773.0000 1.0000
45.9700 793.0000 1.0000
45.9800 777.0000 1.0000
45.9900 832.0000 1.0000
46.0000 794.0000 1.0000
46.0100 832.0000 1.0000
46.0200 760.0000 1.0000
46.0300 808.0000 1.0000
46.0400 759.0000 1.0000
46.0500 810.0000 1.0000
46.0600 769.0000 1.0000
46.0700 776.0000 1.0000
46.0800 765.0000 1.0000
46.0900 773.0000 1.0000
46.1000 748.0000 1.0000
46.1100 755.0000 1.0000
46.1200 766.0000 1.0000
46.1300 771.0000 1.0000
46.1400 770.0000 1.0000
46.1500 774.0000 1.0000
46.1600 749.0000 1.0000
46.1700 766.0000 1.0000
46.1800 754.0000 1.0000
46.1900 784.0000 1.0000
46.2000 767.0000 1.0000
46.2100 783.0000 1.0000
46.2200 776.0000 1.0000
46.2300 761.0000 1.0000
46.2400 779.0000 1.0000
46.2500 816.0000 1.0000
46.2600 749.0000 1.0000
46.2700 756.0000 1.0000
46.2800 794.0000 1.0000
46.2900 742.0000 1.0000
46.3000 785.0000 1.0000
46.3100 794.0000 1.0000
46.3200 731.0000 1.0000
46.3300 730.0000 1.0000
46.3400 725.0000 1.0000
46.3500 787.0000 1.0000
46.3600 799.0000 1.0000
46.3700 816.0000 1.0000
46.3800 772.0000 1.0000
46.3900 760.0000 1.0000
46.4000 762.0000 1.0000
46.4100 760.0000 1.0000
46.4200 814.0000 1.0000
46.4300 797.0000 1.0000
46.4400 776.0000 1.0000
46.4500 786.0000 1.0000
46.4600 733.0000 1.0000
46.4700 767.0000 1.0000
46.4800 776.0000 1.0000
46.4900 825.0000 1.0000
46.5000 802.0000 1.0000
46.5100 777.0000 1.0000
46.5200 739.0000 1.0000
46.5300 750.0000 1.0000
46.5400 769.0000 1.0000
46.5500 760.0000 1.0000
46.5600 812.0000 1.0000
46.5700 770.0000 1.0000
46.5800 797.0000 1.0000
46.5900 771.0000 1.0000
46.6000 771.0000 1.0000
46.6100 790.0000 1.0000
46.6200 751.0000 1.0000
46.6300 712.0000 1.0000
46.6400 783.0000 1.0000
46.6500 748.0000 1.0000
46.6600 748.0000 1.0000
46.6700 747.0000 1.0000
46.6800 739.0000 1.0000
46.6900 835.0000 1.0000
46.7000 748.0000 1.0000
46.7100 760.0000 1.0000
46.7200 772.0000 1.0000
46.7300 773.0000 1.0000
46.7400 774.0000 1.0000
46.7500 745.0000 1.0000
46.7600 763.0000 1.0000
46.7700 773.0000 1.0000
46.7800 816.0000 1.0000
46.7900 770.0000 1.0000
46.8000 744.0000 1.0000
46.8100 720.0000 1.0000
46.8200 781.0000 1.0000
46.8300 789.0000 1.0000
46.8400 801.0000 1.0000
46.8500 751.0000 1.0000
46.8600 800.0000 1.0000
46.8700 772.0000 1.0000
46.8800 763.0000 1.0000
46.8900 769.0000 1.0000
46.9000 777.0000 1.0000
46.9100 761.0000 1.0000
46.9200 810.0000 1.0000
46.9300 791.0000 1.0000
46.9400 763.0000 1.0000
46.9500 773.0000 1.0000
46.9600 814.0000 1.0000
46.9700 804.0000 1.0000
46.9800 768.0000 1.0000
46.9900 822.0000 1.0000
47.0000 800.0000 1.0000
47.0100 791.0000 1.0000
47.0200 762.0000 1.0000
47.0300 791.0000 1.0000
47.0400 814.0000 1.0000
47.0500 791.0000 1.0000
47.0600 760.0000 1.0000
47.0700 761.0000 1.0000
47.0800 805.0000 1.0000
47.0900 800.0000 1.0000
47.1000 804.0000 1.0000
47.1100 759.0000 1.0000
47.1200 798.0000 1.0000
47.1300 797.0000 1.0000
47.1400 761.0000 1.0000
47.1500 788.0000 1.0000
47.1600 733.0000 1.0000
47.1700 750.0000 1.0000
47.1800 774.0000 1.0000
47.1900 782.0000 1.0000
47.2000 772.0000 1.0000
47.2100 707.0000 1.0000
47.2200 713.0000 1.0000
47.2300 750.0000 1.0000
47.2400 787.0000 1.0000
47.2500 704.0000 1.0000
47.2600 744.0000 1.0000
47.2700 743.0000 1.0000
47.2800 783.0000 1.0000
47.2900 792.0000 1.0000
47.3000 751.0000 1.0000
47.3100 725.0000 1.0000
47.3200 754.0000 1.0000
47.3300 727.0000 1.0000
47.3400 700.0000 1.0000
47.3500 744.0000 1.0000
47.3600 757.0000 1.0000
47.3700 765.0000 1.0000
47.3800 729.0000 1.0000
47.3900 725.0000 1.0000
47.4000 699.0000 1.0000
47.4100 772.0000 1.0000
47.4200 757.0000 1.0000
47.4300 781.0000 1.0000
47.4400 769.0000 1.0000
47.4500 799.0000 1.0000
47.4600 748.0000 1.0000
47.4700 781.0000 1.0000
47.4800 730.0000 1.0000
47.4900 776.0000 1.0000
47.5000 765.0000 1.0000
47.5100 731.0000 1.0000
47.5200 755.0000 1.0000
47.5300 744.0000 1.0000
47.5400 731.0000 1.0000
47.5500 740.0000 1.0000
47.5600 715.0000 1.0000
47.5700 748.0000 1.0000
47.5800 774.0000 1.0000
47.5900 726.0000 1.0000
47.6000 780.0000 1.0000
47.6100 764.0000 1.0000
47.6200 766.0000 1.0000
47.6300 784.0000 1.0000
47.6400 739.0000 1.0000
47.6500 723.0000 1.0000
47.6600 735.0000 1.0000
47.6700 770.0000 1.0000
47.6800 757.0000 1.0000
47.6900 771.0000 1.0000
47.7000 713.0000 1.0000
47.7100 738.0000 1.0000
47.7200 742.0000 1.0000
47.7300 739.0000 1.0000
47.7400 744.0000 1.0000
47.7500 716.0000 1.0000
47.7600 760.0000 1.0000
47.7700 737.0000 1.0000
47.7800 739.0000 1.0000
47.7900 748.0000 1.0000
47.8000 729.0000 1.0000
47.8100 730.0000 1.0000
47.8200 760.0000 1.0000
47.8300 731.0000 1.0000
47.8400 750.0000 1.0000
47.8500 773.0000 1.0000
47.8600 752.0000 1.0000
47.8700 758.0000 1.0000
47.8800 713.0000 1.0000
47.8900 758.0000 1.0000
47.9000 750.0000 1.0000
47.9100 772.0000 1.0000
47.9200 762.0000 1.0000
47.9300 794.0000 1.0000
47.9400 736.0000 1.0000
47.9500 725.0000 1.0000
47.9600 815.0000 1.0000
47.9700 689.0000 1.0000
47.9800 720.0000 1.0000
47.9900 787.0000 1.0000
48.0000 759.0000 1.0000
48.0100 783.0000 1.0000
48.0200 769.0000 1.0000
48.0300 806.0000 1.0000
48.0400 753.0000 1.0000
48.0500 775.0000 1.0000
48.0600 727.0000 1.0000
48.0700 710.0000 1.0000
48.0800 736.0000 1.0000
48.0900 704.0000 1.0000
48.1000 714.0000 1.0000
48.1100 746.0000 1.0000
48.1200 733.0000 1.0000
48.1300 718.0000 1.0000
48.1400 749.0000 1.0000
48.1500 750.0000 1.0000
48.1600 735.0000 1.0000
48.1700 756.0000 1.0000
48.1800 709.0000 1.0000
48.1900 724.0000 1.0000
48.2000 728.0000 1.0000
48.2100 728.0000 1.0000
48.2200 794.0000 1.0000
48.2300 797.0000 1.0000
48.2400 774.0000 1.0000
48.2500 729.0000 1.0000
48.2600 740.0000 1.0000
48.2700 722.0000 1.0000
48.2800 753.0000 1.0000
48.2900 713.0000 1.0000
48.3000 763.0000 1.0000
48.3100 764.0000 1.0000
48.3200 714.0000 1.0000
48.3300 743.0000 1.0000
48.3400 755.0000 1.0000
48.3500 788.0000 1.0000
48.3600 778.0000 1.0000
48.3700 707.0000 1.0000
48.3800 719.0000 1.0000
48.3900 745.0000 1.0000
48.4000 772.0000 1.0000
48.4100 713.0000 1.0000
48.4200 752.0000 1.0000
48.4300 732.0000 1.0000
48.4400 696.0000 1.0000
48.4500 730.0000 1.0000
48.4600 750.0000 1.0000
48.4700 720.0000 1.0000
48.4800 721.0000 1.0000
48.4900 711.0000 1.0000
48.5000 723.0000 1.0000
48.5100 708.0000 1.0000
48.5200 733.0000 1.0000
48.5300 753.0000 1.0000
48.5400 750.0000 1.0000
48.5500 766.0000 1.0000
48.5600 733.0000 1.0000
48.5700 763.0000 1.0000
48.5800 778.0000 1.0000
48.5900 745.0000 1.0000
48.6000 731.0000 1.0000
48.6100 778.0000 1.0000
48.6200 745.0000 1.0000
48.6300 780.0000 1.0000
48.6400 724.0000 1.0000
48.6500 715.0000 1.0000
48.6600 734.0000 1.0000
48.6700 744.0000 1.0000
48.6800 730.0000 1.0000
48.6900 754.0000 1.0000
48.7000 762.0000 1.0000
48.7100 726.0000 1.0000
48.7200 742.0000 1.0000
48.7300 737.0000 1.0000
48.7400 726.0000 1.0000
48.7500 724.0000 1.0000
48.7600 725.0000 1.0000
48.7700 701.0000 1.0000
48.7800 731.0000 1.0000
48.7900 721.0000 1.0000
48.8000 754.0000 1.0000
48.8100 772.0000 1.0000
48.8200 715.0000 1.0000
48.8300 764.0000 1.0000
48.8400 770.0000 1.0000
48.8500 759.0000 1.0000
48.8600 687.0000 1.0000
48.8700 745.0000 1.0000
48.8800 728.0000 1.0000
48.8900 691.0000 1.0000
48.9000 714.0000 1.0000
48.9100 734.0000 1.0000
48.9200 729.0000 1.0000
48.9300 710.0000 1.0000
48.9400 696.0000 1.0000
48.9500 707.0000 1.0000
48.9600 687.0000 1.0000
48.9700 709.0000 1.0000
48.9800 743.0000 1.0000
48.9900 741.0000 1.0000
49.0000 732.0000 1.0000
49.0100 722.0000 1.0000
49.0200 716.0000 1.0000
49.0300 752.0000 1.0000
49.0400 748.0000 1.0000
49.0500 769.0000 1.0000
49.0600 739.0000 1.0000
49.0700 755.0000 1.0000
49.0800 734.0000 1.0000
49.0900 759.0000 1.0000
49.1000 758.0000 1.0000
49.1100 714.0000 1.0000
49.1200 733.0000 1.0000
49.1300 749.0000 1.0000
49.1400 712.0000 1.0000
49.1500 720.0000 1.0000
49.1600 727.0000 1.0000
49.1700 739.0000 1.0000
49.1800 719.0000 1.0000
49.1900 752.0000 1.0000
49.2000 702.0000 1.0000
49.2100 727.0000 1.0000
49.2200 692.0000 1.0000
49.2300 712.0000 1.0000
49.2400 730.0000 1.0000
49.2500 686.0000 1.0000
49.2600 734.0000 1.0000
49.2700 778.0000 1.0000
49.2800 762.0000 1.0000
49.2900 777.0000 1.0000
49.3000 705.0000 1.0000
49.3100 696.0000 1.0000
49.3200 730.0000 1.0000
49.3300 705.0000 1.0000
49.3400 702.0000 1.0000
49.3500 733.0000 1.0000
49.3600 738.0000 1.0000
49.3700 688.0000 1.0000
49.3800 731.0000 1.0000
49.3900 684.0000 1.0000
49.4000 718.0000 1.0000
49.4100 721.0000 1.0000
49.4200 708.0000 1.0000
49.4300 716.0000 1.0000
49.4400 705.0000 1.0000
49.4500 743.0000 1.0000
49.4600 734.0000 1.0000
49.4700 704.0000 1.0000
49.4800 734.0000 1.0000
49.4900 751.0000 1.0000
49.5000 738.0000 1.0000
49.5100 691.0000 1.0000
49.5200 712.0000 1.0000
49.5300 698.0000 1.0000
49.5400 695.0000 1.0000
49.5500 690.0000 1.0000
49.5600 674.0000 1.0000
49.5700 680.0000 1.0000
49.5800 735.0000 1.0000
49.5900 758.0000 1.0000
49.6000 752.0000 1.0000
49.6100 710.0000 1.0000
49.6200 717.0000 1.0000
49.6300 713.0000 1.0000
49.6400 705.0000 1.0000
49.6500 749.0000 1.0000
49.6600 749.0000 1.0000
49.6700 762.0000 1.0000
49.6800 717.0000 1.0000
49.6900 737.0000 1.0000
49.7000 751.0000 1.0000
49.7100 729.0000 1.0000
49.7200 703.0000 1.0000
49.7300 695.0000 1.0000
49.7400 705.0000 1.0000
49.7500 743.0000 1.0000
49.7600 725.0000 1.0000
49.7700 720.0000 1.0000
49.7800 758.0000 1.0000
49.7900 750.0000 1.0000
49.8000 739.0000 1.0000
49.8100 721.0000 1.0000
49.8200 766.0000 1.0000
49.8300 747.0000 1.0000
49.8400 689.0000 1.0000
49.8500 727.0000 1.0000
49.8600 727.0000 1.0000
49.8700 756.0000 1.0000
49.8800 687.0000 1.0000
49.8900 680.0000 1.0000
49.9000 699.0000 1.0000
49.9100 684.0000 1.0000
49.9200 724.0000 1.0000
49.9300 699.0000 1.0000
49.9400 698.0000 1.0000
49.9500 748.0000 1.0000
49.9600 727.0000 1.0000
49.9700 763.0000 1.0000
49.9800 743.0000 1.0000
49.9900 740.0000 1.0000
50.0000 720.0000 1.0000
50.0100 726.0000 1.0000
50.0200 740.0000 1.0000
50.0300 722.0000 1.0000
50.0400 784.0000 1.0000
50.0500 716.0000 1.0000
50.0600 738.0000 1.0000
50.0700 706.0000 1.0000
50.0800 766.0000 1.0000
50.0900 761.0000 1.0000
50.1000 723.0000 1.0000
50.1100 733.0000 1.0000
50.1200 780.0000 1.0000
50.1300 779.0000 1.0000
50.1400 781.0000 1.0000
50.1500 785.0000 1.0000
50.1600 731.0000 1.0000
50.1700 803.0000 1.0000
50.1800 800.0000 1.0000
50.1900 790.0000 1.0000
50.2000 790.0000 1.0000
50.2100 779.0000 1.0000
50.2200 825.0000 1.0000
50.2300 803.0000 1.0000
50.2400 755.0000 1.0000
50.2500 735.0000 1.0000
50.2600 792.0000 1.0000
50.2700 796.0000 1.0000
50.2800 753.0000 1.0000
50.2900 749.0000 1.0000
50.3000 781.0000 1.0000
50.3100 771.0000 1.0000
50.3200 754.0000 1.0000
50.3300 721.0000 1.0000
50.3400 774.0000 1.0000
50.3500 794.0000 1.0000
50.3600 775.0000 1.0000
50.3700 733.0000 1.0000
50.3800 739.0000 1.0000
50.3900 735.0000 1.0000
50.4000 754.0000 1.0000
50.4100 783.0000 1.0000
50.4200 693.0000 1.0000
50.4300 737.0000 1.0000
50.4400 740.0000 1.0000
50.4500 729.0000 1.0000
50.4600 746.0000 1.0000
50.4700 719.0000 1.0000
50.4800 733.0000 1.0000
50.4900 741.0000 1.0000
50.5000 741.0000 1.0000
50.5100 730.0000 1.0000
50.5200 705.0000 1.0000
50.5300 752.0000 1.0000
50.5400 754.0000 1.0000
50.5500 785.0000 1.0000
50.5600 772.0000 1.0000
50.5700 757.0000 1.0000
50.5800 698.0000 1.0000
50.5900 693.0000 1.0000
50.6000 695.0000 1.0000
50.6100 740.0000 1.0000
50.6200 730.0000 1.0000
50.6300 716.0000 1.0000
50.6400 743.0000 1.0000
50.6500 798.0000 1.0000
50.6600 743.0000 1.0000
50.6700 755.0000 1.0000
50.6800 715.0000 1.0000
50.6900 735.0000 1.0000
50.7000 747.0000 1.0000
50.7100 771.0000 1.0000
50.7200 745.0000 1.0000
50.7300 731.0000 1.0000
50.7400 758.0000 1.0000
50.7500 718.0000 1.0000
50.7600 714.0000 1.0000
50.7700 743.0000 1.0000
50.7800 724.0000 1.0000
50.7900 753.0000 1.0000
50.8000 720.0000 1.0000
50.8100 739.0000 1.0000
50.8200 752.0000 1.0000
50.8300 743.0000 1.0000
50.8400 699.0000 1.0000
50.8500 764.0000 1.0000
50.8600 749.0000 1.0000
50.8700 778.0000 1.0000
50.8800 736.0000 1.0000
50.8900 735.0000 1.0000
50.9000 732.0000 1.0000
50.9100 732.0000 1.0000
50.9200 697.0000 1.0000
50.9300 700.0000 1.0000
50.9400 718.0000 1.0000
50.9500 738.0000 1.0000
50.9600 688.0000 1.0000
50.9700 726.0000 1.0000
50.9800 718.0000 1.0000
50.9900 700.0000 1.0000
51.0000 775.0000 1.0000
51.0100 761.0000 1.0000
51.0200 743.0000 1.0000
51.0300 743.0000 1.0000
51.0400 713.0000 1.0000
51.0500 731.0000 1.0000
51.0600 736.0000 1.0000
51.0700 774.0000 1.0000
51.0800 727.0000 1.0000
51.0900 748.0000 1.0000
51.1000 716.0000 1.0000
51.1100 757.0000 1.0000
51.1200 760.0000 1.0000
51.1300 773.0000 1.0000
51.1400 717.0000 1.0000
51.1500 748.0000 1.0000
51.1600 741.0000 1.0000
51.1700 750.0000 1.0000
51.1800 735.0000 1.0000
51.1900 723.0000 1.0000
51.2000 729.0000 1.0000
51.2100 729.0000 1.0000
51.2200 725.0000 1.0000
51.2300 747.0000 1.0000
51.2400 700.0000 1.0000
51.2500 750.0000 1.0000
51.2600 730.0000 1.0000
51.2700 698.0000 1.0000
51.2800 703.0000 1.0000
51.2900 738.0000 1.0000
51.3000 746.0000 1.0000
51.3100 749.0000 1.0000
51.3200 724.0000 1.0000
51.3300 723.0000 1.0000
51.3400 743.0000 1.0000
51.3500 691.0000 1.0000
51.3600 731.0000 1.0000
51.3700 709.0000 1.0000
51.3800 723.0000 1.0000
51.3900 788.0000 1.0000
51.4000 729.0000 1.0000
51.4100 751.0000 1.0000
51.4200 764.0000 1.0000
51.4300 789.0000 1.0000
51.4400 763.0000 1.0000
51.4500 775.0000 1.0000
51.4600 775.0000 1.0000
51.4700 734.0000 1.0000
51.4800 740.0000 1.0000
51.4900 746.0000 1.0000
51.5000 748.0000 1.0000
51.5100 787.0000 1.0000
51.5200 718.0000 1.0000
51.5300 735.0000 1.0000
51.5400 729.0000 1.0000
51.5500 787.0000 1.0000
51.5600 768.0000 1.0000
51.5700 721.0000 1.0000
51.5800 764.0000 1.0000
51.5900 760.0000 1.0000
51.6000 753.0000 1.0000
51.6100 749.0000 1.0000
51.6200 740.0000 1.0000
51.6300 742.0000 1.0000
51.6400 761.0000 1.0000
51.6500 772.0000 1.0000
51.6600 758.0000 1.0000
51.6700 762.0000 1.0000
51.6800 779.0000 1.0000
51.6900 833.0000 1.0000
51.7000 774.0000 1.0000
51.7100 810.0000 1.0000
51.7200 758.0000 1.0000
51.7300 777.0000 1.0000
51.7400 793.0000 1.0000
51.7500 790.0000 1.0000
51.7600 827.0000 1.0000
51.7700 813.0000 1.0000
51.7800 809.0000 1.0000
51.7900 813.0000 1.0000
51.8000 796.0000 1.0000
51.8100 836.0000 1.0000
51.8200 850.0000 1.0000
51.8300 859.0000 1.0000
51.8400 841.0000 1.0000
51.8500 854.0000 1.0000
51.8600 904.0000 1.0000
51.8700 900.0000 1.0000
51.8800 877.0000 1.0000
51.8900 899.0000 1.0000
51.9000 902.0000 1.0000
51.9100 934.0000 1.0000
51.9200 950.0000 1.0000
51.9300 950.0000 1.0000
51.9400 1013.0000 1.0000
51.9500 1059.0000 1.0000
51.9600 1035.0000 1.0000
51.9700 1118.0000 1.0000
51.9800 1062.0000 1.0000
51.9900 1177.0000 1.0000
52.0000 1216.0000 1.0000
52.0100 1276.0000 1.0000
52.0200 1321.0000 1.0000
52.0300 1369.0000 1.0000
52.0400 1372.0000 1.0000
52.0500 1461.0000 1.0000
52.0600 1487.0000 1.0000
52.0700 1568.0000 1.0000
52.0800 1714.0000 1.0000
52.0900 1728.0000 1.0000
52.1000 1844.0000 1.0000
52.1100 1961.0000 1.0000
52.1200 2106.0000 1.0000
52.1300 2289.0000 1.0000
52.1400 2515.0000 1.0000
52.1500 2749.0000 1.0000
52.1600 2938.0000 1.0000
52.1700 3174.0000 1.0000
52.1800 3490.0000 1.0000
52.1900 3855.0000 1.0000
52.2000 4030.0000 1.0000
52.2100 4320.0000 1.0000
52.2200 4657.0000 1.0000
52.2300 4841.0000 1.0000
52.2400 5056.0000 1.0000
52.2500 5267.0000 1.0000
52.2600 5269.0000 1.0000
52.2700 5454.0000 1.0000
52.2800 5394.0000 1.0000
52.2900 5388.0000 1.0000
52.3000 5330.0000 1.0000
52.3100 5109.0000 1.0000
52.3200 4889.0000 1.0000
52.3300 4929.0000 1.0000
52.3400 4539.0000 1.0000
52.3500 4453.0000 1.0000
52.3600 4226.0000 1.0000
52.3700 4192.0000 1.0000
52.3800 4127.0000 1.0000
52.3900 4059.0000 1.0000
52.4000 3868.0000 1.0000
52.4100 3759.0000 1.0000
52.4200 3676.0000 1.0000
52.4300 3448.0000 1.0000
52.4400 3217.0000 1.0000
52.4500 2957.0000 1.0000
52.4600 2885.0000 1.0000
52.4700 2684.0000 1.0000
52.4800 2469.0000 1.0000
52.4900 2339.0000 1.0000
52.5000 2041.0000 1.0000
52.5100 1970.0000 1.0000
52.5200 1832.0000 1.0000
52.5300 1670.0000 1.0000
52.5400 1672.0000 1.0000
52.5500 1598.0000 1.0000
52.5600 1530.0000 1.0000
52.5700 1489.0000 1.0000
52.5800 1393.0000 1.0000
52.5900 1327.0000 1.0000
52.6000 1277.0000 1.0000
52.6100 1270.0000 1.0000
52.6200 1188.0000 1.0000
52.6300 1145.0000 1.0000
52.6400 1087.0000 1.0000
52.6500 1063.0000 1.0000
52.6600 1062.0000 1.0000
52.6700 1051.0000 1.0000
52.6800 1061.0000 1.0000
52.6900 1005.0000 1.0000
52.7000 986.0000 1.0000
52.7100 1002.0000 1.0000
52.7200 963.0000 1.0000
52.7300 935.0000 1.0000
52.7400 960.0000 1.0000
52.7500 885.0000 1.0000
52.7600 879.0000 1.0000
52.7700 882.0000 1.0000
52.7800 886.0000 1.0000
52.7900 882.0000 1.0000
52.8000 856.0000 1.0000
52.8100 841.0000 1.0000
52.8200 854.0000 1.0000
52.8300 832.0000 1.0000
52.8400 826.0000 1.0000
52.8500 831.0000 1.0000
52.8600 822.0000 1.0000
52.8700 792.0000 1.0000
52.8800 818.0000 1.0000
52.8900 881.0000 1.0000
52.9000 840.0000 1.0000
52.9100 729.0000 1.0000
52.9200 761.0000 1.0000
52.9300 781.0000 1.0000
52.9400 775.0000 1.0000
52.9500 803.0000 1.0000
52.9600 816.0000 1.0000
52.9700 762.0000 1.0000
52.9800 776.0000 1.0000
52.9900 778.0000 1.0000
53.0000 764.0000 1.0000
53.0100 756.0000 1.0000
53.0200 809.0000 1.0000
53.0300 807.0000 1.0000
53.0400 788.0000 1.0000
53.0500 809.0000 1.0000
53.0600 766.0000 1.0000
53.0700 715.0000 1.0000
53.0800 757.0000 1.0000
53.0900 770.0000 1.0000
53.1000 804.0000 1.0000
53.1100 796.0000 1.0000
53.1200 753.0000 1.0000
53.1300 774.0000 1.0000
53.1400 751.0000 1.0000
53.1500 773.0000 1.0000
53.1600 764.0000 1.0000
53.1700 741.0000 1.0000
53.1800 766.0000 1.0000
53.1900 765.0000 1.0000
53.2000 758.0000 1.0000
53.2100 740.0000 1.0000
53.2200 725.0000 1.0000
53.2300 734.0000 1.0000
53.2400 720.0000 1.0000
53.2500 751.0000 1.0000
53.2600 752.0000 1.0000
53.2700 739.0000 1.0000
53.2800 764.0000 1.0000
53.2900 734.0000 1.0000
53.3000 756.0000 1.0000
53.3100 727.0000 1.0000
53.3200 723.0000 1.0000
53.3300 750.0000 1.0000
53.3400 750.0000 1.0000
53.3500 703.0000 1.0000
53.3600 761.0000 1.0000
53.3700 753.0000 1.0000
53.3800 728.0000 1.0000
53.3900 739.0000 1.0000
53.4000 740.0000 1.0000
53.4100 746.0000 1.0000
53.4200 777.0000 1.0000
53.4300 737.0000 1.0000
53.4400 730.0000 1.0000
53.4500 748.0000 1.0000
53.4600 726.0000 1.0000
53.4700 745.0000 1.0000
53.4800 722.0000 1.0000
53.4900 719.0000 1.0000
53.5000 703.0000 1.0000
53.5100 754.0000 1.0000
53.5200 738.0000 1.0000
53.5300 723.0000 1.0000
53.5400 703.0000 1.0000
53.5500 759.0000 1.0000
53.5600 751.0000 1.0000
53.5700 740.0000 1.0000
53.5800 733.0000 1.0000
53.5900 701.0000 1.0000
53.6000 769.0000 1.0000
53.6100 728.0000 1.0000
53.6200 682.0000 1.0000
53.6300 702.0000 1.0000
53.6400 719.0000 1.0000
53.6500 688.0000 1.0000
53.6600 716.0000 1.0000
53.6700 744.0000 1.0000
53.6800 710.0000 1.0000
53.6900 704.0000 1.0000
53.7000 711.0000 1.0000
53.7100 706.0000 1.0000
53.7200 742.0000 1.0000
53.7300 715.0000 1.0000
53.7400 745.0000 1.0000
53.7500 703.0000 1.0000
53.7600 683.0000 1.0000
53.7700 720.0000 1.0000
53.7800 701.0000 1.0000
53.7900 709.0000 1.0000
53.8000 660.0000 1.0000
53.8100 698.0000 1.0000
53.8200 705.0000 1.0000
53.8300 707.0000 1.0000
53.8400 723.0000 1.0000
53.8500 723.0000 1.0000
53.8600 723.0000 1.0000
53.8700 702.0000 1.0000
53.8800 688.0000 1.0000
53.8900 740.0000 1.0000
53.9000 723.0000 1.0000
53.9100 696.0000 1.0000
53.9200 691.0000 1.0000
53.9300 750.0000 1.0000
53.9400 744.0000 1.0000
53.9500 736.0000 1.0000
53.9600 699.0000 1.0000
53.9700 729.0000 1.0000
53.9800 685.0000 1.0000
53.9900 698.0000 1.0000
54.0000 695.0000 1.0000
54.0100 706.0000 1.0000
54.0200 679.0000 1.0000
54.0300 692.0000 1.0000
54.0400 687.0000 1.0000
54.0500 694.0000 1.0000
54.0600 714.0000 1.0000
54.0700 649.0000 1.0000
54.0800 705.0000 1.0000
54.0900 697.0000 1.0000
54.1000 698.0000 1.0000
54.1100 671.0000 1.0000
54.1200 685.0000 1.0000
54.1300 727.0000 1.0000
54.1400 709.0000 1.0000
54.1500 706.0000 1.0000
54.1600 755.0000 1.0000
54.1700 676.0000 1.0000
54.1800 680.0000 1.0000
54.1900 713.0000 1.0000
54.2000 680.0000 1.0000
54.2100 745.0000 1.0000
54.2200 678.0000 1.0000
54.2300 682.0000 1.0000
54.2400 743.0000 1.0000
54.2500 747.0000 1.0000
54.2600 738.0000 1.0000
54.2700 708.0000 1.0000
54.2800 750.0000 1.0000
54.2900 705.0000 1.0000
54.3000 705.0000 1.0000
54.3100 695.0000 1.0000
54.3200 703.0000 1.0000
54.3300 701.0000 1.0000
54.3400 672.0000 1.0000
54.3500 717.0000 1.0000
54.3600 727.0000 1.0000
54.3700 715.0000 1.0000
54.3800 745.0000 1.0000
54.3900 714.0000 1.0000
54.4000 721.0000 1.0000
54.4100 689.0000 1.0000
54.4200 725.0000 1.0000
54.4300 734.0000 1.0000
54.4400 686.0000 1.0000
54.4500 711.0000 1.0000
54.4600 668.0000 1.0000
54.4700 690.0000 1.0000
54.4800 721.0000 1.0000
54.4900 718.0000 1.0000
54.5000 716.0000 1.0000
54.5100 737.0000 1.0000
54.5200 708.0000 1.0000
54.5300 708.0000 1.0000
54.5400 745.0000 1.0000
54.5500 701.0000 1.0000
54.5600 711.0000 1.0000
54.5700 721.0000 1.0000
54.5800 712.0000 1.0000
54.5900 730.0000 1.0000
54.6000 723.0000 1.0000
54.6100 740.0000 1.0000
54.6200 716.0000 1.0000
54.6300 747.0000 1.0000
54.6400 700.0000 1.0000
54.6500 736.0000 1.0000
54.6600 722.0000 1.0000
54.6700 752.0000 1.0000
54.6800 764.0000 1.0000
54.6900 737.0000 1.0000
54.7000 737.0000 1.0000
54.7100 721.0000 1.0000
54.7200 772.0000 1.0000
54.7300 755.0000 1.0000
54.7400 731.0000 1.0000
54.7500 782.0000 1.0000
54.7600 772.0000 1.0000
54.7700 791.0000 1.0000
54.7800 763.0000 1.0000
54.7900 788.0000 1.0000
54.8000 759.0000 1.0000
54.8100 779.0000 1.0000
54.8200 744.0000 1.0000
54.8300 758.0000 1.0000
54.8400 759.0000 1.0000
54.8500 768.0000 1.0000
54.8600 781.0000 1.0000
54.8700 764.0000 1.0000
54.8800 779.0000 1.0000
54.8900 766.0000 1.0000
54.9000 784.0000 1.0000
54.9100 819.0000 1.0000
54.9200 797.0000 1.0000
54.9300 806.0000 1.0000
54.9400 751.0000 1.0000
54.9500 761.0000 1.0000
54.9600 751.0000 1.0000
54.9700 755.0000 1.0000
54.9800 785.0000 1.0000
54.9900 812.0000 1.0000
55.0000 783.0000 1.0000
55.0100 753.0000 1.0000
55.0200 752.0000 1.0000
55.0300 807.0000 1.0000
55.0400 837.0000 1.0000
55.0500 794.0000 1.0000
55.0600 817.0000 1.0000
55.0700 795.0000 1.0000
55.0800 853.0000 1.0000
55.0900 813.0000 1.0000
55.1000 821.0000 1.0000
55.1100 816.0000 1.0000
55.1200 886.0000 1.0000
55.1300 894.0000 1.0000
55.1400 903.0000 1.0000
55.1500 919.0000 1.0000
55.1600 940.0000 1.0000
55.1700 955.0000 1.0000
55.1800 931.0000 1.0000
55.1900 1007.0000 1.0000
55.2000 1018.0000 1.0000
55.2100 1040.0000 1.0000
55.2200 1058.0000 1.0000
55.2300 1054.0000 1.0000
55.2400 1064.0000 1.0000
55.2500 1043.0000 1.0000
55.2600 1026.0000 1.0000
55.2700 1021.0000 1.0000
55.2800 1082.0000 1.0000
55.2900 1071.0000 1.0000
55.3000 1089.0000 1.0000
55.3100 1101.0000 1.0000
55.3200 1132.0000 1.0000
55.3300 1028.0000 1.0000
55.3400 1060.0000 1.0000
55.3500 1074.0000 1.0000
55.3600 1071.0000 1.0000
55.3700 1023.0000 1.0000
55.3800 1034.0000 1.0000
55.3900 1011.0000 1.0000
55.4000 1046.0000 1.0000
55.4100 1013.0000 1.0000
55.4200 1023.0000 1.0000
55.4300 983.0000 1.0000
55.4400 1013.0000 1.0000
55.4500 921.0000 1.0000
55.4600 939.0000 1.0000
55.4700 931.0000 1.0000
55.4800 900.0000 1.0000
55.4900 912.0000 1.0000
55.5000 846.0000 1.0000
55.5100 883.0000 1.0000
55.5200 876.0000 1.0000
55.5300 846.0000 1.0000
55.5400 846.0000 1.0000
55.5500 844.0000 1.0000
55.5600 869.0000 1.0000
55.5700 859.0000 1.0000
55.5800 792.0000 1.0000
55.5900 771.0000 1.0000
55.6000 768.0000 1.0000
55.6100 762.0000 1.0000
55.6200 799.0000 1.0000
55.6300 797.0000 1.0000
55.6400 816.0000 1.0000
55.6500 749.0000 1.0000
55.6600 764.0000 1.0000
55.6700 789.0000 1.0000
55.6800 774.0000 1.0000
55.6900 776.0000 1.0000
55.7000 728.0000 1.0000
55.7100 765.0000 1.0000
55.7200 737.0000 1.0000
55.7300 749.0000 1.0000
55.7400 763.0000 1.0000
55.7500 750.0000 1.0000
55.7600 738.0000 1.0000
55.7700 679.0000 1.0000
55.7800 678.0000 1.0000
55.7900 715.0000 1.0000
55.8000 719.0000 1.0000
55.8100 695.0000 1.0000
55.8200 696.0000 1.0000
55.8300 720.0000 1.0000
55.8400 703.0000 1.0000
55.8500 722.0000 1.0000
55.8600 707.0000 1.0000
55.8700 695.0000 1.0000
55.8800 692.0000 1.0000
55.8900 688.0000 1.0000
55.9000 700.0000 1.0000
55.9100 691.0000 1.0000
55.9200 709.0000 1.0000
55.9300 701.0000 1.0000
55.9400 683.0000 1.0000
55.9500 660.0000 1.0000
55.9600 656.0000 1.0000
55.9700 672.0000 1.0000
55.9800 695.0000 1.0000
55.9900 654.0000 1.0000
56.0000 693.0000 1.0000
56.0100 707.0000 1.0000
56.0200 737.0000 1.0000
56.0300 667.0000 1.0000
56.0400 682.0000 1.0000
56.0500 719.0000 1.0000
56.0600 726.0000 1.0000
56.0700 680.0000 1.0000
56.0800 668.0000 1.0000
56.0900 709.0000 1.0000
56.1000 729.0000 1.0000
56.1100 706.0000 1.0000
56.1200 662.0000 1.0000
56.1300 689.0000 1.0000
56.1400 669.0000 1.0000
56.1500 657.0000 1.0000
56.1600 667.0000 1.0000
56.1700 673.0000 1.0000
56.1800 721.0000 1.0000
56.1900 713.0000 1.0000
56.2000 659.0000 1.0000
56.2100 670.0000 1.0000
56.2200 705.0000 1.0000
56.2300 708.0000 1.0000
56.2400 678.0000 1.0000
56.2500 668.0000 1.0000
56.2600 699.0000 1.0000
56.2700 693.0000 1.0000
56.2800 695.0000 1.0000
56.2900 731.0000 1.0000
56.3000 682.0000 1.0000
56.3100 703.0000 1.0000
56.3200 665.0000 1.0000
56.3300 656.0000 1.0000
56.3400 708.0000 1.0000
56.3500 711.0000 1.0000
56.3600 653.0000 1.0000
56.3700 687.0000 1.0000
56.3800 719.0000 1.0000
56.3900 711.0000 1.0000
56.4000 654.0000 1.0000
56.4100 697.0000 1.0000
56.4200 718.0000 1.0000
56.4300 705.0000 1.0000
56.4400 684.0000 1.0000
56.4500 666.0000 1.0000
56.4600 667.0000 1.0000
56.4700 682.0000 1.0000
56.4800 657.0000 1.0000
56.4900 694.0000 1.0000
56.5000 717.0000 1.0000
56.5100 658.0000 1.0000
56.5200 668.0000 1.0000
56.5300 714.0000 1.0000
56.5400 745.0000 1.0000
56.5500 682.0000 1.0000
56.5600 681.0000 1.0000
56.5700 713.0000 1.0000
56.5800 704.0000 1.0000
56.5900 652.0000 1.0000
56.6000 687.0000 1.0000
56.6100 653.0000 1.0000
56.6200 675.0000 1.0000
56.6300 659.0000 1.0000
56.6400 672.0000 1.0000
56.6500 684.0000 1.0000
56.6600 682.0000 1.0000
56.6700 669.0000 1.0000
56.6800 682.0000 1.0000
56.6900 728.0000 1.0000
56.7000 666.0000 1.0000
56.7100 666.0000 1.0000
56.7200 676.0000 1.0000
56.7300 669.0000 1.0000
56.7400 647.0000 1.0000
56.7500 700.0000 1.0000
56.7600 701.0000 1.0000
56.7700 686.0000 1.0000
56.7800 678.0000 1.0000
56.7900 709.0000 1.0000
56.8000 739.0000 1.0000
56.8100 715.0000 1.0000
56.8200 693.0000 1.0000
56.8300 675.0000 1.0000
56.8400 653.0000 1.0000
56.8500 678.0000 1.0000
56.8600 715.0000 1.0000
56.8700 641.0000 1.0000
56.8800 689.0000 1.0000
56.8900 693.0000 1.0000
56.9000 682.0000 1.0000
56.9100 656.0000 1.0000
56.9200 706.0000 1.0000
56.9300 675.0000 1.0000
56.9400 686.0000 1.0000
56.9500 695.0000 1.0000
56.9600 664.0000 1.0000
56.9700 659.0000 1.0000
56.9800 686.0000 1.0000
56.9900 700.0000 1.0000
57.0000 650.0000 1.0000
57.0100 664.0000 1.0000
57.0200 678.0000 1.0000
57.0300 680.0000 1.0000
57.0400 699.0000 1.0000
57.0500 657.0000 1.0000
57.0600 662.0000 1.0000
57.0700 695.0000 1.0000
57.0800 686.0000 1.0000
57.0900 637.0000 1.0000
57.1000 663.0000 1.0000
57.1100 642.0000 1.0000
57.1200 670.0000 1.0000
57.1300 662.0000 1.0000
57.1400 649.0000 1.0000
57.1500 644.0000 1.0000
57.1600 653.0000 1.0000
57.1700 675.0000 1.0000
57.1800 672.0000 1.0000
57.1900 716.0000 1.0000
57.2000 682.0000 1.0000
57.2100 680.0000 1.0000
57.2200 692.0000 1.0000
57.2300 695.0000 1.0000
57.2400 690.0000 1.0000
57.2500 676.0000 1.0000
57.2600 691.0000 1.0000
57.2700 688.0000 1.0000
57.2800 719.0000 1.0000
57.2900 666.0000 1.0000
57.3000 646.0000 1.0000
57.3100 715.0000 1.0000
57.3200 701.0000 1.0000
57.3300 698.0000 1.0000
57.3400 705.0000 1.0000
57.3500 675.0000 1.0000
57.3600 669.0000 1.0000
57.3700 616.0000 1.0000
57.3800 667.0000 1.0000
57.3900 676.0000 1.0000
57.4000 650.0000 1.0000
57.4100 648.0000 1.0000
57.4200 653.0000 1.0000
57.4300 670.0000 1.0000
57.4400 702.0000 1.0000
57.4500 648.0000 1.0000
57.4600 656.0000 1.0000
57.4700 719.0000 1.0000
57.4800 693.0000 1.0000
57.4900 676.0000 1.0000
57.5000 682.0000 1.0000
57.5100 698.0000 1.0000
57.5200 714.0000 1.0000
57.5300 656.0000 1.0000
57.5400 649.0000 1.0000
57.5500 640.0000 1.0000
57.5600 672.0000 1.0000
57.5700 683.0000 1.0000
57.5800 670.0000 1.0000
57.5900 697.0000 1.0000
57.6000 665.0000 1.0000
57.6100 707.0000 1.0000
57.6200 687.0000 1.0000
57.6300 699.0000 1.0000
57.6400 678.0000 1.0000
57.6500 683.0000 1.0000
57.6600 711.0000 1.0000
57.6700 667.0000 1.0000
57.6800 690.0000 1.0000
57.6900 671.0000 1.0000
57.7000 684.0000 1.0000
57.7100 693.0000 1.0000
57.7200 689.0000 1.0000
57.7300 655.0000 1.0000
57.7400 707.0000 1.0000
57.7500 682.0000 1.0000
57.7600 693.0000 1.0000
57.7700 685.0000 1.0000
57.7800 686.0000 1.0000
57.7900 658.0000 1.0000
57.8000 690.0000 1.0000
57.8100 665.0000 1.0000
57.8200 702.0000 1.0000
57.8300 688.0000 1.0000
57.8400 687.0000 1.0000
57.8500 696.0000 1.0000
57.8600 660.0000 1.0000
57.8700 687.0000 1.0000
57.8800 674.0000 1.0000
57.8900 678.0000 1.0000
57.9000 643.0000 1.0000
57.9100 652.0000 1.0000
57.9200 669.0000 1.0000
57.9300 725.0000 1.0000
57.9400 663.0000 1.0000
57.9500 680.0000 1.0000
57.9600 682.0000 1.0000
57.9700 678.0000 1.0000
57.9800 684.0000 1.0000
57.9900 677.0000 1.0000
58.0000 667.0000 1.0000
58.0100 684.0000 1.0000
58.0200 713.0000 1.0000
58.0300 666.0000 1.0000
58.0400 627.0000 1.0000
58.0500 698.0000 1.0000
58.0600 675.0000 1.0000
58.0700 658.0000 1.0000
58.0800 663.0000 1.0000
58.0900 668.0000 1.0000
58.1000 704.0000 1.0000
58.1100 719.0000 1.0000
58.1200 719.0000 1.0000
58.1300 684.0000 1.0000
58.1400 688.0000 1.0000
58.1500 686.0000 1.0000
58.1600 679.0000 1.0000
58.1700 681.0000 1.0000
58.1800 658.0000 1.0000
58.1900 717.0000 1.0000
58.2000 705.0000 1.0000
58.2100 729.0000 1.0000
58.2200 684.0000 1.0000
58.2300 661.0000 1.0000
58.2400 677.0000 1.0000
58.2500 691.0000 1.0000
58.2600 700.0000 1.0000
58.2700 723.0000 1.0000
58.2800 755.0000 1.0000
58.2900 760.0000 1.0000
58.3000 679.0000 1.0000
58.3100 712.0000 1.0000
58.3200 705.0000 1.0000
58.3300 668.0000 1.0000
58.3400 661.0000 1.0000
58.3500 689.0000 1.0000
58.3600 692.0000 1.0000
58.3700 702.0000 1.0000
58.3800 694.0000 1.0000
58.3900 667.0000 1.0000
58.4000 678.0000 1.0000
58.4100 686.0000 1.0000
58.4200 700.0000 1.0000
58.4300 692.0000 1.0000
58.4400 675.0000 1.0000
58.4500 698.0000 1.0000
58.4600 667.0000 1.0000
58.4700 664.0000 1.0000
58.4800 686.0000 1.0000
58.4900 692.0000 1.0000
58.5000 687.0000 1.0000
58.5100 652.0000 1.0000
58.5200 687.0000 1.0000
58.5300 697.0000 1.0000
58.5400 691.0000 1.0000
58.5500 732.0000 1.0000
58.5600 695.0000 1.0000
58.5700 677.0000 1.0000
58.5800 715.0000 1.0000
58.5900 681.0000 1.0000
58.6000 675.0000 1.0000
58.6100 678.0000 1.0000
58.6200 660.0000 1.0000
58.6300 689.0000 1.0000
58.6400 705.0000 1.0000
58.6500 671.0000 1.0000
58.6600 658.0000 1.0000
58.6700 679.0000 1.0000
58.6800 653.0000 1.0000
58.6900 692.0000 1.0000
58.7000 664.0000 1.0000
58.7100 637.0000 1.0000
58.7200 659.0000 1.0000
58.7300 672.0000 1.0000
58.7400 685.0000 1.0000
58.7500 665.0000 1.0000
58.7600 740.0000 1.0000
58.7700 685.0000 1.0000
58.7800 672.0000 1.0000
58.7900 689.0000 1.0000
58.8000 681.0000 1.0000
58.8100 707.0000 1.0000
58.8200 686.0000 1.0000
58.8300 668.0000 1.0000
58.8400 673.0000 1.0000
58.8500 652.0000 1.0000
58.8600 644.0000 1.0000
58.8700 654.0000 1.0000
58.8800 626.0000 1.0000
58.8900 712.0000 1.0000
58.9000 696.0000 1.0000
58.9100 671.0000 1.0000
58.9200 665.0000 1.0000
58.9300 688.0000 1.0000
58.9400 708.0000 1.0000
58.9500 637.0000 1.0000
58.9600 671.0000 1.0000
58.9700 666.0000 1.0000
58.9800 638.0000 1.0000
58.9900 644.0000 1.0000
59.0000 677.0000 1.0000
59.0100 694.0000 1.0000
59.0200 672.0000 1.0000
59.0300 703.0000 1.0000
59.0400 655.0000 1.0000
59.0500 687.0000 1.0000
59.0600 708.0000 1.0000
59.0700 643.0000 1.0000
59.0800 664.0000 1.0000
59.0900 666.0000 1.0000
59.1000 675.0000 1.0000
59.1100 646.0000 1.0000
59.1200 698.0000 1.0000
59.1300 656.0000 1.0000
59.1400 695.0000 1.0000
59.1500 667.0000 1.0000
59.1600 667.0000 1.0000
59.1700 648.0000 1.0000
59.1800 673.0000 1.0000
59.1900 692.0000 1.0000
59.2000 682.0000 1.0000
59.2100 691.0000 1.0000
59.2200 710.0000 1.0000
59.2300 695.0000 1.0000
59.2400 740.0000 1.0000
59.2500 687.0000 1.0000
59.2600 676.0000 1.0000
59.2700 667.0000 1.0000
59.2800 696.0000 1.0000
59.2900 676.0000 1.0000
59.3000 668.0000 1.0000
59.3100 666.0000 1.0000
59.3200 651.0000 1.0000
59.3300 695.0000 1.0000
59.3400 662.0000 1.0000
59.3500 685.0000 1.0000
59.3600 676.0000 1.0000
59.3700 670.0000 1.0000
59.3800 707.0000 1.0000
59.3900 656.0000 1.0000
59.4000 700.0000 1.0000
59.4100 698.0000 1.0000
59.4200 681.0000 1.0000
59.4300 684.0000 1.0000
59.4400 700.0000 1.0000
59.4500 662.0000 1.0000
59.4600 682.0000 1.0000
59.4700 670.0000 1.0000
59.4800 682.0000 1.0000
59.4900 671.0000 1.0000
59.5000 666.0000 1.0000
59.5100 656.0000 1.0000
59.5200 668.0000 1.0000
59.5300 693.0000 1.0000
59.5400 705.0000 1.0000
59.5500 677.0000 1.0000
59.5600 669.0000 1.0000
59.5700 696.0000 1.0000
59.5800 682.0000 1.0000
59.5900 673.0000 1.0000
59.6000 687.0000 1.0000
59.6100 637.0000 1.0000
59.6200 646.0000 1.0000
59.6300 665.0000 1.0000
59.6400 675.0000 1.0000
59.6500 652.0000 1.0000
59.6600 605.0000 1.0000
59.6700 681.0000 1.0000
59.6800 621.0000 1.0000
59.6900 690.0000 1.0000
59.7000 669.0000 1.0000
59.7100 654.0000 1.0000
59.7200 656.0000 1.0000
59.7300 654.0000 1.0000
59.7400 701.0000 1.0000
59.7500 711.0000 1.0000
59.7600 717.0000 1.0000
59.7700 654.0000 1.0000
59.7800 676.0000 1.0000
59.7900 684.0000 1.0000
59.8000 640.0000 1.0000
59.8100 677.0000 1.0000
59.8200 676.0000 1.0000
59.8300 652.0000 1.0000
59.8400 643.0000 1.0000
59.8500 647.0000 1.0000
59.8600 674.0000 1.0000
59.8700 645.0000 1.0000
59.8800 685.0000 1.0000
59.8900 666.0000 1.0000
59.9000 659.0000 1.0000
59.9100 672.0000 1.0000
59.9200 672.0000 1.0000
59.9300 659.0000 1.0000
59.9400 629.0000 1.0000
59.9500 679.0000 1.0000
59.9600 681.0000 1.0000
59.9700 663.0000 1.0000
59.9800 668.0000 1.0000
59.9900 630.0000 1.0000
60.0000 720.0000 1.0000
60.0100 669.0000 1.0000
60.0200 668.0000 1.0000
60.0300 671.0000 1.0000
60.0400 704.0000 1.0000
60.0500 689.0000 1.0000
60.0600 635.0000 1.0000
60.0700 674.0000 1.0000
60.0800 661.0000 1.0000
60.0900 730.0000 1.0000
60.1000 685.0000 1.0000
60.1100 676.0000 1.0000
60.1200 639.0000 1.0000
60.1300 670.0000 1.0000
60.1400 655.0000 1.0000
60.1500 676.0000 1.0000
60.1600 686.0000 1.0000
60.1700 652.0000 1.0000
60.1800 658.0000 1.0000
60.1900 673.0000 1.0000
60.2000 686.0000 1.0000
60.2100 678.0000 1.0000
60.2200 625.0000 1.0000
60.2300 649.0000 1.0000
60.2400 691.0000 1.0000
60.2500 665.0000 1.0000
60.2600 724.0000 1.0000
60.2700 683.0000 1.0000
60.2800 657.0000 1.0000
60.2900 676.0000 1.0000
60.3000 663.0000 1.0000
60.3100 615.0000 1.0000
60.3200 644.0000 1.0000
60.3300 687.0000 1.0000
60.3400 695.0000 1.0000
60.3500 702.0000 1.0000
60.3600 682.0000 1.0000
60.3700 681.0000 1.0000
60.3800 660.0000 1.0000
60.3900 600.0000 1.0000
60.4000 656.0000 1.0000
60.4100 640.0000 1.0000
60.4200 647.0000 1.0000
60.4300 689.0000 1.0000
60.4400 693.0000 1.0000
60.4500 714.0000 1.0000
60.4600 685.0000 1.0000
60.4700 677.0000 1.0000
60.4800 677.0000 1.0000
60.4900 684.0000 1.0000
60.5000 664.0000 1.0000
60.5100 664.0000 1.0000
60.5200 653.0000 1.0000
60.5300 698.0000 1.0000
60.5400 680.0000 1.0000
60.5500 644.0000 1.0000
60.5600 664.0000 1.0000
60.5700 694.0000 1.0000
60.5800 676.0000 1.0000
60.5900 654.0000 1.0000
60.6000 694.0000 1.0000
60.6100 692.0000 1.0000
60.6200 665.0000 1.0000
60.6300 657.0000 1.0000
60.6400 669.0000 1.0000
60.6500 691.0000 1.0000
60.6600 664.0000 1.0000
60.6700 682.0000 1.0000
60.6800 660.0000 1.0000
60.6900 646.0000 1.0000
60.7000 668.0000 1.0000
60.7100 693.0000 1.0000
60.7200 669.0000 1.0000
60.7300 678.0000 1.0000
60.7400 674.0000 1.0000
60.7500 627.0000 1.0000
60.7600 671.0000 1.0000
60.7700 653.0000 1.0000
60.7800 657.0000 1.0000
60.7900 733.0000 1.0000
60.8000 659.0000 1.0000
60.8100 691.0000 1.0000
60.8200 664.0000 1.0000
60.8300 653.0000 1.0000
60.8400 681.0000 1.0000
60.8500 685.0000 1.0000
60.8600 677.0000 1.0000
60.8700 639.0000 1.0000
60.8800 661.0000 1.0000
60.8900 662.0000 1.0000
60.9000 683.0000 1.0000
60.9100 626.0000 1.0000
60.9200 650.0000 1.0000
60.9300 665.0000 1.0000
60.9400 694.0000 1.0000
60.9500 696.0000 1.0000
60.9600 719.0000 1.0000
60.9700 669.0000 1.0000
60.9800 678.0000 1.0000
60.9900 656.0000 1.0000
61.0000 672.0000 1.0000
61.0100 646.0000 1.0000
61.0200 681.0000 1.0000
61.0300 672.0000 1.0000
61.0400 641.0000 1.0000
61.0500 696.0000 1.0000
61.0600 672.0000 1.0000
61.0700 702.0000 1.0000
61.0800 681.0000 1.0000
61.0900 672.0000 1.0000
61.1000 710.0000 1.0000
61.1100 654.0000 1.0000
61.1200 658.0000 1.0000
61.1300 647.0000 1.0000
61.1400 613.0000 1.0000
61.1500 669.0000 1.0000
61.1600 698.0000 1.0000
61.1700 649.0000 1.0000
61.1800 706.0000 1.0000
61.1900 629.0000 1.0000
61.2000 632.0000 1.0000
61.2100 636.0000 1.0000
61.2200 682.0000 1.0000
61.2300 682.0000 1.0000
61.2400 684.0000 1.0000
61.2500 654.0000 1.0000
61.2600 659.0000 1.0000
61.2700 622.0000 1.0000
61.2800 689.0000 1.0000
61.2900 689.0000 1.0000
61.3000 687.0000 1.0000
61.3100 650.0000 1.0000
61.3200 671.0000 1.0000
61.3300 686.0000 1.0000
61.3400 646.0000 1.0000
61.3500 681.0000 1.0000
61.3600 664.0000 1.0000
61.3700 669.0000 1.0000
61.3800 685.0000 1.0000
61.3900 704.0000 1.0000
61.4000 673.0000 1.0000
61.4100 719.0000 1.0000
61.4200 667.0000 1.0000
61.4300 677.0000 1.0000
61.4400 650.0000 1.0000
61.4500 694.0000 1.0000
61.4600 665.0000 1.0000
61.4700 703.0000 1.0000
61.4800 662.0000 1.0000
61.4900 714.0000 1.0000
61.5000 677.0000 1.0000
61.5100 653.0000 1.0000
61.5200 730.0000 1.0000
61.5300 692.0000 1.0000
61.5400 683.0000 1.0000
61.5500 653.0000 1.0000
61.5600 690.0000 1.0000
61.5700 695.0000 1.0000
61.5800 679.0000 1.0000
61.5900 713.0000 1.0000
61.6000 670.0000 1.0000
61.6100 697.0000 1.0000
61.6200 693.0000 1.0000
61.6300 665.0000 1.0000
61.6400 703.0000 1.0000
61.6500 709.0000 1.0000
61.6600 704.0000 1.0000
61.6700 697.0000 1.0000
61.6800 693.0000 1.0000
61.6900 670.0000 1.0000
61.7000 719.0000 1.0000
61.7100 708.0000 1.0000
61.7200 720.0000 1.0000
61.7300 693.0000 1.0000
61.7400 683.0000 1.0000
61.7500 707.0000 1.0000
61.7600 695.0000 1.0000
61.7700 732.0000 1.0000
61.7800 733.0000 1.0000
61.7900 728.0000 1.0000
61.8000 709.0000 1.0000
61.8100 732.0000 1.0000
61.8200 772.0000 1.0000
61.8300 761.0000 1.0000
61.8400 742.0000 1.0000
61.8500 764.0000 1.0000
61.8600 771.0000 1.0000
61.8700 718.0000 1.0000
61.8800 737.0000 1.0000
61.8900 720.0000 1.0000
61.9000 773.0000 1.0000
61.9100 808.0000 1.0000
61.9200 800.0000 1.0000
61.9300 822.0000 1.0000
61.9400 822.0000 1.0000
61.9500 853.0000 1.0000
61.9600 805.0000 1.0000
61.9700 838.0000 1.0000
61.9800 837.0000 1.0000
61.9900 842.0000 1.0000
62.0000 886.0000 1.0000
62.0100 880.0000 1.0000
62.0200 928.0000 1.0000
62.0300 917.0000 1.0000
62.0400 869.0000 1.0000
62.0500 949.0000 1.0000
62.0600 936.0000 1.0000
62.0700 940.0000 1.0000
62.0800 1042.0000 1.0000
62.0900 1005.0000 1.0000
62.1000 1074.0000 1.0000
62.1100 1076.0000 1.0000
62.1200 1105.0000 1.0000
62.1300 1119.0000 1.0000
62.1400 1181.0000 1.0000
62.1500 1192.0000 1.0000
62.1600 1242.0000 1.0000
62.1700 1261.0000 1.0000
62.1800 1267.0000 1.0000
62.1900 1343.0000 1.0000
62.2000 1409.0000 1.0000
62.2100 1413.0000 1.0000
62.2200 1414.0000 1.0000
62.2300 1498.0000 1.0000
62.2400 1471.0000 1.0000
62.2500 1465.0000 1.0000
62.2600 1475.0000 1.0000
62.2700 1423.0000 1.0000
62.2800 1456.0000 1.0000
62.2900 1459.0000 1.0000
62.3000 1515.0000 1.0000
62.3100 1490.0000 1.0000
62.3200 1515.0000 1.0000
62.3300 1514.0000 1.0000
62.3400 1546.0000 1.0000
62.3500 1504.0000 1.0000
62.3600 1497.0000 1.0000
62.3700 1491.0000 1.0000
62.3800 1440.0000 1.0000
62.3900 1398.0000 1.0000
62.4000 1418.0000 1.0000
62.4100 1369.0000 1.0000
62.4200 1345.0000 1.0000
62.4300 1373.0000 1.0000
62.4400 1315.0000 1.0000
62.4500 1296.0000 1.0000
62.4600 1306.0000 1.0000
62.4700 1246.0000 1.0000
62.4800 1269.0000 1.0000
62.4900 1237.0000 1.0000
62.5000 1241.0000 1.0000
62.5100 1153.0000 1.0000
62.5200 1140.0000 1.0000
62.5300 1106.0000 1.0000
62.5400 1121.0000 1.0000
62.5500 1090.0000 1.0000
62.5600 1008.0000 1.0000
62.5700 1036.0000 1.0000
62.5800 1039.0000 1.0000
62.5900 1015.0000 1.0000
62.6000 987.0000 1.0000
62.6100 974.0000 1.0000
62.6200 962.0000 1.0000
62.6300 900.0000 1.0000
62.6400 903.0000 1.0000
62.6500 892.0000 1.0000
62.6600 886.0000 1.0000
62.6700 896.0000 1.0000
62.6800 905.0000 1.0000
62.6900 851.0000 1.0000
62.7000 804.0000 1.0000
62.7100 856.0000 1.0000
62.7200 832.0000 1.0000
62.7300 781.0000 1.0000
62.7400 813.0000 1.0000
62.7500 810.0000 1.0000
62.7600 803.0000 1.0000
62.7700 784.0000 1.0000
62.7800 793.0000 1.0000
62.7900 761.0000 1.0000
62.8000 787.0000 1.0000
62.8100 763.0000 1.0000
62.8200 763.0000 1.0000
62.8300 738.0000 1.0000
62.8400 749.0000 1.0000
62.8500 766.0000 1.0000
62.8600 742.0000 1.0000
62.8700 752.0000 1.0000
62.8800 754.0000 1.0000
62.8900 746.0000 1.0000
62.9000 777.0000 1.0000
62.9100 750.0000 1.0000
62.9200 705.0000 1.0000
62.9300 770.0000 1.0000
62.9400 775.0000 1.0000
62.9500 768.0000 1.0000
62.9600 677.0000 1.0000
62.9700 740.0000 1.0000
62.9800 730.0000 1.0000
62.9900 736.0000 1.0000
63.0000 769.0000 1.0000
63.0100 738.0000 1.0000
63.0200 740.0000 1.0000
63.0300 680.0000 1.0000
63.0400 732.0000 1.0000
63.0500 740.0000 1.0000
63.0600 768.0000 1.0000
63.0700 719.0000 1.0000
63.0800 708.0000 1.0000
63.0900 701.0000 1.0000
63.1000 731.0000 1.0000
63.1100 747.0000 1.0000
63.1200 716.0000 1.0000
63.1300 743.0000 1.0000
63.1400 773.0000 1.0000
63.1500 721.0000 1.0000
63.1600 751.0000 1.0000
63.1700 761.0000 1.0000
63.1800 734.0000 1.0000
63.1900 737.0000 1.0000
63.2000 749.0000 1.0000
63.2100 719.0000 1.0000
63.2200 716.0000 1.0000
63.2300 698.0000 1.0000
63.2400 726.0000 1.0000
63.2500 729.0000 1.0000
63.2600 738.0000 1.0000
63.2700 693.0000 1.0000
63.2800 682.0000 1.0000
63.2900 697.0000 1.0000
63.3000 692.0000 1.0000
63.3100 709.0000 1.0000
63.3200 751.0000 1.0000
63.3300 731.0000 1.0000
63.3400 734.0000 1.0000
63.3500 681.0000 1.0000
63.3600 669.0000 1.0000
63.3700 693.0000 1.0000
63.3800 694.0000 1.0000
63.3900 653.0000 1.0000
63.4000 690.0000 1.0000
63.4100 679.0000 1.0000
63.4200 696.0000 1.0000
63.4300 689.0000 1.0000
63.4400 668.0000 1.0000
63.4500 707.0000 1.0000
63.4600 649.0000 1.0000
63.4700 650.0000 1.0000
63.4800 677.0000 1.0000
63.4900 653.0000 1.0000
63.5000 672.0000 1.0000
63.5100 645.0000 1.0000
63.5200 675.0000 1.0000
63.5300 660.0000 1.0000
63.5400 693.0000 1.0000
63.5500 667.0000 1.0000
63.5600 678.0000 1.0000
63.5700 657.0000 1.0000
63.5800 697.0000 1.0000
63.5900 662.0000 1.0000
63.6000 681.0000 1.0000
63.6100 654.0000 1.0000
63.6200 699.0000 1.0000
63.6300 675.0000 1.0000
63.6400 640.0000 1.0000
63.6500 688.0000 1.0000
63.6600 678.0000 1.0000
63.6700 654.0000 1.0000
63.6800 684.0000 1.0000
63.6900 650.0000 1.0000
63.7000 663.0000 1.0000
63.7100 647.0000 1.0000
63.7200 682.0000 1.0000
63.7300 642.0000 1.0000
63.7400 652.0000 1.0000
63.7500 673.0000 1.0000
63.7600 702.0000 1.0000
63.7700 704.0000 1.0000
63.7800 673.0000 1.0000
63.7900 643.0000 1.0000
63.8000 660.0000 1.0000
63.8100 663.0000 1.0000
63.8200 669.0000 1.0000
63.8300 666.0000 1.0000
63.8400 684.0000 1.0000
63.8500 690.0000 1.0000
63.8600 640.0000 1.0000
63.8700 674.0000 1.0000
63.8800 669.0000 1.0000
63.8900 657.0000 1.0000
63.9000 707.0000 1.0000
63.9100 706.0000 1.0000
63.9200 657.0000 1.0000
63.9300 689.0000 1.0000
63.9400 649.0000 1.0000
63.9500 658.0000 1.0000
63.9600 697.0000 1.0000
63.9700 669.0000 1.0000
63.9800 661.0000 1.0000
63.9900 655.0000 1.0000
64.0000 631.0000 1.0000
64.0100 670.0000 1.0000
64.0200 667.0000 1.0000
64.0300 660.0000 1.0000
64.0400 661.0000 1.0000
64.0500 604.0000 1.0000
64.0600 654.0000 1.0000
64.0700 686.0000 1.0000
64.0800 679.0000 1.0000
64.0900 642.0000 1.0000
64.1000 660.0000 1.0000
64.1100 626.0000 1.0000
64.1200 639.0000 1.0000
64.1300 664.0000 1.0000
64.1400 708.0000 1.0000
64.1500 662.0000 1.0000
64.1600 666.0000 1.0000
64.1700 705.0000 1.0000
64.1800 717.0000 1.0000
64.1900 680.0000 1.0000
64.2000 648.0000 1.0000
64.2100 684.0000 1.0000
64.2200 692.0000 1.0000
64.2300 657.0000 1.0000
64.2400 699.0000 1.0000
64.2500 658.0000 1.0000
64.2600 668.0000 1.0000
64.2700 678.0000 1.0000
64.2800 670.0000 1.0000
64.2900 719.0000 1.0000
64.3000 717.0000 1.0000
64.3100 675.0000 1.0000
64.3200 725.0000 1.0000
64.3300 660.0000 1.0000
64.3400 680.0000 1.0000
64.3500 693.0000 1.0000
64.3600 665.0000 1.0000
64.3700 688.0000 1.0000
64.3800 667.0000 1.0000
64.3900 684.0000 1.0000
64.4000 700.0000 1.0000
64.4100 733.0000 1.0000
64.4200 693.0000 1.0000
64.4300 671.0000 1.0000
64.4400 698.0000 1.0000
64.4500 701.0000 1.0000
64.4600 735.0000 1.0000
64.4700 719.0000 1.0000
64.4800 763.0000 1.0000
64.4900 736.0000 1.0000
64.5000 690.0000 1.0000
64.5100 732.0000 1.0000
64.5200 723.0000 1.0000
64.5300 742.0000 1.0000
64.5400 745.0000 1.0000
64.5500 785.0000 1.0000
64.5600 774.0000 1.0000
64.5700 766.0000 1.0000
64.5800 783.0000 1.0000
64.5900 770.0000 1.0000
64.6000 854.0000 1.0000
64.6100 802.0000 1.0000
64.6200 889.0000 1.0000
64.6300 851.0000 1.0000
64.6400 860.0000 1.0000
64.6500 913.0000 1.0000
64.6600 989.0000 1.0000
64.6700 948.0000 1.0000
64.6800 955.0000 1.0000
64.6900 951.0000 1.0000
64.7000 908.0000 1.0000
64.7100 884.0000 1.0000
64.7200 890.0000 1.0000
64.7300 886.0000 1.0000
64.7400 901.0000 1.0000
64.7500 883.0000 1.0000
64.7600 846.0000 1.0000
64.7700 803.0000 1.0000
64.7800 849.0000 1.0000
64.7900 826.0000 1.0000
64.8000 849.0000 1.0000
64.8100 850.0000 1.0000
64.8200 859.0000 1.0000
64.8300 824.0000 1.0000
64.8400 835.0000 1.0000
64.8500 825.0000 1.0000
64.8600 821.0000 1.0000
64.8700 842.0000 1.0000
64.8800 846.0000 1.0000
64.8900 817.0000 1.0000
64.9000 809.0000 1.0000
64.9100 791.0000 1.0000
64.9200 833.0000 1.0000
64.9300 786.0000 1.0000
64.9400 790.0000 1.0000
64.9500 798.0000 1.0000
64.9600 748.0000 1.0000
64.9700 762.0000 1.0000
64.9800 730.0000 1.0000
64.9900 706.0000 1.0000
65.0000 722.0000 1.0000
65.0100 760.0000 1.0000
65.0200 742.0000 1.0000
65.0300 739.0000 1.0000
65.0400 737.0000 1.0000
65.0500 733.0000 1.0000
65.0600 746.0000 1.0000
65.0700 751.0000 1.0000
65.0800 751.0000 1.0000
65.0900 686.0000 1.0000
65.1000 672.0000 1.0000
65.1100 773.0000 1.0000
65.1200 762.0000 1.0000
65.1300 741.0000 1.0000
65.1400 694.0000 1.0000
65.1500 711.0000 1.0000
65.1600 673.0000 1.0000
65.1700 689.0000 1.0000
65.1800 699.0000 1.0000
65.1900 704.0000 1.0000
65.2000 708.0000 1.0000
65.2100 661.0000 1.0000
65.2200 683.0000 1.0000
65.2300 707.0000 1.0000
65.2400 671.0000 1.0000
65.2500 679.0000 1.0000
65.2600 716.0000 1.0000
65.2700 676.0000 1.0000
65.2800 687.0000 1.0000
65.2900 651.0000 1.0000
65.3000 662.0000 1.0000
65.3100 683.0000 1.0000
65.3200 687.0000 1.0000
65.3300 711.0000 1.0000
65.3400 717.0000 1.0000
65.3500 707.0000 1.0000
65.3600 726.0000 1.0000
65.3700 752.0000 1.0000
65.3800 731.0000 1.0000
65.3900 693.0000 1.0000
65.4000 699.0000 1.0000
65.4100 693.0000 1.0000
65.4200 631.0000 1.0000
65.4300 677.0000 1.0000
65.4400 671.0000 1.0000
65.4500 723.0000 1.0000
65.4600 712.0000 1.0000
65.4700 698.0000 1.0000
65.4800 743.0000 1.0000
65.4900 701.0000 1.0000
65.5000 721.0000 1.0000
65.5100 693.0000 1.0000
65.5200 716.0000 1.0000
65.5300 669.0000 1.0000
65.5400 717.0000 1.0000
65.5500 706.0000 1.0000
65.5600 701.0000 1.0000
65.5700 708.0000 1.0000
65.5800 699.0000 1.0000
65.5900 679.0000 1.0000
65.6000 678.0000 1.0000
65.6100 718.0000 1.0000
65.6200 711.0000 1.0000
65.6300 694.0000 1.0000
65.6400 738.0000 1.0000
65.6500 732.0000 1.0000
65.6600 721.0000 1.0000
65.6700 715.0000 1.0000
65.6800 756.0000 1.0000
65.6900 741.0000 1.0000
65.7000 725.0000 1.0000
65.7100 752.0000 1.0000
65.7200 737.0000 1.0000
65.7300 776.0000 1.0000
65.7400 775.0000 1.0000
65.7500 749.0000 1.0000
65.7600 730.0000 1.0000
65.7700 732.0000 1.0000
65.7800 750.0000 1.0000
65.7900 799.0000 1.0000
65.8000 771.0000 1.0000
65.8100 788.0000 1.0000
65.8200 765.0000 1.0000
65.8300 789.0000 1.0000
65.8400 845.0000 1.0000
65.8500 836.0000 1.0000
65.8600 810.0000 1.0000
65.8700 828.0000 1.0000
65.8800 883.0000 1.0000
65.8900 837.0000 1.0000
65.9000 845.0000 1.0000
65.9100 850.0000 1.0000
65.9200 890.0000 1.0000
65.9300 899.0000 1.0000
65.9400 915.0000 1.0000
65.9500 990.0000 1.0000
65.9600 979.0000 1.0000
65.9700 983.0000 1.0000
65.9800 1012.0000 1.0000
65.9900 1004.0000 1.0000
66.0000 1062.0000 1.0000
66.0100 1116.0000 1.0000
66.0200 1038.0000 1.0000
66.0300 1149.0000 1.0000
66.0400 1162.0000 1.0000
66.0500 1163.0000 1.0000
66.0600 1230.0000 1.0000
66.0700 1286.0000 1.0000
66.0800 1340.0000 1.0000
66.0900 1356.0000 1.0000
66.1000 1469.0000 1.0000
66.1100 1597.0000 1.0000
66.1200 1580.0000 1.0000
66.1300 1712.0000 1.0000
66.1400 1758.0000 1.0000
66.1500 1938.0000 1.0000
66.1600 1974.0000 1.0000
66.1700 2192.0000 1.0000
66.1800 2218.0000 1.0000
66.1900 2222.0000 1.0000
66.2000 2353.0000 1.0000
66.2100 2429.0000 1.0000
66.2200 2545.0000 1.0000
66.2300 2620.0000 1.0000
66.2400 2673.0000 1.0000
66.2500 2675.0000 1.0000
66.2600 2793.0000 1.0000
66.2700 2631.0000 1.0000
66.2800 2636.0000 1.0000
66.2900 2624.0000 1.0000
66.3000 2634.0000 1.0000
66.3100 2634.0000 1.0000
66.3200 2550.0000 1.0000
66.3300 2477.0000 1.0000
66.3400 2399.0000 1.0000
66.3500 2422.0000 1.0000
66.3600 2370.0000 1.0000
66.3700 2310.0000 1.0000
66.3800 2356.0000 1.0000
66.3900 2252.0000 1.0000
66.4000 2258.0000 1.0000
66.4100 2227.0000 1.0000
66.4200 2219.0000 1.0000
66.4300 2252.0000 1.0000
66.4400 2063.0000 1.0000
66.4500 2051.0000 1.0000
66.4600 2084.0000 1.0000
66.4700 1971.0000 1.0000
66.4800 1952.0000 1.0000
66.4900 1831.0000 1.0000
66.5000 1723.0000 1.0000
66.5100 1760.0000 1.0000
66.5200 1642.0000 1.0000
66.5300 1584.0000 1.0000
66.5400 1430.0000 1.0000
66.5500 1417.0000 1.0000
66.5600 1379.0000 1.0000
66.5700 1353.0000 1.0000
66.5800 1292.0000 1.0000
66.5900 1231.0000 1.0000
66.6000 1221.0000 1.0000
66.6100 1093.0000 1.0000
66.6200 1126.0000 1.0000
66.6300 1066.0000 1.0000
66.6400 1007.0000 1.0000
66.6500 988.0000 1.0000
66.6600 978.0000 1.0000
66.6700 991.0000 1.0000
66.6800 976.0000 1.0000
66.6900 952.0000 1.0000
66.7000 907.0000 1.0000
66.7100 908.0000 1.0000
66.7200 819.0000 1.0000
66.7300 855.0000 1.0000
66.7400 822.0000 1.0000
66.7500 842.0000 1.0000
66.7600 847.0000 1.0000
66.7700 795.0000 1.0000
66.7800 839.0000 1.0000
66.7900 855.0000 1.0000
66.8000 739.0000 1.0000
66.8100 774.0000 1.0000
66.8200 754.0000 1.0000
66.8300 745.0000 1.0000
66.8400 743.0000 1.0000
66.8500 782.0000 1.0000
66.8600 740.0000 1.0000
66.8700 744.0000 1.0000
66.8800 766.0000 1.0000
66.8900 718.0000 1.0000
66.9000 743.0000 1.0000
66.9100 744.0000 1.0000
66.9200 719.0000 1.0000
66.9300 710.0000 1.0000
66.9400 747.0000 1.0000
66.9500 761.0000 1.0000
66.9600 751.0000 1.0000
66.9700 686.0000 1.0000
66.9800 724.0000 1.0000
66.9900 732.0000 1.0000
67.0000 684.0000 1.0000
67.0100 695.0000 1.0000
67.0200 673.0000 1.0000
67.0300 691.0000 1.0000
67.0400 684.0000 1.0000
67.0500 667.0000 1.0000
67.0600 689.0000 1.0000
67.0700 721.0000 1.0000
67.0800 712.0000 1.0000
67.0900 688.0000 1.0000
67.1000 719.0000 1.0000
67.1100 674.0000 1.0000
67.1200 686.0000 1.0000
67.1300 673.0000 1.0000
67.1400 625.0000 1.0000
67.1500 680.0000 1.0000
67.1600 628.0000 1.0000
67.1700 689.0000 1.0000
67.1800 653.0000 1.0000
67.1900 638.0000 1.0000
67.2000 646.0000 1.0000
67.2100 608.0000 1.0000
67.2200 675.0000 1.0000
67.2300 681.0000 1.0000
67.2400 643.0000 1.0000
67.2500 719.0000 1.0000
67.2600 643.0000 1.0000
67.2700 664.0000 1.0000
67.2800 642.0000 1.0000
67.2900 646.0000 1.0000
67.3000 640.0000 1.0000
67.3100 647.0000 1.0000
67.3200 683.0000 1.0000
67.3300 655.0000 1.0000
67.3400 630.0000 1.0000
67.3500 659.0000 1.0000
67.3600 633.0000 1.0000
67.3700 599.0000 1.0000
67.3800 646.0000 1.0000
67.3900 622.0000 1.0000
67.4000 600.0000 1.0000
67.4100 610.0000 1.0000
67.4200 606.0000 1.0000
67.4300 602.0000 1.0000
67.4400 637.0000 1.0000
67.4500 649.0000 1.0000
67.4600 674.0000 1.0000
67.4700 655.0000 1.0000
67.4800 640.0000 1.0000
67.4900 634.0000 1.0000
67.5000 608.0000 1.0000
67.5100 599.0000 1.0000
67.5200 657.0000 1.0000
67.5300 700.0000 1.0000
67.5400 660.0000 1.0000
67.5500 626.0000 1.0000
67.5600 657.0000 1.0000
67.5700 667.0000 1.0000
67.5800 651.0000 1.0000
67.5900 664.0000 1.0000
67.6000 663.0000 1.0000
67.6100 662.0000 1.0000
67.6200 647.0000 1.0000
67.6300 633.0000 1.0000
67.6400 599.0000 1.0000
67.6500 638.0000 1.0000
67.6600 656.0000 1.0000
67.6700 634.0000 1.0000
67.6800 587.0000 1.0000
67.6900 615.0000 1.0000
67.7000 576.0000 1.0000
67.7100 615.0000 1.0000
67.7200 648.0000 1.0000
67.7300 606.0000 1.0000
67.7400 620.0000 1.0000
67.7500 610.0000 1.0000
67.7600 622.0000 1.0000
67.7700 686.0000 1.0000
67.7800 646.0000 1.0000
67.7900 613.0000 1.0000
67.8000 601.0000 1.0000
67.8100 607.0000 1.0000
67.8200 622.0000 1.0000
67.8300 626.0000 1.0000
67.8400 634.0000 1.0000
67.8500 642.0000 1.0000
67.8600 647.0000 1.0000
67.8700 604.0000 1.0000
67.8800 615.0000 1.0000
67.8900 582.0000 1.0000
67.9000 616.0000 1.0000
67.9100 621.0000 1.0000
67.9200 628.0000 1.0000
67.9300 633.0000 1.0000
67.9400 636.0000 1.0000
67.9500 626.0000 1.0000
67.9600 621.0000 1.0000
67.9700 599.0000 1.0000
67.9800 634.0000 1.0000
67.9900 633.0000 1.0000
68.0000 623.0000 1.0000
68.0100 625.0000 1.0000
68.0200 630.0000 1.0000
68.0300 638.0000 1.0000
68.0400 585.0000 1.0000
68.0500 585.0000 1.0000
68.0600 637.0000 1.0000
68.0700 606.0000 1.0000
68.0800 598.0000 1.0000
68.0900 617.0000 1.0000
68.1000 642.0000 1.0000
68.1100 621.0000 1.0000
68.1200 623.0000 1.0000
68.1300 631.0000 1.0000
68.1400 624.0000 1.0000
68.1500 628.0000 1.0000
68.1600 632.0000 1.0000
68.1700 633.0000 1.0000
68.1800 617.0000 1.0000
68.1900 646.0000 1.0000
68.2000 628.0000 1.0000
68.2100 638.0000 1.0000
68.2200 630.0000 1.0000
68.2300 599.0000 1.0000
68.2400 586.0000 1.0000
68.2500 625.0000 1.0000
68.2600 601.0000 1.0000
68.2700 605.0000 1.0000
68.2800 604.0000 1.0000
68.2900 597.0000 1.0000
68.3000 610.0000 1.0000
68.3100 613.0000 1.0000
68.3200 615.0000 1.0000
68.3300 570.0000 1.0000
68.3400 613.0000 1.0000
68.3500 589.0000 1.0000
68.3600 598.0000 1.0000
68.3700 601.0000 1.0000
68.3800 611.0000 1.0000
68.3900 591.0000 1.0000
68.4000 600.0000 1.0000
68.4100 621.0000 1.0000
68.4200 590.0000 1.0000
68.4300 629.0000 1.0000
68.4400 545.0000 1.0000
68.4500 594.0000 1.0000
68.4600 620.0000 1.0000
68.4700 617.0000 1.0000
68.4800 590.0000 1.0000
68.4900 603.0000 1.0000
68.5000 598.0000 1.0000
68.5100 615.0000 1.0000
68.5200 602.0000 1.0000
68.5300 602.0000 1.0000
68.5400 607.0000 1.0000
68.5500 640.0000 1.0000
68.5600 622.0000 1.0000
68.5700 579.0000 1.0000
68.5800 618.0000 1.0000
68.5900 618.0000 1.0000
68.6000 585.0000 1.0000
68.6100 583.0000 1.0000
68.6200 623.0000 1.0000
68.6300 614.0000 1.0000
68.6400 600.0000 1.0000
68.6500 600.0000 1.0000
68.6600 581.0000 1.0000
68.6700 573.0000 1.0000
68.6800 578.0000 1.0000
68.6900 586.0000 1.0000
68.7000 575.0000 1.0000
68.7100 584.0000 1.0000
68.7200 580.0000 1.0000
68.7300 648.0000 1.0000
68.7400 607.0000 1.0000
68.7500 599.0000 1.0000
68.7600 612.0000 1.0000
68.7700 583.0000 1.0000
68.7800 615.0000 1.0000
68.7900 565.0000 1.0000
68.8000 595.0000 1.0000
68.8100 582.0000 1.0000
68.8200 575.0000 1.0000
68.8300 621.0000 1.0000
68.8400 594.0000 1.0000
68.8500 571.0000 1.0000
68.8600 599.0000 1.0000
68.8700 600.0000 1.0000
68.8800 640.0000 1.0000
68.8900 633.0000 1.0000
68.9000 579.0000 1.0000
68.9100 575.0000 1.0000
68.9200 596.0000 1.0000
68.9300 608.0000 1.0000
68.9400 614.0000 1.0000
68.9500 596.0000 1.0000
68.9600 536.0000 1.0000
68.9700 569.0000 1.0000
68.9800 590.0000 1.0000
68.9900 608.0000 1.0000
69.0000 593.0000 1.0000
69.0100 618.0000 1.0000
69.0200 590.0000 1.0000
69.0300 575.0000 1.0000
69.0400 575.0000 1.0000
69.0500 593.0000 1.0000
69.0600 584.0000 1.0000
69.0700 614.0000 1.0000
69.0800 634.0000 1.0000
69.0900 605.0000 1.0000
69.1000 599.0000 1.0000
69.1100 595.0000 1.0000
69.1200 551.0000 1.0000
69.1300 610.0000 1.0000
69.1400 594.0000 1.0000
69.1500 616.0000 1.0000
69.1600 628.0000 1.0000
69.1700 614.0000 1.0000
69.1800 568.0000 1.0000
69.1900 587.0000 1.0000
69.2000 626.0000 1.0000
69.2100 583.0000 1.0000
69.2200 552.0000 1.0000
69.2300 618.0000 1.0000
69.2400 593.0000 1.0000
69.2500 591.0000 1.0000
69.2600 590.0000 1.0000
69.2700 620.0000 1.0000
69.2800 620.0000 1.0000
69.2900 602.0000 1.0000
69.3000 594.0000 1.0000
69.3100 651.0000 1.0000
69.3200 620.0000 1.0000
69.3300 589.0000 1.0000
69.3400 616.0000 1.0000
69.3500 604.0000 1.0000
69.3600 635.0000 1.0000
69.3700 584.0000 1.0000
69.3800 569.0000 1.0000
69.3900 608.0000 1.0000
69.4000 644.0000 1.0000
69.4100 613.0000 1.0000
69.4200 605.0000 1.0000
69.4300 585.0000 1.0000
69.4400 627.0000 1.0000
69.4500 618.0000 1.0000
69.4600 618.0000 1.0000
69.4700 585.0000 1.0000
69.4800 604.0000 1.0000
69.4900 594.0000 1.0000
69.5000 612.0000 1.0000
69.5100 582.0000 1.0000
69.5200 612.0000 1.0000
69.5300 585.0000 1.0000
69.5400 649.0000 1.0000
69.5500 638.0000 1.0000
69.5600 626.0000 1.0000
69.5700 609.0000 1.0000
69.5800 633.0000 1.0000
69.5900 632.0000 1.0000
69.6000 587.0000 1.0000
69.6100 596.0000 1.0000
69.6200 605.0000 1.0000
69.6300 608.0000 1.0000
69.6400 573.0000 1.0000
69.6500 569.0000 1.0000
69.6600 627.0000 1.0000
69.6700 613.0000 1.0000
69.6800 603.0000 1.0000
69.6900 631.0000 1.0000
69.7000 636.0000 1.0000
69.7100 605.0000 1.0000
69.7200 627.0000 1.0000
69.7300 592.0000 1.0000
69.7400 595.0000 1.0000
69.7500 563.0000 1.0000
69.7600 563.0000 1.0000
69.7700 581.0000 1.0000
69.7800 566.0000 1.0000
69.7900 610.0000 1.0000
69.8000 602.0000 1.0000
69.8100 592.0000 1.0000
69.8200 590.0000 1.0000
69.8300 609.0000 1.0000
69.8400 659.0000 1.0000
69.8500 599.0000 1.0000
69.8600 594.0000 1.0000
69.8700 584.0000 1.0000
69.8800 585.0000 1.0000
69.8900 583.0000 1.0000
69.9000 649.0000 1.0000
69.9100 561.0000 1.0000
69.9200 577.0000 1.0000
69.9300 599.0000 1.0000
69.9400 633.0000 1.0000
69.9500 566.0000 1.0000
69.9600 547.0000 1.0000
69.9700 533.0000 1.0000
69.9800 591.0000 1.0000
69.9900 586.0000 1.0000
70.0000 609.0000 1.0000
*RAS_INT_END
*RAS_TEMPERATURE_START
*RAS_TEMPERATURE_END
*RAS_DATA_END
