*RAS_DATA_START
*RAS_HEADER_START
*DISP_FMT_X "%.2f"
*DISP_FMT_Y "%.0f"
*DISP_FULLSCALE "17585.0000000000"
*DISP_LINE_COLOR "255.0000000000"
*DISP_LINE_STYLE "0.0000000000"
*DISP_LINE_WIDTH "0.2500000000"
*DISP_NOTE "測定データ-5"
*DISP_OFFSET_Y "0.0000000000"
*DISP_PEAKSEARCH_UNIT_Y "cps"
*DISP_RANGE_BOTTOM "0.0000000000"
*DISP_RANGE_LEFT "20.0000000000"
*DISP_RANGE_LOGCUTOFF "0.0100000000"
*DISP_RANGE_RIGHT "70.0000000000"
*DISP_RANGE_TOP "17585.0000000000"
*DISP_SCALE_MODE_Y "0.0000000000"
*DISP_TAB_NAME "2θ/θ"
*DISP_TITLE_Y "強度"
*DISP_UNIT_Y "cps"
*DISP_WINDOW_NAME "MSG_MACROENGINE"
*FILE_COMMENT " "
*FILE_MD5 ""
*FILE_MEMO " "
*FILE_OPERATOR "Administrator"
*FILE_SAMPLE " "
*FILE_TYPE "RAS_RAW"
*FILE_USERGROUP "システムマネージャ"
*FILE_VERSION "1.0000000000"
*HW_ATTACHMENT_ID "ATT0025"
*HW_ATTACHMENT_NAME "標準|Standard"
*HW_COUNTER_ID-0 "CUT0025"
*HW_COUNTER_ID-1 "CUT0020"
*HW_COUNTER_ID-2 "CUT0020"
*HW_COUNTER_ID-3 "CSL0021"
*HW_COUNTER_ID-4 "CMC0021"
*HW_COUNTER_NAME-0 "D/teX Ultra|D/teX Ultra"
*HW_COUNTER_NAME-1 "None|None"
*HW_COUNTER_NAME-2 "None|None"
*HW_COUNTER_NAME-3 "BBM|BBM"
*HW_COUNTER_NAME-4 "検出器モノクロメータ|Detector monochromator"
*HW_COUNTER_SELECT_NAME "D/teX Ultra|D/teX Ultra"
*HW_GONIOMETER_ID "GON0023"
*HW_GONIOMETER_NAME "SmartLab|SmartLab"
*HW_GONIOMETER_RADIUS-0 "90.0"
*HW_GONIOMETER_RADIUS-1 "114.0"
*HW_GONIOMETER_RADIUS-2 "190.0"
*HW_GONIOMETER_RADIUS-3 "300.0"
*HW_GONIOMETER_RADIUS-4 "187.0"
*HW_GONIOMETER_RADIUS-5 "300.0"
*HW_GONIOMETER_RADIUS-6 "113.0"
*HW_GONIOMETER_RADIUS-7 "331.0"
*HW_I_OPT_ID-0 "CBO0021"
*HW_I_OPT_ID-1 "ICR0023"
*HW_I_OPT_ID-2 "ISL0021"
*HW_I_OPT_ID-3 "ISO0021"
*HW_I_OPT_ID-4 "IAD0021"
*HW_I_OPT_ID-5 "IPR0001"
*HW_I_OPT_NAME-0 "CBOユニット|CBO unit"
*HW_I_OPT_NAME-1 "標準入射光学ユニット|Standard incident optical unit"
*HW_I_OPT_NAME-2 "標準入射スリットボックス|Standard incident slit box"
*HW_I_OPT_NAME-3 "入射平行スリット|Incident parallel slit"
*HW_I_OPT_NAME-4 "長手制限スリット|Length limiting slit"
*HW_I_OPT_NAME-5 "None|None"
*HW_R_ATTENUATER_AUTOMODE "0"
*HW_R_OPT_ID-0 "RSS0021"
*HW_R_OPT_ID-1 "RCR0023"
*HW_R_OPT_ID-2 "RSO0021"
*HW_R_OPT_ID-3 "RRS0021"
*HW_R_OPT_ID-4 "ATN0021"
*HW_R_OPT_ID-5 "RFL0021"
*HW_R_OPT_ID-6 "RAD0021"
*HW_R_OPT_NAME-0 "標準受光スリットボックス1|Standard receiving slit box # 1"
*HW_R_OPT_NAME-1 "標準受光光学ユニット1|Standard receiving unit # 1"
*HW_R_OPT_NAME-2 "標準受光光学ユニット2|Standard receiving optical unit # 2"
*HW_R_OPT_NAME-3 "標準受光スリットボックス2|Standard receiving slit box # 2"
*HW_R_OPT_NAME-4 "標準アッテネータ|Standard Attenuator"
*HW_R_OPT_NAME-5 "Cu Kβ|Cu K-beta"
*HW_R_OPT_NAME-6 "調整用受光スリット|Alignment receiving slit"
*HW_SAMPLE_HOLDER_ID "SMP0023"
*HW_SAMPLE_HOLDER_NAME "標準Zステージ|Standard Z stage"
*HW_XG_CURRENT_MAX "50"
*HW_XG_CURRENT_MIN "2"
*HW_XG_CURRENT_RESOLUTION "1"
*HW_XG_CURRENT_UNIT "mA"
*HW_XG_FOCUS "1mm x 10mm"
*HW_XG_FOCUS_TYPE "Normal"
*HW_XG_ID ""
*HW_XG_NAME "3kW 封入管(ID:1200)|3kW Sealed tube(ID:1200)"
*HW_XG_TARGET_ATOMIC_NUMBER "29.0000000000"
*HW_XG_TARGET_NAME "Cu"
*HW_XG_TYPE "Hermetic"
*HW_XG_VOLTAGE_MAX "60"
*HW_XG_VOLTAGE_MIN "20"
*HW_XG_VOLTAGE_RESOLUTION "1"
*HW_XG_VOLTAGE_UNIT "kV"
*HW_XG_WATT_MAX "1.500"
*HW_XG_WATT_UNIT "kW"
*HW_XG_WAVE_LENGTH_ALPHA1 "1.540593"
*HW_XG_WAVE_LENGTH_ALPHA2 "1.544414"
*HW_XG_WAVE_LENGTH_BETA "1.392250"
*MEAS_COND_AXIS_NAME-0 "2θ/θ"
*MEAS_COND_AXIS_NAME-1 "2θ"
*MEAS_COND_AXIS_NAME-2 "ω"
*MEAS_COND_AXIS_NAME-3 "Z"
*MEAS_COND_AXIS_NAME-4 "2θ/ω"
*MEAS_COND_AXIS_NAME-5 "θs"
*MEAS_COND_AXIS_NAME-6 "θd"
*MEAS_COND_AXIS_NAME-7 "Ts"
*MEAS_COND_AXIS_NAME-8 "CBO選択スリット"
*MEAS_COND_AXIS_NAME-9 "M"
*MEAS_COND_AXIS_NAME-10 "入射平行スリット"
*MEAS_COND_AXIS_NAME-11 "入射スリット"
*MEAS_COND_AXIS_NAME-12 ""
*MEAS_COND_AXIS_NAME-13 "Zs"
*MEAS_COND_AXIS_NAME-14 "入射光学素子"
*MEAS_COND_AXIS_NAME-15 "長手制限スリット"
*MEAS_COND_AXIS_NAME-16 "センタースリット"
*MEAS_COND_AXIS_NAME-17 "フィルター"
*MEAS_COND_AXIS_NAME-18 "受光スリット1"
*MEAS_COND_AXIS_NAME-19 "受光スリット2"
*MEAS_COND_AXIS_NAME-20 "受光光学素子"
*MEAS_COND_AXIS_NAME-21 "受光平行スリット"
*MEAS_COND_AXIS_NAME-22 "調整用受光スリット"
*MEAS_COND_AXIS_NAME-23 ""
*MEAS_COND_AXIS_NAME-24 ""
*MEAS_COND_AXIS_NAME-25 "Zd"
*MEAS_COND_AXIS_NAME-26 "アッテネータ"
*MEAS_COND_AXIS_NAME-27 "検出器モノクロメータ"
*MEAS_COND_AXIS_NAME-28 "モノクロメータスリット"
*MEAS_COND_AXIS_NAME-29 "プライマリビーム"
*MEAS_COND_AXIS_NAME-30 "PHA"
*MEAS_COND_AXIS_NAME_INTERNAL-0 "TwoThetaTheta"
*MEAS_COND_AXIS_NAME_INTERNAL-1 "TwoTheta"
*MEAS_COND_AXIS_NAME_INTERNAL-2 "Omega"
*MEAS_COND_AXIS_NAME_INTERNAL-3 "Z"
*MEAS_COND_AXIS_NAME_INTERNAL-4 "TwoThetaOmega"
*MEAS_COND_AXIS_NAME_INTERNAL-5 "ThetaS"
*MEAS_COND_AXIS_NAME_INTERNAL-6 "ThetaD"
*MEAS_COND_AXIS_NAME_INTERNAL-7 "Ts"
*MEAS_COND_AXIS_NAME_INTERNAL-8 "CBO"
*MEAS_COND_AXIS_NAME_INTERNAL-9 "CBO-M"
*MEAS_COND_AXIS_NAME_INTERNAL-10 "IncidentSollerSlit"
*MEAS_COND_AXIS_NAME_INTERNAL-11 "IncidentSlitBox"
*MEAS_COND_AXIS_NAME_INTERNAL-12 "IncidentSlitBox-_Axis"
*MEAS_COND_AXIS_NAME_INTERNAL-13 "Zs"
*MEAS_COND_AXIS_NAME_INTERNAL-14 "IncidentMonochromator"
*MEAS_COND_AXIS_NAME_INTERNAL-15 "IncidentAxdSlit"
*MEAS_COND_AXIS_NAME_INTERNAL-16 "CenterSlit"
*MEAS_COND_AXIS_NAME_INTERNAL-17 "Filter"
*MEAS_COND_AXIS_NAME_INTERNAL-18 "ReceivingSlitBox1"
*MEAS_COND_AXIS_NAME_INTERNAL-19 "ReceivingSlitBox2"
*MEAS_COND_AXIS_NAME_INTERNAL-20 "ReceivingOptics"
*MEAS_COND_AXIS_NAME_INTERNAL-21 "ReceivingSollerSlit"
*MEAS_COND_AXIS_NAME_INTERNAL-22 "ReceivingAxdSlit"
*MEAS_COND_AXIS_NAME_INTERNAL-23 "ReceivingSlitBox1-_Axis"
*MEAS_COND_AXIS_NAME_INTERNAL-24 "ReceivingSlitBox2-_Axis"
*MEAS_COND_AXIS_NAME_INTERNAL-25 "ReceivingSlitBox2-Zd"
*MEAS_COND_AXIS_NAME_INTERNAL-26 "Attenuator"
*MEAS_COND_AXIS_NAME_INTERNAL-27 "CounterMonochromator"
*MEAS_COND_AXIS_NAME_INTERNAL-28 "CounterSlit"
*MEAS_COND_AXIS_NAME_INTERNAL-29 "IncidentPrimary"
*MEAS_COND_AXIS_NAME_INTERNAL-30 "PHA"
*MEAS_COND_AXIS_NAME_MAGICNO-0 "83951616.0000000000"
*MEAS_COND_AXIS_NAME_MAGICNO-1 "268632064.0000000000"
*MEAS_COND_AXIS_NAME_MAGICNO-2 "268500992.0000000000"
*MEAS_COND_AXIS_NAME_MAGICNO-3 "285278208.0000000000"
*MEAS_COND_AXIS_NAME_MAGICNO-4 "83951616.0000000000"
*MEAS_COND_AXIS_NAME_MAGICNO-5 "131072.0000000000"
*MEAS_COND_AXIS_NAME_MAGICNO-6 "131072.0000000000"
*MEAS_COND_AXIS_NAME_MAGICNO-7 "318898176.0000000000"
*MEAS_COND_AXIS_NAME_MAGICNO-8 "20971521.0000000000"
*MEAS_COND_AXIS_NAME_MAGICNO-9 "285343744.0000000000"
*MEAS_COND_AXIS_NAME_MAGICNO-10 "20971521.0000000000"
*MEAS_COND_AXIS_NAME_MAGICNO-11 "22020097.0000000000"
*MEAS_COND_AXIS_NAME_MAGICNO-12 "25165824.0000000000"
*MEAS_COND_AXIS_NAME_MAGICNO-13 "318898176.0000000000"
*MEAS_COND_AXIS_NAME_MAGICNO-14 "1.0000000000"
*MEAS_COND_AXIS_NAME_MAGICNO-15 "20971521.0000000000"
*MEAS_COND_AXIS_NAME_MAGICNO-16 "20971521.0000000000"
*MEAS_COND_AXIS_NAME_MAGICNO-17 "20971521.0000000000"
*MEAS_COND_AXIS_NAME_MAGICNO-18 "23068673.0000000000"
*MEAS_COND_AXIS_NAME_MAGICNO-19 "23068673.0000000000"
*MEAS_COND_AXIS_NAME_MAGICNO-20 "20971521.0000000000"
*MEAS_COND_AXIS_NAME_MAGICNO-21 "20971521.0000000000"
*MEAS_COND_AXIS_NAME_MAGICNO-22 "20971521.0000000000"
*MEAS_COND_AXIS_NAME_MAGICNO-23 "25165824.0000000000"
*MEAS_COND_AXIS_NAME_MAGICNO-24 "25165824.0000000000"
*MEAS_COND_AXIS_NAME_MAGICNO-25 "285343744.0000000000"
*MEAS_COND_AXIS_NAME_MAGICNO-26 "17301505.0000000000"
*MEAS_COND_AXIS_NAME_MAGICNO-27 "20971521.0000000000"
*MEAS_COND_AXIS_NAME_MAGICNO-28 "20971521.0000000000"
*MEAS_COND_AXIS_NAME_MAGICNO-29 "20971521.0000000000"
*MEAS_COND_AXIS_NAME_MAGICNO-30 "0.0000000000"
*MEAS_COND_AXIS_OFFSET-0 "-"
*MEAS_COND_AXIS_OFFSET-1 "-0.0801000000"
*MEAS_COND_AXIS_OFFSET-2 "0.1646000000"
*MEAS_COND_AXIS_OFFSET-3 "-"
*MEAS_COND_AXIS_OFFSET-4 "-"
*MEAS_COND_AXIS_OFFSET-5 "0.1646000000"
*MEAS_COND_AXIS_OFFSET-6 "-0.2447000000"
*MEAS_COND_AXIS_OFFSET-7 "-"
*MEAS_COND_AXIS_OFFSET-8 "-"
*MEAS_COND_AXIS_OFFSET-9 "-"
*MEAS_COND_AXIS_OFFSET-10 "-"
*MEAS_COND_AXIS_OFFSET-11 "-"
*MEAS_COND_AXIS_OFFSET-12 "-"
*MEAS_COND_AXIS_OFFSET-13 "-"
*MEAS_COND_AXIS_OFFSET-14 "-"
*MEAS_COND_AXIS_OFFSET-15 "-"
*MEAS_COND_AXIS_OFFSET-16 "-"
*MEAS_COND_AXIS_OFFSET-17 "-"
*MEAS_COND_AXIS_OFFSET-18 "-"
*MEAS_COND_AXIS_OFFSET-19 "-"
*MEAS_COND_AXIS_OFFSET-20 "-"
*MEAS_COND_AXIS_OFFSET-21 "-"
*MEAS_COND_AXIS_OFFSET-22 "-"
*MEAS_COND_AXIS_OFFSET-23 "-"
*MEAS_COND_AXIS_OFFSET-24 "-"
*MEAS_COND_AXIS_OFFSET-25 "-"
*MEAS_COND_AXIS_OFFSET-26 "-"
*MEAS_COND_AXIS_OFFSET-27 "-"
*MEAS_COND_AXIS_OFFSET-28 "-"
*MEAS_COND_AXIS_OFFSET-29 "-"
*MEAS_COND_AXIS_OFFSET-30 "-"
*MEAS_COND_AXIS_POSITION-0 "0.0000000000"
*MEAS_COND_AXIS_POSITION-1 "0.0000000000"
*MEAS_COND_AXIS_POSITION-2 "0.0000000000"
*MEAS_COND_AXIS_POSITION-3 "-2.9256400000"
*MEAS_COND_AXIS_POSITION-4 "0.0000000000"
*MEAS_COND_AXIS_POSITION-5 "0.0000000000"
*MEAS_COND_AXIS_POSITION-6 "0.0000000000"
*MEAS_COND_AXIS_POSITION-7 "-0.4278800000"
*MEAS_COND_AXIS_POSITION-8 "BB"
*MEAS_COND_AXIS_POSITION-9 "0.0000000000"
*MEAS_COND_AXIS_POSITION-10 "Soller_slit_5.0deg"
*MEAS_COND_AXIS_POSITION-11 "2/3deg"
*MEAS_COND_AXIS_POSITION-12 "2.2088000000"
*MEAS_COND_AXIS_POSITION-13 "-1.0609400000"
*MEAS_COND_AXIS_POSITION-14 "0.0000000000"
*MEAS_COND_AXIS_POSITION-15 "10.0mm"
*MEAS_COND_AXIS_POSITION-16 "None"
*MEAS_COND_AXIS_POSITION-17 "Cu_K-beta"
*MEAS_COND_AXIS_POSITION-18 "13.000mm"
*MEAS_COND_AXIS_POSITION-19 "13.000mm"
*MEAS_COND_AXIS_POSITION-20 "No_unit"
*MEAS_COND_AXIS_POSITION-21 "Soller_slit_5.0deg"
*MEAS_COND_AXIS_POSITION-22 "None"
*MEAS_COND_AXIS_POSITION-23 "13.0000000000"
*MEAS_COND_AXIS_POSITION-24 "13.0000000000"
*MEAS_COND_AXIS_POSITION-25 "0.0081300000"
*MEAS_COND_AXIS_POSITION-26 "Open"
*MEAS_COND_AXIS_POSITION-27 "None"
*MEAS_COND_AXIS_POSITION-28 "None"
*MEAS_COND_AXIS_POSITION-29 "None"
*MEAS_COND_AXIS_POSITION-30 "38.0000000000"
*MEAS_COND_AXIS_UNIT-0 "deg"
*MEAS_COND_AXIS_UNIT-1 "deg"
*MEAS_COND_AXIS_UNIT-2 "deg"
*MEAS_COND_AXIS_UNIT-3 "mm"
*MEAS_COND_AXIS_UNIT-4 "deg"
*MEAS_COND_AXIS_UNIT-5 "deg"
*MEAS_COND_AXIS_UNIT-6 "deg"
*MEAS_COND_AXIS_UNIT-7 "mm"
*MEAS_COND_AXIS_UNIT-8 ""
*MEAS_COND_AXIS_UNIT-9 "pulse"
*MEAS_COND_AXIS_UNIT-10 ""
*MEAS_COND_AXIS_UNIT-11 ""
*MEAS_COND_AXIS_UNIT-12 "mm"
*MEAS_COND_AXIS_UNIT-13 "mm"
*MEAS_COND_AXIS_UNIT-14 ""
*MEAS_COND_AXIS_UNIT-15 ""
*MEAS_COND_AXIS_UNIT-16 ""
*MEAS_COND_AXIS_UNIT-17 ""
*MEAS_COND_AXIS_UNIT-18 ""
*MEAS_COND_AXIS_UNIT-19 ""
*MEAS_COND_AXIS_UNIT-20 ""
*MEAS_COND_AXIS_UNIT-21 ""
*MEAS_COND_AXIS_UNIT-22 ""
*MEAS_COND_AXIS_UNIT-23 "mm"
*MEAS_COND_AXIS_UNIT-24 "mm"
*MEAS_COND_AXIS_UNIT-25 "mm"
*MEAS_COND_AXIS_UNIT-26 ""
*MEAS_COND_AXIS_UNIT-27 ""
*MEAS_COND_AXIS_UNIT-28 ""
*MEAS_COND_AXIS_UNIT-29 ""
*MEAS_COND_AXIS_UNIT-30 "div"
*MEAS_COND_COUNTER_CNTLOSS_CORR "0.0000000000"
*MEAS_COND_COUNTER_PHABASE "38.0000000000"
*MEAS_COND_COUNTER_PHAWINDOW "16.0000000000"
*MEAS_COND_COUNTER_PHA_UNIT "div"
*MEAS_COND_COUNTER_TAUDIFF "30.0000000000"
*MEAS_COND_COUNTER_TAUINT "0.0000000000"
*MEAS_COND_IRRADIATION_MODE "OFF"
*MEAS_COND_IRRADIATION_WIDTH ""
*MEAS_COND_OPT_ATTR "集中法"
*MEAS_COND_OPT_NAME "@集中法"
*MEAS_COND_UNSYMMETRIC_MODE "OFF"
*MEAS_COND_XG_CURRENT "30.0000000000"
*MEAS_COND_XG_VOLTAGE "40.0000000000"
*MEAS_COND_XG_WAVE_TYPE "Ka"
*MEAS_DATA_COUNT "5001.0000000000"
*MEAS_SCAN_AXIS_X "2θ/θ"
*MEAS_SCAN_AXIS_X_INTERNAL "TwoThetaTheta"
*MEAS_SCAN_END_TIME "07/09/22 14:36:01"
*MEAS_SCAN_MODE "CONTINUOUS"
*MEAS_SCAN_MONITOR "0"
*MEAS_SCAN_RESOLUTION_X "0.0002"
*MEAS_SCAN_SPEED "2.5"
*MEAS_SCAN_SPEED_UNIT "deg/min"
*MEAS_SCAN_START "20.0000000000"
*MEAS_SCAN_START_TIME "07/09/22 14:14:37"
*MEAS_SCAN_STEP "0.0100000000"
*MEAS_SCAN_STOP "70.0000000000"
*MEAS_SCAN_UNIT_X "deg"
*MEAS_SCAN_UNIT_Y "counts"
*RAS_HEADER_END
*RAS_INT_START
20.0000 1071.0000 1.0000
20.0100 1027.0000 1.0000
20.0200 1053.0000 1.0000
20.0300 1017.0000 1.0000
20.0400 1003.0000 1.0000
20.0500 1042.0000 1.0000
20.0600 1016.0000 1.0000
20.0700 1029.0000 1.0000
20.0800 969.0000 1.0000
20.0900 1042.0000 1.0000
20.1000 994.0000 1.0000
20.1100 1024.0000 1.0000
20.1200 1015.0000 1.0000
20.1300 1022.0000 1.0000
20.1400 1028.0000 1.0000
20.1500 985.0000 1.0000
20.1600 990.0000 1.0000
20.1700 967.0000 1.0000
20.1800 998.0000 1.0000
20.1900 1012.0000 1.0000
20.2000 953.0000 1.0000
20.2100 969.0000 1.0000
20.2200 990.0000 1.0000
20.2300 1013.0000 1.0000
20.2400 981.0000 1.0000
20.2500 1028.0000 1.0000
20.2600 1038.0000 1.0000
20.2700 983.0000 1.0000
20.2800 995.0000 1.0000
20.2900 979.0000 1.0000
20.3000 993.0000 1.0000
20.3100 1015.0000 1.0000
20.3200 1041.0000 1.0000
20.3300 1025.0000 1.0000
20.3400 1033.0000 1.0000
20.3500 991.0000 1.0000
20.3600 1060.0000 1.0000
20.3700 1012.0000 1.0000
20.3800 997.0000 1.0000
20.3900 999.0000 1.0000
20.4000 1015.0000 1.0000
20.4100 1005.0000 1.0000
20.4200 973.0000 1.0000
20.4300 997.0000 1.0000
20.4400 976.0000 1.0000
20.4500 980.0000 1.0000
20.4600 1029.0000 1.0000
20.4700 1042.0000 1.0000
20.4800 1035.0000 1.0000
20.4900 992.0000 1.0000
20.5000 1004.0000 1.0000
20.5100 1011.0000 1.0000
20.5200 1028.0000 1.0000
20.5300 1004.0000 1.0000
20.5400 997.0000 1.0000
20.5500 1051.0000 1.0000
20.5600 1006.0000 1.0000
20.5700 1006.0000 1.0000
20.5800 996.0000 1.0000
20.5900 1030.0000 1.0000
20.6000 1027.0000 1.0000
20.6100 991.0000 1.0000
20.6200 1023.0000 1.0000
20.6300 1015.0000 1.0000
20.6400 993.0000 1.0000
20.6500 997.0000 1.0000
20.6600 1041.0000 1.0000
20.6700 980.0000 1.0000
20.6800 1002.0000 1.0000
20.6900 966.0000 1.0000
20.7000 1005.0000 1.0000
20.7100 1007.0000 1.0000
20.7200 1016.0000 1.0000
20.7300 1011.0000 1.0000
20.7400 1022.0000 1.0000
20.7500 1020.0000 1.0000
20.7600 996.0000 1.0000
20.7700 1012.0000 1.0000
20.7800 997.0000 1.0000
20.7900 1045.0000 1.0000
20.8000 1000.0000 1.0000
20.8100 982.0000 1.0000
20.8200 961.0000 1.0000
20.8300 1008.0000 1.0000
20.8400 1019.0000 1.0000
20.8500 992.0000 1.0000
20.8600 1058.0000 1.0000
20.8700 1052.0000 1.0000
20.8800 1047.0000 1.0000
20.8900 981.0000 1.0000
20.9000 984.0000 1.0000
20.9100 1028.0000 1.0000
20.9200 993.0000 1.0000
20.9300 993.0000 1.0000
20.9400 1020.0000 1.0000
20.9500 1008.0000 1.0000
20.9600 988.0000 1.0000
20.9700 996.0000 1.0000
20.9800 964.0000 1.0000
20.9900 984.0000 1.0000
21.0000 1055.0000 1.0000
21.0100 1020.0000 1.0000
21.0200 1018.0000 1.0000
21.0300 989.0000 1.0000
21.0400 1010.0000 1.0000
21.0500 972.0000 1.0000
21.0600 996.0000 1.0000
21.0700 1026.0000 1.0000
21.0800 1034.0000 1.0000
21.0900 982.0000 1.0000
21.1000 983.0000 1.0000
21.1100 1034.0000 1.0000
21.1200 968.0000 1.0000
21.1300 1019.0000 1.0000
21.1400 1062.0000 1.0000
21.1500 1048.0000 1.0000
21.1600 973.0000 1.0000
21.1700 1017.0000 1.0000
21.1800 1010.0000 1.0000
21.1900 1025.0000 1.0000
21.2000 1034.0000 1.0000
21.2100 1020.0000 1.0000
21.2200 993.0000 1.0000
21.2300 994.0000 1.0000
21.2400 1054.0000 1.0000
21.2500 982.0000 1.0000
21.2600 994.0000 1.0000
21.2700 998.0000 1.0000
21.2800 946.0000 1.0000
21.2900 1037.0000 1.0000
21.3000 1027.0000 1.0000
21.3100 1000.0000 1.0000
21.3200 987.0000 1.0000
21.3300 979.0000 1.0000
21.3400 985.0000 1.0000
21.3500 1044.0000 1.0000
21.3600 1015.0000 1.0000
21.3700 1055.0000 1.0000
21.3800 983.0000 1.0000
21.3900 1003.0000 1.0000
21.4000 964.0000 1.0000
21.4100 1003.0000 1.0000
21.4200 1032.0000 1.0000
21.4300 963.0000 1.0000
21.4400 1033.0000 1.0000
21.4500 993.0000 1.0000
21.4600 1009.0000 1.0000
21.4700 1012.0000 1.0000
21.4800 982.0000 1.0000
21.4900 997.0000 1.0000
21.5000 1020.0000 1.0000
21.5100 996.0000 1.0000
21.5200 1031.0000 1.0000
21.5300 1007.0000 1.0000
21.5400 1009.0000 1.0000
21.5500 1016.0000 1.0000
21.5600 1046.0000 1.0000
21.5700 984.0000 1.0000
21.5800 949.0000 1.0000
21.5900 1018.0000 1.0000
21.6000 1028.0000 1.0000
21.6100 1037.0000 1.0000
21.6200 1040.0000 1.0000
21.6300 981.0000 1.0000
21.6400 1003.0000 1.0000
21.6500 979.0000 1.0000
21.6600 978.0000 1.0000
21.6700 960.0000 1.0000
21.6800 999.0000 1.0000
21.6900 971.0000 1.0000
21.7000 1000.0000 1.0000
21.7100 1013.0000 1.0000
21.7200 1011.0000 1.0000
21.7300 1039.0000 1.0000
21.7400 1038.0000 1.0000
21.7500 998.0000 1.0000
21.7600 1017.0000 1.0000
21.7700 1001.0000 1.0000
21.7800 1015.0000 1.0000
21.7900 1013.0000 1.0000
21.8000 1000.0000 1.0000
21.8100 989.0000 1.0000
21.8200 1017.0000 1.0000
21.8300 1011.0000 1.0000
21.8400 983.0000 1.0000
21.8500 1034.0000 1.0000
21.8600 982.0000 1.0000
21.8700 981.0000 1.0000
21.8800 1002.0000 1.0000
21.8900 1023.0000 1.0000
21.9000 1002.0000 1.0000
21.9100 949.0000 1.0000
21.9200 1010.0000 1.0000
21.9300 1055.0000 1.0000
21.9400 989.0000 1.0000
21.9500 1001.0000 1.0000
21.9600 1000.0000 1.0000
21.9700 979.0000 1.0000
21.9800 1009.0000 1.0000
21.9900 1029.0000 1.0000
22.0000 1004.0000 1.0000
22.0100 945.0000 1.0000
22.0200 963.0000 1.0000
22.0300 978.0000 1.0000
22.0400 1037.0000 1.0000
22.0500 974.0000 1.0000
22.0600 950.0000 1.0000
22.0700 967.0000 1.0000
22.0800 991.0000 1.0000
22.0900 982.0000 1.0000
22.1000 1004.0000 1.0000
22.1100 997.0000 1.0000
22.1200 985.0000 1.0000
22.1300 967.0000 1.0000
22.1400 992.0000 1.0000
22.1500 1017.0000 1.0000
22.1600 989.0000 1.0000
22.1700 989.0000 1.0000
22.1800 1022.0000 1.0000
22.1900 957.0000 1.0000
22.2000 1013.0000 1.0000
22.2100 994.0000 1.0000
22.2200 996.0000 1.0000
22.2300 1008.0000 1.0000
22.2400 1042.0000 1.0000
22.2500 987.0000 1.0000
22.2600 1008.0000 1.0000
22.2700 1044.0000 1.0000
22.2800 1002.0000 1.0000
22.2900 964.0000 1.0000
22.3000 1027.0000 1.0000
22.3100 1054.0000 1.0000
22.3200 1025.0000 1.0000
22.3300 1024.0000 1.0000
22.3400 994.0000 1.0000
22.3500 1011.0000 1.0000
22.3600 1004.0000 1.0000
22.3700 938.0000 1.0000
22.3800 983.0000 1.0000
22.3900 991.0000 1.0000
22.4000 998.0000 1.0000
22.4100 1045.0000 1.0000
22.4200 1007.0000 1.0000
22.4300 943.0000 1.0000
22.4400 989.0000 1.0000
22.4500 1036.0000 1.0000
22.4600 926.0000 1.0000
22.4700 1001.0000 1.0000
22.4800 1013.0000 1.0000
22.4900 1004.0000 1.0000
22.5000 978.0000 1.0000
22.5100 1019.0000 1.0000
22.5200 1047.0000 1.0000
22.5300 1069.0000 1.0000
22.5400 984.0000 1.0000
22.5500 996.0000 1.0000
22.5600 990.0000 1.0000
22.5700 979.0000 1.0000
22.5800 998.0000 1.0000
22.5900 1023.0000 1.0000
22.6000 1049.0000 1.0000
22.6100 994.0000 1.0000
22.6200 982.0000 1.0000
22.6300 952.0000 1.0000
22.6400 1026.0000 1.0000
22.6500 986.0000 1.0000
22.6600 1032.0000 1.0000
22.6700 976.0000 1.0000
22.6800 1012.0000 1.0000
22.6900 1016.0000 1.0000
22.7000 1002.0000 1.0000
22.7100 996.0000 1.0000
22.7200 989.0000 1.0000
22.7300 975.0000 1.0000
22.7400 1006.0000 1.0000
22.7500 1037.0000 1.0000
22.7600 989.0000 1.0000
22.7700 947.0000 1.0000
22.7800 1020.0000 1.0000
22.7900 990.0000 1.0000
22.8000 944.0000 1.0000
22.8100 1032.0000 1.0000
22.8200 1066.0000 1.0000
22.8300 1024.0000 1.0000
22.8400 990.0000 1.0000
22.8500 1000.0000 1.0000
22.8600 996.0000 1.0000
22.8700 993.0000 1.0000
22.8800 1001.0000 1.0000
22.8900 1006.0000 1.0000
22.9000 970.0000 1.0000
22.9100 983.0000 1.0000
22.9200 1023.0000 1.0000
22.9300 987.0000 1.0000
22.9400 946.0000 1.0000
22.9500 970.0000 1.0000
22.9600 952.0000 1.0000
22.9700 978.0000 1.0000
22.9800 968.0000 1.0000
22.9900 1023.0000 1.0000
23.0000 1028.0000 1.0000
23.0100 1017.0000 1.0000
23.0200 976.0000 1.0000
23.0300 1021.0000 1.0000
23.0400 1038.0000 1.0000
23.0500 1002.0000 1.0000
23.0600 956.0000 1.0000
23.0700 1020.0000 1.0000
23.0800 934.0000 1.0000
23.0900 993.0000 1.0000
23.1000 993.0000 1.0000
23.1100 987.0000 1.0000
23.1200 985.0000 1.0000
23.1300 952.0000 1.0000
23.1400 980.0000 1.0000
23.1500 983.0000 1.0000
23.1600 986.0000 1.0000
23.1700 1003.0000 1.0000
23.1800 1029.0000 1.0000
23.1900 993.0000 1.0000
23.2000 989.0000 1.0000
23.2100 951.0000 1.0000
23.2200 973.0000 1.0000
23.2300 970.0000 1.0000
23.2400 941.0000 1.0000
23.2500 972.0000 1.0000
23.2600 1003.0000 1.0000
23.2700 961.0000 1.0000
23.2800 983.0000 1.0000
23.2900 992.0000 1.0000
23.3000 1011.0000 1.0000
23.3100 979.0000 1.0000
23.3200 1052.0000 1.0000
23.3300 1048.0000 1.0000
23.3400 1033.0000 1.0000
23.3500 979.0000 1.0000
23.3600 962.0000 1.0000
23.3700 973.0000 1.0000
23.3800 999.0000 1.0000
23.3900 1050.0000 1.0000
23.4000 955.0000 1.0000
23.4100 974.0000 1.0000
23.4200 982.0000 1.0000
23.4300 1017.0000 1.0000
23.4400 1009.0000 1.0000
23.4500 960.0000 1.0000
23.4600 957.0000 1.0000
23.4700 999.0000 1.0000
23.4800 989.0000 1.0000
23.4900 945.0000 1.0000
23.5000 998.0000 1.0000
23.5100 959.0000 1.0000
23.5200 975.0000 1.0000
23.5300 974.0000 1.0000
23.5400 1025.0000 1.0000
23.5500 1030.0000 1.0000
23.5600 1020.0000 1.0000
23.5700 1027.0000 1.0000
23.5800 1006.0000 1.0000
23.5900 946.0000 1.0000
23.6000 958.0000 1.0000
23.6100 1061.0000 1.0000
23.6200 964.0000 1.0000
23.6300 1004.0000 1.0000
23.6400 994.0000 1.0000
23.6500 996.0000 1.0000
23.6600 981.0000 1.0000
23.6700 1002.0000 1.0000
23.6800 961.0000 1.0000
23.6900 1000.0000 1.0000
23.7000 996.0000 1.0000
23.7100 984.0000 1.0000
23.7200 1007.0000 1.0000
23.7300 958.0000 1.0000
23.7400 1005.0000 1.0000
23.7500 994.0000 1.0000
23.7600 999.0000 1.0000
23.7700 1008.0000 1.0000
23.7800 1012.0000 1.0000
23.7900 1009.0000 1.0000
23.8000 998.0000 1.0000
23.8100 968.0000 1.0000
23.8200 1000.0000 1.0000
23.8300 996.0000 1.0000
23.8400 1001.0000 1.0000
23.8500 1005.0000 1.0000
23.8600 1025.0000 1.0000
23.8700 1000.0000 1.0000
23.8800 1008.0000 1.0000
23.8900 1036.0000 1.0000
23.9000 1055.0000 1.0000
23.9100 1023.0000 1.0000
23.9200 1023.0000 1.0000
23.9300 1038.0000 1.0000
23.9400 973.0000 1.0000
23.9500 1044.0000 1.0000
23.9600 1021.0000 1.0000
23.9700 993.0000 1.0000
23.9800 1054.0000 1.0000
23.9900 1020.0000 1.0000
24.0000 1089.0000 1.0000
24.0100 994.0000 1.0000
24.0200 1025.0000 1.0000
24.0300 1013.0000 1.0000
24.0400 1068.0000 1.0000
24.0500 1020.0000 1.0000
24.0600 1019.0000 1.0000
24.0700 1041.0000 1.0000
24.0800 1058.0000 1.0000
24.0900 1035.0000 1.0000
24.1000 1017.0000 1.0000
24.1100 1057.0000 1.0000
24.1200 1032.0000 1.0000
24.1300 1104.0000 1.0000
24.1400 1080.0000 1.0000
24.1500 1019.0000 1.0000
24.1600 1068.0000 1.0000
24.1700 1079.0000 1.0000
24.1800 1062.0000 1.0000
24.1900 1042.0000 1.0000
24.2000 1035.0000 1.0000
24.2100 994.0000 1.0000
24.2200 1024.0000 1.0000
24.2300 1036.0000 1.0000
24.2400 1063.0000 1.0000
24.2500 1011.0000 1.0000
24.2600 1036.0000 1.0000
24.2700 997.0000 1.0000
24.2800 1070.0000 1.0000
24.2900 982.0000 1.0000
24.3000 1043.0000 1.0000
24.3100 969.0000 1.0000
24.3200 1003.0000 1.0000
24.3300 1019.0000 1.0000
24.3400 1023.0000 1.0000
24.3500 991.0000 1.0000
24.3600 967.0000 1.0000
24.3700 1049.0000 1.0000
24.3800 1039.0000 1.0000
24.3900 1056.0000 1.0000
24.4000 1007.0000 1.0000
24.4100 974.0000 1.0000
24.4200 1031.0000 1.0000
24.4300 974.0000 1.0000
24.4400 1080.0000 1.0000
24.4500 1009.0000 1.0000
24.4600 927.0000 1.0000
24.4700 990.0000 1.0000
24.4800 1022.0000 1.0000
24.4900 982.0000 1.0000
24.5000 978.0000 1.0000
24.5100 1016.0000 1.0000
24.5200 1044.0000 1.0000
24.5300 1009.0000 1.0000
24.5400 938.0000 1.0000
24.5500 988.0000 1.0000
24.5600 989.0000 1.0000
24.5700 934.0000 1.0000
24.5800 1001.0000 1.0000
24.5900 984.0000 1.0000
24.6000 1001.0000 1.0000
24.6100 1034.0000 1.0000
24.6200 967.0000 1.0000
24.6300 989.0000 1.0000
24.6400 955.0000 1.0000
24.6500 965.0000 1.0000
24.6600 955.0000 1.0000
24.6700 950.0000 1.0000
24.6800 959.0000 1.0000
24.6900 949.0000 1.0000
24.7000 986.0000 1.0000
24.7100 952.0000 1.0000
24.7200 994.0000 1.0000
24.7300 900.0000 1.0000
24.7400 1032.0000 1.0000
24.7500 986.0000 1.0000
24.7600 969.0000 1.0000
24.7700 977.0000 1.0000
24.7800 940.0000 1.0000
24.7900 946.0000 1.0000
24.8000 970.0000 1.0000
24.8100 1021.0000 1.0000
24.8200 1003.0000 1.0000
24.8300 998.0000 1.0000
24.8400 940.0000 1.0000
24.8500 1003.0000 1.0000
24.8600 965.0000 1.0000
24.8700 984.0000 1.0000
24.8800 963.0000 1.0000
24.8900 1018.0000 1.0000
24.9000 975.0000 1.0000
24.9100 959.0000 1.0000
24.9200 980.0000 1.0000
24.9300 993.0000 1.0000
24.9400 961.0000 1.0000
24.9500 921.0000 1.0000
24.9600 978.0000 1.0000
24.9700 990.0000 1.0000
24.9800 985.0000 1.0000
24.9900 928.0000 1.0000
25.0000 1010.0000 1.0000
25.0100 1064.0000 1.0000
25.0200 993.0000 1.0000
25.0300 959.0000 1.0000
25.0400 952.0000 1.0000
25.0500 952.0000 1.0000
25.0600 1016.0000 1.0000
25.0700 1016.0000 1.0000
25.0800 946.0000 1.0000
25.0900 967.0000 1.0000
25.1000 963.0000 1.0000
25.1100 963.0000 1.0000
25.1200 950.0000 1.0000
25.1300 977.0000 1.0000
25.1400 986.0000 1.0000
25.1500 986.0000 1.0000
25.1600 951.0000 1.0000
25.1700 992.0000 1.0000
25.1800 964.0000 1.0000
25.1900 981.0000 1.0000
25.2000 973.0000 1.0000
25.2100 971.0000 1.0000
25.2200 959.0000 1.0000
25.2300 1025.0000 1.0000
25.2400 955.0000 1.0000
25.2500 934.0000 1.0000
25.2600 1011.0000 1.0000
25.2700 1007.0000 1.0000
25.2800 1012.0000 1.0000
25.2900 932.0000 1.0000
25.3000 994.0000 1.0000
25.3100 931.0000 1.0000
25.3200 955.0000 1.0000
25.3300 962.0000 1.0000
25.3400 980.0000 1.0000
25.3500 961.0000 1.0000
25.3600 977.0000 1.0000
25.3700 965.0000 1.0000
25.3800 971.0000 1.0000
25.3900 984.0000 1.0000
25.4000 936.0000 1.0000
25.4100 973.0000 1.0000
25.4200 961.0000 1.0000
25.4300 999.0000 1.0000
25.4400 1005.0000 1.0000
25.4500 913.0000 1.0000
25.4600 957.0000 1.0000
25.4700 989.0000 1.0000
25.4800 994.0000 1.0000
25.4900 1009.0000 1.0000
25.5000 1001.0000 1.0000
25.5100 964.0000 1.0000
25.5200 1020.0000 1.0000
25.5300 981.0000 1.0000
25.5400 1020.0000 1.0000
25.5500 954.0000 1.0000
25.5600 1052.0000 1.0000
25.5700 979.0000 1.0000
25.5800 953.0000 1.0000
25.5900 1023.0000 1.0000
25.6000 1017.0000 1.0000
25.6100 994.0000 1.0000
25.6200 975.0000 1.0000
25.6300 1005.0000 1.0000
25.6400 962.0000 1.0000
25.6500 942.0000 1.0000
25.6600 1041.0000 1.0000
25.6700 1013.0000 1.0000
25.6800 957.0000 1.0000
25.6900 1003.0000 1.0000
25.7000 982.0000 1.0000
25.7100 1026.0000 1.0000
25.7200 961.0000 1.0000
25.7300 1007.0000 1.0000
25.7400 937.0000 1.0000
25.7500 980.0000 1.0000
25.7600 1015.0000 1.0000
25.7700 996.0000 1.0000
25.7800 1008.0000 1.0000
25.7900 1033.0000 1.0000
25.8000 1024.0000 1.0000
25.8100 992.0000 1.0000
25.8200 1053.0000 1.0000
25.8300 992.0000 1.0000
25.8400 999.0000 1.0000
25.8500 969.0000 1.0000
25.8600 1025.0000 1.0000
25.8700 979.0000 1.0000
25.8800 1013.0000 1.0000
25.8900 1027.0000 1.0000
25.9000 989.0000 1.0000
25.9100 1042.0000 1.0000
25.9200 1055.0000 1.0000
25.9300 1013.0000 1.0000
25.9400 1056.0000 1.0000
25.9500 1041.0000 1.0000
25.9600 1017.0000 1.0000
25.9700 1081.0000 1.0000
25.9800 1050.0000 1.0000
25.9900 1064.0000 1.0000
26.0000 1098.0000 1.0000
26.0100 1083.0000 1.0000
26.0200 1086.0000 1.0000
26.0300 1098.0000 1.0000
26.0400 1098.0000 1.0000
26.0500 1132.0000 1.0000
26.0600 1097.0000 1.0000
26.0700 1161.0000 1.0000
26.0800 1183.0000 1.0000
26.0900 1148.0000 1.0000
26.1000 1160.0000 1.0000
26.1100 1173.0000 1.0000
26.1200 1236.0000 1.0000
26.1300 1227.0000 1.0000
26.1400 1269.0000 1.0000
26.1500 1286.0000 1.0000
26.1600 1294.0000 1.0000
26.1700 1355.0000 1.0000
26.1800 1397.0000 1.0000
26.1900 1362.0000 1.0000
26.2000 1382.0000 1.0000
26.2100 1533.0000 1.0000
26.2200 1505.0000 1.0000
26.2300 1514.0000 1.0000
26.2400 1612.0000 1.0000
26.2500 1666.0000 1.0000
26.2600 1721.0000 1.0000
26.2700 1829.0000 1.0000
26.2800 1759.0000 1.0000
26.2900 1864.0000 1.0000
26.3000 2010.0000 1.0000
26.3100 2120.0000 1.0000
26.3200 2134.0000 1.0000
26.3300 2264.0000 1.0000
26.3400 2399.0000 1.0000
26.3500 2595.0000 1.0000
26.3600 2804.0000 1.0000
26.3700 2891.0000 1.0000
26.3800 3027.0000 1.0000
26.3900 3226.0000 1.0000
26.4000 3359.0000 1.0000
26.4100 3477.0000 1.0000
26.4200 3461.0000 1.0000
26.4300 3517.0000 1.0000
26.4400 3436.0000 1.0000
26.4500 3416.0000 1.0000
26.4600 3487.0000 1.0000
26.4700 3404.0000 1.0000
26.4800 3123.0000 1.0000
26.4900 3018.0000 1.0000
26.5000 2839.0000 1.0000
26.5100 2838.0000 1.0000
26.5200 2740.0000 1.0000
26.5300 2534.0000 1.0000
26.5400 2425.0000 1.0000
26.5500 2316.0000 1.0000
26.5600 2151.0000 1.0000
26.5700 2045.0000 1.0000
26.5800 1904.0000 1.0000
26.5900 1847.0000 1.0000
26.6000 1766.0000 1.0000
26.6100 1669.0000 1.0000
26.6200 1641.0000 1.0000
26.6300 1565.0000 1.0000
26.6400 1501.0000 1.0000
26.6500 1407.0000 1.0000
26.6600 1425.0000 1.0000
26.6700 1448.0000 1.0000
26.6800 1369.0000 1.0000
26.6900 1382.0000 1.0000
26.7000 1226.0000 1.0000
26.7100 1233.0000 1.0000
26.7200 1193.0000 1.0000
26.7300 1168.0000 1.0000
26.7400 1193.0000 1.0000
26.7500 1144.0000 1.0000
26.7600 1151.0000 1.0000
26.7700 1133.0000 1.0000
26.7800 1121.0000 1.0000
26.7900 1103.0000 1.0000
26.8000 1151.0000 1.0000
26.8100 1103.0000 1.0000
26.8200 1094.0000 1.0000
26.8300 1001.0000 1.0000
26.8400 1076.0000 1.0000
26.8500 988.0000 1.0000
26.8600 1037.0000 1.0000
26.8700 1039.0000 1.0000
26.8800 1070.0000 1.0000
26.8900 1086.0000 1.0000
26.9000 1037.0000 1.0000
26.9100 1027.0000 1.0000
26.9200 995.0000 1.0000
26.9300 1049.0000 1.0000
26.9400 1014.0000 1.0000
26.9500 1009.0000 1.0000
26.9600 1013.0000 1.0000
26.9700 952.0000 1.0000
26.9800 963.0000 1.0000
26.9900 988.0000 1.0000
27.0000 990.0000 1.0000
27.0100 942.0000 1.0000
27.0200 954.0000 1.0000
27.0300 978.0000 1.0000
27.0400 965.0000 1.0000
27.0500 938.0000 1.0000
27.0600 973.0000 1.0000
27.0700 941.0000 1.0000
27.0800 968.0000 1.0000
27.0900 948.0000 1.0000
27.1000 1022.0000 1.0000
27.1100 1006.0000 1.0000
27.1200 990.0000 1.0000
27.1300 974.0000 1.0000
27.1400 931.0000 1.0000
27.1500 995.0000 1.0000
27.1600 947.0000 1.0000
27.1700 936.0000 1.0000
27.1800 966.0000 1.0000
27.1900 941.0000 1.0000
27.2000 989.0000 1.0000
27.2100 1001.0000 1.0000
27.2200 910.0000 1.0000
27.2300 909.0000 1.0000
27.2400 927.0000 1.0000
27.2500 905.0000 1.0000
27.2600 889.0000 1.0000
27.2700 921.0000 1.0000
27.2800 899.0000 1.0000
27.2900 929.0000 1.0000
27.3000 937.0000 1.0000
27.3100 916.0000 1.0000
27.3200 932.0000 1.0000
27.3300 953.0000 1.0000
27.3400 962.0000 1.0000
27.3500 963.0000 1.0000
27.3600 918.0000 1.0000
27.3700 900.0000 1.0000
27.3800 919.0000 1.0000
27.3900 943.0000 1.0000
27.4000 961.0000 1.0000
27.4100 891.0000 1.0000
27.4200 887.0000 1.0000
27.4300 916.0000 1.0000
27.4400 949.0000 1.0000
27.4500 910.0000 1.0000
27.4600 912.0000 1.0000
27.4700 901.0000 1.0000
27.4800 929.0000 1.0000
27.4900 894.0000 1.0000
27.5000 901.0000 1.0000
27.5100 897.0000 1.0000
27.5200 886.0000 1.0000
27.5300 885.0000 1.0000
27.5400 901.0000 1.0000
27.5500 960.0000 1.0000
27.5600 919.0000 1.0000
27.5700 923.0000 1.0000
27.5800 942.0000 1.0000
27.5900 959.0000 1.0000
27.6000 881.0000 1.0000
27.6100 915.0000 1.0000
27.6200 919.0000 1.0000
27.6300 947.0000 1.0000
27.6400 917.0000 1.0000
27.6500 913.0000 1.0000
27.6600 952.0000 1.0000
27.6700 931.0000 1.0000
27.6800 883.0000 1.0000
27.6900 937.0000 1.0000
27.7000 876.0000 1.0000
27.7100 939.0000 1.0000
27.7200 954.0000 1.0000
27.7300 938.0000 1.0000
27.7400 919.0000 1.0000
27.7500 842.0000 1.0000
27.7600 886.0000 1.0000
27.7700 871.0000 1.0000
27.7800 902.0000 1.0000
27.7900 934.0000 1.0000
27.8000 896.0000 1.0000
27.8100 870.0000 1.0000
27.8200 877.0000 1.0000
27.8300 894.0000 1.0000
27.8400 906.0000 1.0000
27.8500 904.0000 1.0000
27.8600 935.0000 1.0000
27.8700 891.0000 1.0000
27.8800 868.0000 1.0000
27.8900 880.0000 1.0000
27.9000 882.0000 1.0000
27.9100 928.0000 1.0000
27.9200 927.0000 1.0000
27.9300 939.0000 1.0000
27.9400 841.0000 1.0000
27.9500 896.0000 1.0000
27.9600 931.0000 1.0000
27.9700 896.0000 1.0000
27.9800 855.0000 1.0000
27.9900 915.0000 1.0000
28.0000 827.0000 1.0000
28.0100 823.0000 1.0000
28.0200 870.0000 1.0000
28.0300 847.0000 1.0000
28.0400 897.0000 1.0000
28.0500 883.0000 1.0000
28.0600 848.0000 1.0000
28.0700 861.0000 1.0000
28.0800 919.0000 1.0000
28.0900 859.0000 1.0000
28.1000 854.0000 1.0000
28.1100 920.0000 1.0000
28.1200 882.0000 1.0000
28.1300 900.0000 1.0000
28.1400 902.0000 1.0000
28.1500 863.0000 1.0000
28.1600 850.0000 1.0000
28.1700 845.0000 1.0000
28.1800 877.0000 1.0000
28.1900 881.0000 1.0000
28.2000 886.0000 1.0000
28.2100 860.0000 1.0000
28.2200 883.0000 1.0000
28.2300 896.0000 1.0000
28.2400 911.0000 1.0000
28.2500 918.0000 1.0000
28.2600 858.0000 1.0000
28.2700 894.0000 1.0000
28.2800 870.0000 1.0000
28.2900 900.0000 1.0000
28.3000 901.0000 1.0000
28.3100 823.0000 1.0000
28.3200 821.0000 1.0000
28.3300 860.0000 1.0000
28.3400 894.0000 1.0000
28.3500 903.0000 1.0000
28.3600 859.0000 1.0000
28.3700 871.0000 1.0000
28.3800 905.0000 1.0000
28.3900 897.0000 1.0000
28.4000 878.0000 1.0000
28.4100 871.0000 1.0000
28.4200 896.0000 1.0000
28.4300 892.0000 1.0000
28.4400 873.0000 1.0000
28.4500 918.0000 1.0000
28.4600 890.0000 1.0000
28.4700 901.0000 1.0000
28.4800 908.0000 1.0000
28.4900 873.0000 1.0000
28.5000 860.0000 1.0000
28.5100 821.0000 1.0000
28.5200 861.0000 1.0000
28.5300 892.0000 1.0000
28.5400 884.0000 1.0000
28.5500 867.0000 1.0000
28.5600 853.0000 1.0000
28.5700 837.0000 1.0000
28.5800 851.0000 1.0000
28.5900 809.0000 1.0000
28.6000 832.0000 1.0000
28.6100 856.0000 1.0000
28.6200 825.0000 1.0000
28.6300 883.0000 1.0000
28.6400 858.0000 1.0000
28.6500 812.0000 1.0000
28.6600 922.0000 1.0000
28.6700 856.0000 1.0000
28.6800 808.0000 1.0000
28.6900 808.0000 1.0000
28.7000 868.0000 1.0000
28.7100 868.0000 1.0000
28.7200 842.0000 1.0000
28.7300 860.0000 1.0000
28.7400 889.0000 1.0000
28.7500 870.0000 1.0000
28.7600 889.0000 1.0000
28.7700 848.0000 1.0000
28.7800 788.0000 1.0000
28.7900 852.0000 1.0000
28.8000 852.0000 1.0000
28.8100 886.0000 1.0000
28.8200 862.0000 1.0000
28.8300 892.0000 1.0000
28.8400 853.0000 1.0000
28.8500 793.0000 1.0000
28.8600 877.0000 1.0000
28.8700 888.0000 1.0000
28.8800 891.0000 1.0000
28.8900 879.0000 1.0000
28.9000 863.0000 1.0000
28.9100 864.0000 1.0000
28.9200 841.0000 1.0000
28.9300 845.0000 1.0000
28.9400 860.0000 1.0000
28.9500 840.0000 1.0000
28.9600 822.0000 1.0000
28.9700 814.0000 1.0000
28.9800 813.0000 1.0000
28.9900 819.0000 1.0000
29.0000 830.0000 1.0000
29.0100 849.0000 1.0000
29.0200 831.0000 1.0000
29.0300 873.0000 1.0000
29.0400 868.0000 1.0000
29.0500 854.0000 1.0000
29.0600 856.0000 1.0000
29.0700 827.0000 1.0000
29.0800 868.0000 1.0000
29.0900 828.0000 1.0000
29.1000 822.0000 1.0000
29.1100 811.0000 1.0000
29.1200 859.0000 1.0000
29.1300 815.0000 1.0000
29.1400 819.0000 1.0000
29.1500 866.0000 1.0000
29.1600 889.0000 1.0000
29.1700 837.0000 1.0000
29.1800 808.0000 1.0000
29.1900 901.0000 1.0000
29.2000 840.0000 1.0000
29.2100 906.0000 1.0000
29.2200 885.0000 1.0000
29.2300 851.0000 1.0000
29.2400 813.0000 1.0000
29.2500 831.0000 1.0000
29.2600 842.0000 1.0000
29.2700 842.0000 1.0000
29.2800 889.0000 1.0000
29.2900 851.0000 1.0000
29.3000 864.0000 1.0000
29.3100 856.0000 1.0000
29.3200 840.0000 1.0000
29.3300 805.0000 1.0000
29.3400 834.0000 1.0000
29.3500 854.0000 1.0000
29.3600 811.0000 1.0000
29.3700 787.0000 1.0000
29.3800 816.0000 1.0000
29.3900 814.0000 1.0000
29.4000 820.0000 1.0000
29.4100 876.0000 1.0000
29.4200 856.0000 1.0000
29.4300 854.0000 1.0000
29.4400 821.0000 1.0000
29.4500 847.0000 1.0000
29.4600 837.0000 1.0000
29.4700 851.0000 1.0000
29.4800 802.0000 1.0000
29.4900 828.0000 1.0000
29.5000 841.0000 1.0000
29.5100 793.0000 1.0000
29.5200 800.0000 1.0000
29.5300 846.0000 1.0000
29.5400 881.0000 1.0000
29.5500 840.0000 1.0000
29.5600 826.0000 1.0000
29.5700 791.0000 1.0000
29.5800 828.0000 1.0000
29.5900 856.0000 1.0000
29.6000 857.0000 1.0000
29.6100 817.0000 1.0000
29.6200 852.0000 1.0000
29.6300 815.0000 1.0000
29.6400 806.0000 1.0000
29.6500 815.0000 1.0000
29.6600 831.0000 1.0000
29.6700 813.0000 1.0000
29.6800 834.0000 1.0000
29.6900 832.0000 1.0000
29.7000 781.0000 1.0000
29.7100 803.0000 1.0000
29.7200 813.0000 1.0000
29.7300 803.0000 1.0000
29.7400 859.0000 1.0000
29.7500 846.0000 1.0000
29.7600 834.0000 1.0000
29.7700 819.0000 1.0000
29.7800 825.0000 1.0000
29.7900 833.0000 1.0000
29.8000 836.0000 1.0000
29.8100 808.0000 1.0000
29.8200 815.0000 1.0000
29.8300 848.0000 1.0000
29.8400 837.0000 1.0000
29.8500 803.0000 1.0000
29.8600 829.0000 1.0000
29.8700 771.0000 1.0000
29.8800 806.0000 1.0000
29.8900 871.0000 1.0000
29.9000 826.0000 1.0000
29.9100 807.0000 1.0000
29.9200 781.0000 1.0000
29.9300 783.0000 1.0000
29.9400 820.0000 1.0000
29.9500 847.0000 1.0000
29.9600 847.0000 1.0000
29.9700 760.0000 1.0000
29.9800 782.0000 1.0000
29.9900 776.0000 1.0000
30.0000 783.0000 1.0000
30.0100 833.0000 1.0000
30.0200 810.0000 1.0000
30.0300 772.0000 1.0000
30.0400 784.0000 1.0000
30.0500 842.0000 1.0000
30.0600 805.0000 1.0000
30.0700 812.0000 1.0000
30.0800 792.0000 1.0000
30.0900 799.0000 1.0000
30.1000 782.0000 1.0000
30.1100 824.0000 1.0000
30.1200 853.0000 1.0000
30.1300 785.0000 1.0000
30.1400 807.0000 1.0000
30.1500 821.0000 1.0000
30.1600 825.0000 1.0000
30.1700 835.0000 1.0000
30.1800 811.0000 1.0000
30.1900 808.0000 1.0000
30.2000 766.0000 1.0000
30.2100 788.0000 1.0000
30.2200 856.0000 1.0000
30.2300 774.0000 1.0000
30.2400 801.0000 1.0000
30.2500 871.0000 1.0000
30.2600 828.0000 1.0000
30.2700 778.0000 1.0000
30.2800 796.0000 1.0000
30.2900 800.0000 1.0000
30.3000 808.0000 1.0000
30.3100 829.0000 1.0000
30.3200 804.0000 1.0000
30.3300 835.0000 1.0000
30.3400 851.0000 1.0000
30.3500 847.0000 1.0000
30.3600 807.0000 1.0000
30.3700 824.0000 1.0000
30.3800 800.0000 1.0000
30.3900 845.0000 1.0000
30.4000 814.0000 1.0000
30.4100 820.0000 1.0000
30.4200 774.0000 1.0000
30.4300 812.0000 1.0000
30.4400 794.0000 1.0000
30.4500 784.0000 1.0000
30.4600 791.0000 1.0000
30.4700 805.0000 1.0000
30.4800 843.0000 1.0000
30.4900 780.0000 1.0000
30.5000 833.0000 1.0000
30.5100 796.0000 1.0000
30.5200 809.0000 1.0000
30.5300 773.0000 1.0000
30.5400 812.0000 1.0000
30.5500 793.0000 1.0000
30.5600 776.0000 1.0000
30.5700 763.0000 1.0000
30.5800 812.0000 1.0000
30.5900 792.0000 1.0000
30.6000 811.0000 1.0000
30.6100 844.0000 1.0000
30.6200 804.0000 1.0000
30.6300 785.0000 1.0000
30.6400 791.0000 1.0000
30.6500 802.0000 1.0000
30.6600 788.0000 1.0000
30.6700 804.0000 1.0000
30.6800 812.0000 1.0000
30.6900 828.0000 1.0000
30.7000 786.0000 1.0000
30.7100 801.0000 1.0000
30.7200 785.0000 1.0000
30.7300 818.0000 1.0000
30.7400 791.0000 1.0000
30.7500 816.0000 1.0000
30.7600 812.0000 1.0000
30.7700 828.0000 1.0000
30.7800 781.0000 1.0000
30.7900 785.0000 1.0000
30.8000 757.0000 1.0000
30.8100 791.0000 1.0000
30.8200 800.0000 1.0000
30.8300 761.0000 1.0000
30.8400 783.0000 1.0000
30.8500 803.0000 1.0000
30.8600 768.0000 1.0000
30.8700 820.0000 1.0000
30.8800 785.0000 1.0000
30.8900 807.0000 1.0000
30.9000 792.0000 1.0000
30.9100 780.0000 1.0000
30.9200 818.0000 1.0000
30.9300 772.0000 1.0000
30.9400 771.0000 1.0000
30.9500 790.0000 1.0000
30.9600 786.0000 1.0000
30.9700 787.0000 1.0000
30.9800 777.0000 1.0000
30.9900 806.0000 1.0000
31.0000 773.0000 1.0000
31.0100 807.0000 1.0000
31.0200 794.0000 1.0000
31.0300 796.0000 1.0000
31.0400 784.0000 1.0000
31.0500 820.0000 1.0000
31.0600 805.0000 1.0000
31.0700 820.0000 1.0000
31.0800 808.0000 1.0000
31.0900 779.0000 1.0000
31.1000 802.0000 1.0000
31.1100 793.0000 1.0000
31.1200 778.0000 1.0000
31.1300 796.0000 1.0000
31.1400 788.0000 1.0000
31.1500 811.0000 1.0000
31.1600 831.0000 1.0000
31.1700 819.0000 1.0000
31.1800 805.0000 1.0000
31.1900 786.0000 1.0000
31.2000 773.0000 1.0000
31.2100 777.0000 1.0000
31.2200 771.0000 1.0000
31.2300 818.0000 1.0000
31.2400 830.0000 1.0000
31.2500 815.0000 1.0000
31.2600 787.0000 1.0000
31.2700 796.0000 1.0000
31.2800 775.0000 1.0000
31.2900 824.0000 1.0000
31.3000 749.0000 1.0000
31.3100 774.0000 1.0000
31.3200 789.0000 1.0000
31.3300 800.0000 1.0000
31.3400 805.0000 1.0000
31.3500 779.0000 1.0000
31.3600 788.0000 1.0000
31.3700 794.0000 1.0000
31.3800 803.0000 1.0000
31.3900 787.0000 1.0000
31.4000 742.0000 1.0000
31.4100 806.0000 1.0000
31.4200 783.0000 1.0000
31.4300 790.0000 1.0000
31.4400 765.0000 1.0000
31.4500 780.0000 1.0000
31.4600 752.0000 1.0000
31.4700 763.0000 1.0000
31.4800 783.0000 1.0000
31.4900 774.0000 1.0000
31.5000 802.0000 1.0000
31.5100 746.0000 1.0000
31.5200 800.0000 1.0000
31.5300 795.0000 1.0000
31.5400 812.0000 1.0000
31.5500 794.0000 1.0000
31.5600 769.0000 1.0000
31.5700 786.0000 1.0000
31.5800 799.0000 1.0000
31.5900 768.0000 1.0000
31.6000 764.0000 1.0000
31.6100 797.0000 1.0000
31.6200 781.0000 1.0000
31.6300 785.0000 1.0000
31.6400 750.0000 1.0000
31.6500 767.0000 1.0000
31.6600 743.0000 1.0000
31.6700 775.0000 1.0000
31.6800 767.0000 1.0000
31.6900 744.0000 1.0000
31.7000 792.0000 1.0000
31.7100 753.0000 1.0000
31.7200 814.0000 1.0000
31.7300 735.0000 1.0000
31.7400 786.0000 1.0000
31.7500 795.0000 1.0000
31.7600 768.0000 1.0000
31.7700 782.0000 1.0000
31.7800 756.0000 1.0000
31.7900 737.0000 1.0000
31.8000 753.0000 1.0000
31.8100 773.0000 1.0000
31.8200 809.0000 1.0000
31.8300 771.0000 1.0000
31.8400 767.0000 1.0000
31.8500 791.0000 1.0000
31.8600 742.0000 1.0000
31.8700 760.0000 1.0000
31.8800 789.0000 1.0000
31.8900 776.0000 1.0000
31.9000 779.0000 1.0000
31.9100 779.0000 1.0000
31.9200 760.0000 1.0000
31.9300 752.0000 1.0000
31.9400 753.0000 1.0000
31.9500 757.0000 1.0000
31.9600 772.0000 1.0000
31.9700 761.0000 1.0000
31.9800 805.0000 1.0000
31.9900 784.0000 1.0000
32.0000 730.0000 1.0000
32.0100 754.0000 1.0000
32.0200 784.0000 1.0000
32.0300 754.0000 1.0000
32.0400 768.0000 1.0000
32.0500 758.0000 1.0000
32.0600 737.0000 1.0000
32.0700 799.0000 1.0000
32.0800 743.0000 1.0000
32.0900 777.0000 1.0000
32.1000 770.0000 1.0000
32.1100 757.0000 1.0000
32.1200 777.0000 1.0000
32.1300 730.0000 1.0000
32.1400 769.0000 1.0000
32.1500 800.0000 1.0000
32.1600 772.0000 1.0000
32.1700 711.0000 1.0000
32.1800 749.0000 1.0000
32.1900 771.0000 1.0000
32.2000 782.0000 1.0000
32.2100 760.0000 1.0000
32.2200 752.0000 1.0000
32.2300 772.0000 1.0000
32.2400 749.0000 1.0000
32.2500 756.0000 1.0000
32.2600 727.0000 1.0000
32.2700 740.0000 1.0000
32.2800 810.0000 1.0000
32.2900 737.0000 1.0000
32.3000 726.0000 1.0000
32.3100 750.0000 1.0000
32.3200 683.0000 1.0000
32.3300 721.0000 1.0000
32.3400 772.0000 1.0000
32.3500 742.0000 1.0000
32.3600 764.0000 1.0000
32.3700 774.0000 1.0000
32.3800 769.0000 1.0000
32.3900 778.0000 1.0000
32.4000 709.0000 1.0000
32.4100 735.0000 1.0000
32.4200 731.0000 1.0000
32.4300 721.0000 1.0000
32.4400 739.0000 1.0000
32.4500 765.0000 1.0000
32.4600 735.0000 1.0000
32.4700 779.0000 1.0000
32.4800 788.0000 1.0000
32.4900 767.0000 1.0000
32.5000 755.0000 1.0000
32.5100 741.0000 1.0000
32.5200 733.0000 1.0000
32.5300 750.0000 1.0000
32.5400 720.0000 1.0000
32.5500 741.0000 1.0000
32.5600 767.0000 1.0000
32.5700 737.0000 1.0000
32.5800 737.0000 1.0000
32.5900 767.0000 1.0000
32.6000 748.0000 1.0000
32.6100 749.0000 1.0000
32.6200 770.0000 1.0000
32.6300 692.0000 1.0000
32.6400 775.0000 1.0000
32.6500 789.0000 1.0000
32.6600 740.0000 1.0000
32.6700 752.0000 1.0000
32.6800 681.0000 1.0000
32.6900 712.0000 1.0000
32.7000 754.0000 1.0000
32.7100 807.0000 1.0000
32.7200 735.0000 1.0000
32.7300 738.0000 1.0000
32.7400 762.0000 1.0000
32.7500 734.0000 1.0000
32.7600 776.0000 1.0000
32.7700 762.0000 1.0000
32.7800 783.0000 1.0000
32.7900 797.0000 1.0000
32.8000 749.0000 1.0000
32.8100 735.0000 1.0000
32.8200 740.0000 1.0000
32.8300 757.0000 1.0000
32.8400 774.0000 1.0000
32.8500 725.0000 1.0000
32.8600 761.0000 1.0000
32.8700 751.0000 1.0000
32.8800 776.0000 1.0000
32.8900 772.0000 1.0000
32.9000 763.0000 1.0000
32.9100 844.0000 1.0000
32.9200 766.0000 1.0000
32.9300 757.0000 1.0000
32.9400 804.0000 1.0000
32.9500 832.0000 1.0000
32.9600 844.0000 1.0000
32.9700 804.0000 1.0000
32.9800 846.0000 1.0000
32.9900 822.0000 1.0000
33.0000 851.0000 1.0000
33.0100 846.0000 1.0000
33.0200 847.0000 1.0000
33.0300 898.0000 1.0000
33.0400 884.0000 1.0000
33.0500 850.0000 1.0000
33.0600 921.0000 1.0000
33.0700 897.0000 1.0000
33.0800 961.0000 1.0000
33.0900 948.0000 1.0000
33.1000 907.0000 1.0000
33.1100 899.0000 1.0000
33.1200 879.0000 1.0000
33.1300 877.0000 1.0000
33.1400 895.0000 1.0000
33.1500 891.0000 1.0000
33.1600 897.0000 1.0000
33.1700 875.0000 1.0000
33.1800 832.0000 1.0000
33.1900 819.0000 1.0000
33.2000 837.0000 1.0000
33.2100 811.0000 1.0000
33.2200 805.0000 1.0000
33.2300 848.0000 1.0000
33.2400 855.0000 1.0000
33.2500 820.0000 1.0000
33.2600 804.0000 1.0000
33.2700 816.0000 1.0000
33.2800 828.0000 1.0000
33.2900 865.0000 1.0000
33.3000 889.0000 1.0000
33.3100 876.0000 1.0000
33.3200 881.0000 1.0000
33.3300 863.0000 1.0000
33.3400 882.0000 1.0000
33.3500 869.0000 1.0000
33.3600 885.0000 1.0000
33.3700 855.0000 1.0000
33.3800 909.0000 1.0000
33.3900 910.0000 1.0000
33.4000 935.0000 1.0000
33.4100 960.0000 1.0000
33.4200 1003.0000 1.0000
33.4300 994.0000 1.0000
33.4400 998.0000 1.0000
33.4500 966.0000 1.0000
33.4600 1036.0000 1.0000
33.4700 1133.0000 1.0000
33.4800 1087.0000 1.0000
33.4900 1116.0000 1.0000
33.5000 1151.0000 1.0000
33.5100 1224.0000 1.0000
33.5200 1267.0000 1.0000
33.5300 1357.0000 1.0000
33.5400 1440.0000 1.0000
33.5500 1511.0000 1.0000
33.5600 1561.0000 1.0000
33.5700 1543.0000 1.0000
33.5800 1637.0000 1.0000
33.5900 1711.0000 1.0000
33.6000 1776.0000 1.0000
33.6100 1808.0000 1.0000
33.6200 1820.0000 1.0000
33.6300 1925.0000 1.0000
33.6400 1915.0000 1.0000
33.6500 1882.0000 1.0000
33.6600 1902.0000 1.0000
33.6700 1862.0000 1.0000
33.6800 1909.0000 1.0000
33.6900 1819.0000 1.0000
33.7000 1754.0000 1.0000
33.7100 1656.0000 1.0000
33.7200 1623.0000 1.0000
33.7300 1525.0000 1.0000
33.7400 1501.0000 1.0000
33.7500 1468.0000 1.0000
33.7600 1486.0000 1.0000
33.7700 1348.0000 1.0000
33.7800 1280.0000 1.0000
33.7900 1245.0000 1.0000
33.8000 1206.0000 1.0000
33.8100 1172.0000 1.0000
33.8200 1130.0000 1.0000
33.8300 1047.0000 1.0000
33.8400 1020.0000 1.0000
33.8500 1006.0000 1.0000
33.8600 983.0000 1.0000
33.8700 928.0000 1.0000
33.8800 970.0000 1.0000
33.8900 948.0000 1.0000
33.9000 886.0000 1.0000
33.9100 899.0000 1.0000
33.9200 906.0000 1.0000
33.9300 903.0000 1.0000
33.9400 830.0000 1.0000
33.9500 852.0000 1.0000
33.9600 851.0000 1.0000
33.9700 834.0000 1.0000
33.9800 826.0000 1.0000
33.9900 834.0000 1.0000
34.0000 787.0000 1.0000
34.0100 804.0000 1.0000
34.0200 776.0000 1.0000
34.0300 766.0000 1.0000
34.0400 818.0000 1.0000
34.0500 744.0000 1.0000
34.0600 739.0000 1.0000
34.0700 729.0000 1.0000
34.0800 750.0000 1.0000
34.0900 770.0000 1.0000
34.1000 757.0000 1.0000
34.1100 734.0000 1.0000
34.1200 765.0000 1.0000
34.1300 736.0000 1.0000
34.1400 744.0000 1.0000
34.1500 723.0000 1.0000
34.1600 706.0000 1.0000
34.1700 698.0000 1.0000
34.1800 744.0000 1.0000
34.1900 714.0000 1.0000
34.2000 724.0000 1.0000
34.2100 748.0000 1.0000
34.2200 700.0000 1.0000
34.2300 748.0000 1.0000
34.2400 709.0000 1.0000
34.2500 722.0000 1.0000
34.2600 675.0000 1.0000
34.2700 762.0000 1.0000
34.2800 708.0000 1.0000
34.2900 707.0000 1.0000
34.3000 722.0000 1.0000
34.3100 720.0000 1.0000
34.3200 652.0000 1.0000
34.3300 706.0000 1.0000
34.3400 726.0000 1.0000
34.3500 704.0000 1.0000
34.3600 702.0000 1.0000
34.3700 689.0000 1.0000
34.3800 654.0000 1.0000
34.3900 666.0000 1.0000
34.4000 680.0000 1.0000
34.4100 637.0000 1.0000
34.4200 725.0000 1.0000
34.4300 660.0000 1.0000
34.4400 689.0000 1.0000
34.4500 649.0000 1.0000
34.4600 680.0000 1.0000
34.4700 686.0000 1.0000
34.4800 670.0000 1.0000
34.4900 674.0000 1.0000
34.5000 682.0000 1.0000
34.5100 695.0000 1.0000
34.5200 711.0000 1.0000
34.5300 707.0000 1.0000
34.5400 670.0000 1.0000
34.5500 696.0000 1.0000
34.5600 667.0000 1.0000
34.5700 674.0000 1.0000
34.5800 706.0000 1.0000
34.5900 677.0000 1.0000
34.6000 655.0000 1.0000
34.6100 649.0000 1.0000
34.6200 679.0000 1.0000
34.6300 671.0000 1.0000
34.6400 695.0000 1.0000
34.6500 706.0000 1.0000
34.6600 676.0000 1.0000
34.6700 666.0000 1.0000
34.6800 699.0000 1.0000
34.6900 703.0000 1.0000
34.7000 667.0000 1.0000
34.7100 628.0000 1.0000
34.7200 640.0000 1.0000
34.7300 682.0000 1.0000
34.7400 648.0000 1.0000
34.7500 699.0000 1.0000
34.7600 699.0000 1.0000
34.7700 658.0000 1.0000
34.7800 669.0000 1.0000
34.7900 673.0000 1.0000
34.8000 639.0000 1.0000
34.8100 708.0000 1.0000
34.8200 682.0000 1.0000
34.8300 699.0000 1.0000
34.8400 642.0000 1.0000
34.8500 678.0000 1.0000
34.8600 657.0000 1.0000
34.8700 681.0000 1.0000
34.8800 683.0000 1.0000
34.8900 675.0000 1.0000
34.9000 642.0000 1.0000
34.9100 633.0000 1.0000
34.9200 686.0000 1.0000
34.9300 664.0000 1.0000
34.9400 673.0000 1.0000
34.9500 680.0000 1.0000
34.9600 659.0000 1.0000
34.9700 636.0000 1.0000
34.9800 660.0000 1.0000
34.9900 667.0000 1.0000
35.0000 684.0000 1.0000
35.0100 663.0000 1.0000
35.0200 656.0000 1.0000
35.0300 666.0000 1.0000
35.0400 670.0000 1.0000
35.0500 653.0000 1.0000
35.0600 670.0000 1.0000
35.0700 664.0000 1.0000
35.0800 683.0000 1.0000
35.0900 640.0000 1.0000
35.1000 686.0000 1.0000
35.1100 691.0000 1.0000
35.1200 673.0000 1.0000
35.1300 660.0000 1.0000
35.1400 692.0000 1.0000
35.1500 637.0000 1.0000
35.1600 666.0000 1.0000
35.1700 656.0000 1.0000
35.1800 678.0000 1.0000
35.1900 658.0000 1.0000
35.2000 661.0000 1.0000
35.2100 623.0000 1.0000
35.2200 675.0000 1.0000
35.2300 700.0000 1.0000
35.2400 706.0000 1.0000
35.2500 696.0000 1.0000
35.2600 700.0000 1.0000
35.2700 726.0000 1.0000
35.2800 677.0000 1.0000
35.2900 652.0000 1.0000
35.3000 756.0000 1.0000
35.3100 720.0000 1.0000
35.3200 724.0000 1.0000
35.3300 735.0000 1.0000
35.3400 755.0000 1.0000
35.3500 705.0000 1.0000
35.3600 690.0000 1.0000
35.3700 690.0000 1.0000
35.3800 749.0000 1.0000
35.3900 768.0000 1.0000
35.4000 815.0000 1.0000
35.4100 790.0000 1.0000
35.4200 807.0000 1.0000
35.4300 835.0000 1.0000
35.4400 839.0000 1.0000
35.4500 924.0000 1.0000
35.4600 977.0000 1.0000
35.4700 1012.0000 1.0000
35.4800 987.0000 1.0000
35.4900 1128.0000 1.0000
35.5000 1147.0000 1.0000
35.5100 1184.0000 1.0000
35.5200 1291.0000 1.0000
35.5300 1241.0000 1.0000
35.5400 1235.0000 1.0000
35.5500 1278.0000 1.0000
35.5600 1268.0000 1.0000
35.5700 1288.0000 1.0000
35.5800 1246.0000 1.0000
35.5900 1215.0000 1.0000
35.6000 1209.0000 1.0000
35.6100 1196.0000 1.0000
35.6200 1199.0000 1.0000
35.6300 1082.0000 1.0000
35.6400 1065.0000 1.0000
35.6500 1072.0000 1.0000
35.6600 1016.0000 1.0000
35.6700 963.0000 1.0000
35.6800 888.0000 1.0000
35.6900 918.0000 1.0000
35.7000 820.0000 1.0000
35.7100 842.0000 1.0000
35.7200 825.0000 1.0000
35.7300 747.0000 1.0000
35.7400 767.0000 1.0000
35.7500 782.0000 1.0000
35.7600 758.0000 1.0000
35.7700 716.0000 1.0000
35.7800 696.0000 1.0000
35.7900 690.0000 1.0000
35.8000 689.0000 1.0000
35.8100 658.0000 1.0000
35.8200 686.0000 1.0000
35.8300 680.0000 1.0000
35.8400 634.0000 1.0000
35.8500 660.0000 1.0000
35.8600 666.0000 1.0000
35.8700 658.0000 1.0000
35.8800 677.0000 1.0000
35.8900 640.0000 1.0000
35.9000 593.0000 1.0000
35.9100 644.0000 1.0000
35.9200 606.0000 1.0000
35.9300 667.0000 1.0000
35.9400 632.0000 1.0000
35.9500 599.0000 1.0000
35.9600 657.0000 1.0000
35.9700 596.0000 1.0000
35.9800 627.0000 1.0000
35.9900 636.0000 1.0000
36.0000 594.0000 1.0000
36.0100 617.0000 1.0000
36.0200 634.0000 1.0000
36.0300 627.0000 1.0000
36.0400 638.0000 1.0000
36.0500 601.0000 1.0000
36.0600 628.0000 1.0000
36.0700 661.0000 1.0000
36.0800 648.0000 1.0000
36.0900 634.0000 1.0000
36.1000 641.0000 1.0000
36.1100 607.0000 1.0000
36.1200 658.0000 1.0000
36.1300 602.0000 1.0000
36.1400 584.0000 1.0000
36.1500 614.0000 1.0000
36.1600 599.0000 1.0000
36.1700 596.0000 1.0000
36.1800 628.0000 1.0000
36.1900 629.0000 1.0000
36.2000 611.0000 1.0000
36.2100 608.0000 1.0000
36.2200 626.0000 1.0000
36.2300 601.0000 1.0000
36.2400 636.0000 1.0000
36.2500 611.0000 1.0000
36.2600 630.0000 1.0000
36.2700 635.0000 1.0000
36.2800 629.0000 1.0000
36.2900 614.0000 1.0000
36.3000 634.0000 1.0000
36.3100 604.0000 1.0000
36.3200 637.0000 1.0000
36.3300 590.0000 1.0000
36.3400 603.0000 1.0000
36.3500 588.0000 1.0000
36.3600 597.0000 1.0000
36.3700 644.0000 1.0000
36.3800 576.0000 1.0000
36.3900 603.0000 1.0000
36.4000 591.0000 1.0000
36.4100 588.0000 1.0000
36.4200 608.0000 1.0000
36.4300 603.0000 1.0000
36.4400 572.0000 1.0000
36.4500 626.0000 1.0000
36.4600 630.0000 1.0000
36.4700 578.0000 1.0000
36.4800 579.0000 1.0000
36.4900 628.0000 1.0000
36.5000 648.0000 1.0000
36.5100 615.0000 1.0000
36.5200 577.0000 1.0000
36.5300 591.0000 1.0000
36.5400 584.0000 1.0000
36.5500 593.0000 1.0000
36.5600 622.0000 1.0000
36.5700 599.0000 1.0000
36.5800 574.0000 1.0000
36.5900 621.0000 1.0000
36.6000 623.0000 1.0000
36.6100 609.0000 1.0000
36.6200 596.0000 1.0000
36.6300 569.0000 1.0000
36.6400 573.0000 1.0000
36.6500 589.0000 1.0000
36.6600 579.0000 1.0000
36.6700 589.0000 1.0000
36.6800 580.0000 1.0000
36.6900 612.0000 1.0000
36.7000 586.0000 1.0000
36.7100 617.0000 1.0000
36.7200 588.0000 1.0000
36.7300 568.0000 1.0000
36.7400 594.0000 1.0000
36.7500 584.0000 1.0000
36.7600 608.0000 1.0000
36.7700 569.0000 1.0000
36.7800 577.0000 1.0000
36.7900 579.0000 1.0000
36.8000 612.0000 1.0000
36.8100 622.0000 1.0000
36.8200 592.0000 1.0000
36.8300 565.0000 1.0000
36.8400 563.0000 1.0000
36.8500 572.0000 1.0000
36.8600 610.0000 1.0000
36.8700 567.0000 1.0000
36.8800 600.0000 1.0000
36.8900 602.0000 1.0000
36.9000 584.0000 1.0000
36.9100 605.0000 1.0000
36.9200 592.0000 1.0000
36.9300 590.0000 1.0000
36.9400 582.0000 1.0000
36.9500 612.0000 1.0000
36.9600 566.0000 1.0000
36.9700 576.0000 1.0000
36.9800 585.0000 1.0000
36.9900 576.0000 1.0000
37.0000 599.0000 1.0000
37.0100 569.0000 1.0000
37.0200 563.0000 1.0000
37.0300 552.0000 1.0000
37.0400 564.0000 1.0000
37.0500 570.0000 1.0000
37.0600 594.0000 1.0000
37.0700 621.0000 1.0000
37.0800 635.0000 1.0000
37.0900 602.0000 1.0000
37.1000 589.0000 1.0000
37.1100 599.0000 1.0000
37.1200 594.0000 1.0000
37.1300 589.0000 1.0000
37.1400 641.0000 1.0000
37.1500 598.0000 1.0000
37.1600 581.0000 1.0000
37.1700 614.0000 1.0000
37.1800 623.0000 1.0000
37.1900 611.0000 1.0000
37.2000 645.0000 1.0000
37.2100 658.0000 1.0000
37.2200 658.0000 1.0000
37.2300 654.0000 1.0000
37.2400 674.0000 1.0000
37.2500 639.0000 1.0000
37.2600 665.0000 1.0000
37.2700 664.0000 1.0000
37.2800 652.0000 1.0000
37.2900 652.0000 1.0000
37.3000 690.0000 1.0000
37.3100 682.0000 1.0000
37.3200 703.0000 1.0000
37.3300 690.0000 1.0000
37.3400 720.0000 1.0000
37.3500 710.0000 1.0000
37.3600 709.0000 1.0000
37.3700 766.0000 1.0000
37.3800 754.0000 1.0000
37.3900 782.0000 1.0000
37.4000 826.0000 1.0000
37.4100 813.0000 1.0000
37.4200 855.0000 1.0000
37.4300 842.0000 1.0000
37.4400 917.0000 1.0000
37.4500 913.0000 1.0000
37.4600 920.0000 1.0000
37.4700 981.0000 1.0000
37.4800 1005.0000 1.0000
37.4900 1019.0000 1.0000
37.5000 1082.0000 1.0000
37.5100 1140.0000 1.0000
37.5200 1180.0000 1.0000
37.5300 1273.0000 1.0000
37.5400 1364.0000 1.0000
37.5500 1537.0000 1.0000
37.5600 1474.0000 1.0000
37.5700 1585.0000 1.0000
37.5800 1793.0000 1.0000
37.5900 1840.0000 1.0000
37.6000 1959.0000 1.0000
37.6100 2056.0000 1.0000
37.6200 2202.0000 1.0000
37.6300 2323.0000 1.0000
37.6400 2420.0000 1.0000
37.6500 2533.0000 1.0000
37.6600 2595.0000 1.0000
37.6700 2750.0000 1.0000
37.6800 2738.0000 1.0000
37.6900 2688.0000 1.0000
37.7000 2681.0000 1.0000
37.7100 2689.0000 1.0000
37.7200 2729.0000 1.0000
37.7300 2662.0000 1.0000
37.7400 2638.0000 1.0000
37.7500 2502.0000 1.0000
37.7600 2349.0000 1.0000
37.7700 2284.0000 1.0000
37.7800 2241.0000 1.0000
37.7900 2156.0000 1.0000
37.8000 1978.0000 1.0000
37.8100 1912.0000 1.0000
37.8200 1788.0000 1.0000
37.8300 1748.0000 1.0000
37.8400 1623.0000 1.0000
37.8500 1454.0000 1.0000
37.8600 1436.0000 1.0000
37.8700 1431.0000 1.0000
37.8800 1300.0000 1.0000
37.8900 1225.0000 1.0000
37.9000 1218.0000 1.0000
37.9100 1091.0000 1.0000
37.9200 1027.0000 1.0000
37.9300 934.0000 1.0000
37.9400 925.0000 1.0000
37.9500 888.0000 1.0000
37.9600 865.0000 1.0000
37.9700 797.0000 1.0000
37.9800 776.0000 1.0000
37.9900 813.0000 1.0000
38.0000 747.0000 1.0000
38.0100 757.0000 1.0000
38.0200 739.0000 1.0000
38.0300 750.0000 1.0000
38.0400 723.0000 1.0000
38.0500 717.0000 1.0000
38.0600 719.0000 1.0000
38.0700 665.0000 1.0000
38.0800 654.0000 1.0000
38.0900 640.0000 1.0000
38.1000 636.0000 1.0000
38.1100 631.0000 1.0000
38.1200 618.0000 1.0000
38.1300 612.0000 1.0000
38.1400 589.0000 1.0000
38.1500 604.0000 1.0000
38.1600 604.0000 1.0000
38.1700 587.0000 1.0000
38.1800 589.0000 1.0000
38.1900 570.0000 1.0000
38.2000 598.0000 1.0000
38.2100 551.0000 1.0000
38.2200 550.0000 1.0000
38.2300 591.0000 1.0000
38.2400 573.0000 1.0000
38.2500 566.0000 1.0000
38.2600 595.0000 1.0000
38.2700 622.0000 1.0000
38.2800 580.0000 1.0000
38.2900 512.0000 1.0000
38.3000 535.0000 1.0000
38.3100 551.0000 1.0000
38.3200 570.0000 1.0000
38.3300 593.0000 1.0000
38.3400 556.0000 1.0000
38.3500 533.0000 1.0000
38.3600 540.0000 1.0000
38.3700 535.0000 1.0000
38.3800 520.0000 1.0000
38.3900 515.0000 1.0000
38.4000 499.0000 1.0000
38.4100 543.0000 1.0000
38.4200 568.0000 1.0000
38.4300 532.0000 1.0000
38.4400 532.0000 1.0000
38.4500 545.0000 1.0000
38.4600 560.0000 1.0000
38.4700 528.0000 1.0000
38.4800 545.0000 1.0000
38.4900 557.0000 1.0000
38.5000 525.0000 1.0000
38.5100 583.0000 1.0000
38.5200 518.0000 1.0000
38.5300 552.0000 1.0000
38.5400 509.0000 1.0000
38.5500 512.0000 1.0000
38.5600 521.0000 1.0000
38.5700 539.0000 1.0000
38.5800 560.0000 1.0000
38.5900 543.0000 1.0000
38.6000 567.0000 1.0000
38.6100 548.0000 1.0000
38.6200 571.0000 1.0000
38.6300 510.0000 1.0000
38.6400 578.0000 1.0000
38.6500 524.0000 1.0000
38.6600 556.0000 1.0000
38.6700 536.0000 1.0000
38.6800 537.0000 1.0000
38.6900 535.0000 1.0000
38.7000 584.0000 1.0000
38.7100 507.0000 1.0000
38.7200 555.0000 1.0000
38.7300 541.0000 1.0000
38.7400 557.0000 1.0000
38.7500 584.0000 1.0000
38.7600 537.0000 1.0000
38.7700 530.0000 1.0000
38.7800 547.0000 1.0000
38.7900 523.0000 1.0000
38.8000 554.0000 1.0000
38.8100 519.0000 1.0000
38.8200 534.0000 1.0000
38.8300 565.0000 1.0000
38.8400 556.0000 1.0000
38.8500 562.0000 1.0000
38.8600 519.0000 1.0000
38.8700 541.0000 1.0000
38.8800 549.0000 1.0000
38.8900 532.0000 1.0000
38.9000 574.0000 1.0000
38.9100 522.0000 1.0000
38.9200 541.0000 1.0000
38.9300 551.0000 1.0000
38.9400 516.0000 1.0000
38.9500 554.0000 1.0000
38.9600 515.0000 1.0000
38.9700 523.0000 1.0000
38.9800 524.0000 1.0000
38.9900 540.0000 1.0000
39.0000 498.0000 1.0000
39.0100 494.0000 1.0000
39.0200 499.0000 1.0000
39.0300 466.0000 1.0000
39.0400 488.0000 1.0000
39.0500 519.0000 1.0000
39.0600 485.0000 1.0000
39.0700 475.0000 1.0000
39.0800 549.0000 1.0000
39.0900 489.0000 1.0000
39.1000 462.0000 1.0000
39.1100 534.0000 1.0000
39.1200 520.0000 1.0000
39.1300 490.0000 1.0000
39.1400 519.0000 1.0000
39.1500 504.0000 1.0000
39.1600 548.0000 1.0000
39.1700 512.0000 1.0000
39.1800 528.0000 1.0000
39.1900 509.0000 1.0000
39.2000 512.0000 1.0000
39.2100 512.0000 1.0000
39.2200 523.0000 1.0000
39.2300 503.0000 1.0000
39.2400 530.0000 1.0000
39.2500 548.0000 1.0000
39.2600 468.0000 1.0000
39.2700 494.0000 1.0000
39.2800 481.0000 1.0000
39.2900 469.0000 1.0000
39.3000 506.0000 1.0000
39.3100 491.0000 1.0000
39.3200 486.0000 1.0000
39.3300 514.0000 1.0000
39.3400 493.0000 1.0000
39.3500 443.0000 1.0000
39.3600 486.0000 1.0000
39.3700 486.0000 1.0000
39.3800 504.0000 1.0000
39.3900 510.0000 1.0000
39.4000 485.0000 1.0000
39.4100 496.0000 1.0000
39.4200 525.0000 1.0000
39.4300 514.0000 1.0000
39.4400 495.0000 1.0000
39.4500 535.0000 1.0000
39.4600 519.0000 1.0000
39.4700 478.0000 1.0000
39.4800 481.0000 1.0000
39.4900 532.0000 1.0000
39.5000 531.0000 1.0000
39.5100 514.0000 1.0000
39.5200 515.0000 1.0000
39.5300 473.0000 1.0000
39.5400 505.0000 1.0000
39.5500 514.0000 1.0000
39.5600 460.0000 1.0000
39.5700 476.0000 1.0000
39.5800 504.0000 1.0000
39.5900 497.0000 1.0000
39.6000 518.0000 1.0000
39.6100 465.0000 1.0000
39.6200 457.0000 1.0000
39.6300 475.0000 1.0000
39.6400 473.0000 1.0000
39.6500 481.0000 1.0000
39.6600 481.0000 1.0000
39.6700 503.0000 1.0000
39.6800 494.0000 1.0000
39.6900 496.0000 1.0000
39.7000 490.0000 1.0000
39.7100 480.0000 1.0000
39.7200 521.0000 1.0000
39.7300 497.0000 1.0000
39.7400 490.0000 1.0000
39.7500 479.0000 1.0000
39.7600 504.0000 1.0000
39.7700 502.0000 1.0000
39.7800 493.0000 1.0000
39.7900 463.0000 1.0000
39.8000 476.0000 1.0000
39.8100 470.0000 1.0000
39.8200 487.0000 1.0000
39.8300 498.0000 1.0000
39.8400 497.0000 1.0000
39.8500 514.0000 1.0000
39.8600 496.0000 1.0000
39.8700 496.0000 1.0000
39.8800 442.0000 1.0000
39.8900 497.0000 1.0000
39.9000 497.0000 1.0000
39.9100 483.0000 1.0000
39.9200 532.0000 1.0000
39.9300 496.0000 1.0000
39.9400 460.0000 1.0000
39.9500 464.0000 1.0000
39.9600 478.0000 1.0000
39.9700 500.0000 1.0000
39.9800 472.0000 1.0000
39.9900 509.0000 1.0000
40.0000 507.0000 1.0000
40.0100 484.0000 1.0000
40.0200 467.0000 1.0000
40.0300 495.0000 1.0000
40.0400 502.0000 1.0000
40.0500 463.0000 1.0000
40.0600 502.0000 1.0000
40.0700 473.0000 1.0000
40.0800 449.0000 1.0000
40.0900 494.0000 1.0000
40.1000 485.0000 1.0000
40.1100 501.0000 1.0000
40.1200 516.0000 1.0000
40.1300 474.0000 1.0000
40.1400 511.0000 1.0000
40.1500 464.0000 1.0000
40.1600 522.0000 1.0000
40.1700 457.0000 1.0000
40.1800 496.0000 1.0000
40.1900 469.0000 1.0000
40.2000 494.0000 1.0000
40.2100 492.0000 1.0000
40.2200 475.0000 1.0000
40.2300 480.0000 1.0000
40.2400 489.0000 1.0000
40.2500 526.0000 1.0000
40.2600 494.0000 1.0000
40.2700 470.0000 1.0000
40.2800 486.0000 1.0000
40.2900 532.0000 1.0000
40.3000 481.0000 1.0000
40.3100 484.0000 1.0000
40.3200 462.0000 1.0000
40.3300 491.0000 1.0000
40.3400 489.0000 1.0000
40.3500 486.0000 1.0000
40.3600 481.0000 1.0000
40.3700 473.0000 1.0000
40.3800 485.0000 1.0000
40.3900 532.0000 1.0000
40.4000 445.0000 1.0000
40.4100 494.0000 1.0000
40.4200 473.0000 1.0000
40.4300 493.0000 1.0000
40.4400 474.0000 1.0000
40.4500 462.0000 1.0000
40.4600 455.0000 1.0000
40.4700 478.0000 1.0000
40.4800 488.0000 1.0000
40.4900 504.0000 1.0000
40.5000 488.0000 1.0000
40.5100 485.0000 1.0000
40.5200 479.0000 1.0000
40.5300 474.0000 1.0000
40.5400 517.0000 1.0000
40.5500 495.0000 1.0000
40.5600 517.0000 1.0000
40.5700 509.0000 1.0000
40.5800 475.0000 1.0000
40.5900 506.0000 1.0000
40.6000 465.0000 1.0000
40.6100 469.0000 1.0000
40.6200 487.0000 1.0000
40.6300 467.0000 1.0000
40.6400 476.0000 1.0000
40.6500 490.0000 1.0000
40.6600 497.0000 1.0000
40.6700 477.0000 1.0000
40.6800 507.0000 1.0000
40.6900 510.0000 1.0000
40.7000 487.0000 1.0000
40.7100 512.0000 1.0000
40.7200 549.0000 1.0000
40.7300 501.0000 1.0000
40.7400 499.0000 1.0000
40.7500 516.0000 1.0000
40.7600 509.0000 1.0000
40.7700 515.0000 1.0000
40.7800 510.0000 1.0000
40.7900 525.0000 1.0000
40.8000 518.0000 1.0000
40.8100 518.0000 1.0000
40.8200 516.0000 1.0000
40.8300 477.0000 1.0000
40.8400 522.0000 1.0000
40.8500 549.0000 1.0000
40.8600 515.0000 1.0000
40.8700 480.0000 1.0000
40.8800 522.0000 1.0000
40.8900 514.0000 1.0000
40.9000 476.0000 1.0000
40.9100 481.0000 1.0000
40.9200 494.0000 1.0000
40.9300 490.0000 1.0000
40.9400 481.0000 1.0000
40.9500 487.0000 1.0000
40.9600 520.0000 1.0000
40.9700 509.0000 1.0000
40.9800 490.0000 1.0000
40.9900 494.0000 1.0000
41.0000 482.0000 1.0000
41.0100 464.0000 1.0000
41.0200 483.0000 1.0000
41.0300 506.0000 1.0000
41.0400 475.0000 1.0000
41.0500 484.0000 1.0000
41.0600 498.0000 1.0000
41.0700 458.0000 1.0000
41.0800 456.0000 1.0000
41.0900 471.0000 1.0000
41.1000 436.0000 1.0000
41.1100 496.0000 1.0000
41.1200 506.0000 1.0000
41.1300 448.0000 1.0000
41.1400 476.0000 1.0000
41.1500 492.0000 1.0000
41.1600 478.0000 1.0000
41.1700 466.0000 1.0000
41.1800 475.0000 1.0000
41.1900 470.0000 1.0000
41.2000 481.0000 1.0000
41.2100 469.0000 1.0000
41.2200 455.0000 1.0000
41.2300 454.0000 1.0000
41.2400 507.0000 1.0000
41.2500 519.0000 1.0000
41.2600 448.0000 1.0000
41.2700 506.0000 1.0000
41.2800 497.0000 1.0000
41.2900 486.0000 1.0000
41.3000 485.0000 1.0000
41.3100 481.0000 1.0000
41.3200 474.0000 1.0000
41.3300 477.0000 1.0000
41.3400 460.0000 1.0000
41.3500 460.0000 1.0000
41.3600 471.0000 1.0000
41.3700 440.0000 1.0000
41.3800 444.0000 1.0000
41.3900 469.0000 1.0000
41.4000 451.0000 1.0000
41.4100 466.0000 1.0000
41.4200 469.0000 1.0000
41.4300 439.0000 1.0000
41.4400 515.0000 1.0000
41.4500 483.0000 1.0000
41.4600 482.0000 1.0000
41.4700 488.0000 1.0000
41.4800 478.0000 1.0000
41.4900 461.0000 1.0000
41.5000 456.0000 1.0000
41.5100 485.0000 1.0000
41.5200 464.0000 1.0000
41.5300 475.0000 1.0000
41.5400 490.0000 1.0000
41.5500 450.0000 1.0000
41.5600 445.0000 1.0000
41.5700 487.0000 1.0000
41.5800 474.0000 1.0000
41.5900 449.0000 1.0000
41.6000 454.0000 1.0000
41.6100 485.0000 1.0000
41.6200 465.0000 1.0000
41.6300 480.0000 1.0000
41.6400 463.0000 1.0000
41.6500 474.0000 1.0000
41.6600 446.0000 1.0000
41.6700 460.0000 1.0000
41.6800 454.0000 1.0000
41.6900 448.0000 1.0000
41.7000 448.0000 1.0000
41.7100 469.0000 1.0000
41.7200 453.0000 1.0000
41.7300 484.0000 1.0000
41.7400 450.0000 1.0000
41.7500 443.0000 1.0000
41.7600 482.0000 1.0000
41.7700 462.0000 1.0000
41.7800 464.0000 1.0000
41.7900 448.0000 1.0000
41.8000 491.0000 1.0000
41.8100 488.0000 1.0000
41.8200 449.0000 1.0000
41.8300 445.0000 1.0000
41.8400 443.0000 1.0000
41.8500 458.0000 1.0000
41.8600 497.0000 1.0000
41.8700 460.0000 1.0000
41.8800 457.0000 1.0000
41.8900 472.0000 1.0000
41.9000 455.0000 1.0000
41.9100 474.0000 1.0000
41.9200 434.0000 1.0000
41.9300 480.0000 1.0000
41.9400 445.0000 1.0000
41.9500 467.0000 1.0000
41.9600 473.0000 1.0000
41.9700 479.0000 1.0000
41.9800 477.0000 1.0000
41.9900 458.0000 1.0000
42.0000 469.0000 1.0000
42.0100 473.0000 1.0000
42.0200 486.0000 1.0000
42.0300 492.0000 1.0000
42.0400 475.0000 1.0000
42.0500 490.0000 1.0000
42.0600 470.0000 1.0000
42.0700 462.0000 1.0000
42.0800 475.0000 1.0000
42.0900 468.0000 1.0000
42.1000 462.0000 1.0000
42.1100 479.0000 1.0000
42.1200 497.0000 1.0000
42.1300 440.0000 1.0000
42.1400 464.0000 1.0000
42.1500 437.0000 1.0000
42.1600 443.0000 1.0000
42.1700 444.0000 1.0000
42.1800 472.0000 1.0000
42.1900 466.0000 1.0000
42.2000 489.0000 1.0000
42.2100 504.0000 1.0000
42.2200 501.0000 1.0000
42.2300 472.0000 1.0000
42.2400 481.0000 1.0000
42.2500 460.0000 1.0000
42.2600 450.0000 1.0000
42.2700 541.0000 1.0000
42.2800 502.0000 1.0000
42.2900 486.0000 1.0000
42.3000 476.0000 1.0000
42.3100 489.0000 1.0000
42.3200 503.0000 1.0000
42.3300 531.0000 1.0000
42.3400 512.0000 1.0000
42.3500 515.0000 1.0000
42.3600 522.0000 1.0000
42.3700 485.0000 1.0000
42.3800 513.0000 1.0000
42.3900 521.0000 1.0000
42.4000 467.0000 1.0000
42.4100 495.0000 1.0000
42.4200 479.0000 1.0000
42.4300 504.0000 1.0000
42.4400 488.0000 1.0000
42.4500 490.0000 1.0000
42.4600 475.0000 1.0000
42.4700 503.0000 1.0000
42.4800 523.0000 1.0000
42.4900 511.0000 1.0000
42.5000 519.0000 1.0000
42.5100 499.0000 1.0000
42.5200 497.0000 1.0000
42.5300 524.0000 1.0000
42.5400 478.0000 1.0000
42.5500 556.0000 1.0000
42.5600 522.0000 1.0000
42.5700 485.0000 1.0000
42.5800 489.0000 1.0000
42.5900 471.0000 1.0000
42.6000 496.0000 1.0000
42.6100 502.0000 1.0000
42.6200 487.0000 1.0000
42.6300 452.0000 1.0000
42.6400 460.0000 1.0000
42.6500 483.0000 1.0000
42.6600 496.0000 1.0000
42.6700 487.0000 1.0000
42.6800 495.0000 1.0000
42.6900 441.0000 1.0000
42.7000 447.0000 1.0000
42.7100 489.0000 1.0000
42.7200 474.0000 1.0000
42.7300 456.0000 1.0000
42.7400 480.0000 1.0000
42.7500 496.0000 1.0000
42.7600 479.0000 1.0000
42.7700 465.0000 1.0000
42.7800 455.0000 1.0000
42.7900 453.0000 1.0000
42.8000 417.0000 1.0000
42.8100 454.0000 1.0000
42.8200 443.0000 1.0000
42.8300 463.0000 1.0000
42.8400 433.0000 1.0000
42.8500 476.0000 1.0000
42.8600 460.0000 1.0000
42.8700 440.0000 1.0000
42.8800 488.0000 1.0000
42.8900 478.0000 1.0000
42.9000 494.0000 1.0000
42.9100 485.0000 1.0000
42.9200 493.0000 1.0000
42.9300 483.0000 1.0000
42.9400 473.0000 1.0000
42.9500 469.0000 1.0000
42.9600 424.0000 1.0000
42.9700 475.0000 1.0000
42.9800 477.0000 1.0000
42.9900 492.0000 1.0000
43.0000 449.0000 1.0000
43.0100 489.0000 1.0000
43.0200 439.0000 1.0000
43.0300 480.0000 1.0000
43.0400 489.0000 1.0000
43.0500 469.0000 1.0000
43.0600 465.0000 1.0000
43.0700 465.0000 1.0000
43.0800 452.0000 1.0000
43.0900 441.0000 1.0000
43.1000 429.0000 1.0000
43.1100 504.0000 1.0000
43.1200 461.0000 1.0000
43.1300 465.0000 1.0000
43.1400 450.0000 1.0000
43.1500 465.0000 1.0000
43.1600 479.0000 1.0000
43.1700 479.0000 1.0000
43.1800 453.0000 1.0000
43.1900 471.0000 1.0000
43.2000 474.0000 1.0000
43.2100 417.0000 1.0000
43.2200 433.0000 1.0000
43.2300 460.0000 1.0000
43.2400 476.0000 1.0000
43.2500 447.0000 1.0000
43.2600 460.0000 1.0000
43.2700 462.0000 1.0000
43.2800 453.0000 1.0000
43.2900 457.0000 1.0000
43.3000 478.0000 1.0000
43.3100 479.0000 1.0000
43.3200 465.0000 1.0000
43.3300 476.0000 1.0000
43.3400 438.0000 1.0000
43.3500 450.0000 1.0000
43.3600 450.0000 1.0000
43.3700 478.0000 1.0000
43.3800 460.0000 1.0000
43.3900 470.0000 1.0000
43.4000 475.0000 1.0000
43.4100 440.0000 1.0000
43.4200 441.0000 1.0000
43.4300 466.0000 1.0000
43.4400 485.0000 1.0000
43.4500 456.0000 1.0000
43.4600 490.0000 1.0000
43.4700 508.0000 1.0000
43.4800 457.0000 1.0000
43.4900 437.0000 1.0000
43.5000 474.0000 1.0000
43.5100 429.0000 1.0000
43.5200 471.0000 1.0000
43.5300 467.0000 1.0000
43.5400 470.0000 1.0000
43.5500 479.0000 1.0000
43.5600 471.0000 1.0000
43.5700 440.0000 1.0000
43.5800 470.0000 1.0000
43.5900 471.0000 1.0000
43.6000 485.0000 1.0000
43.6100 446.0000 1.0000
43.6200 461.0000 1.0000
43.6300 460.0000 1.0000
43.6400 439.0000 1.0000
43.6500 484.0000 1.0000
43.6600 493.0000 1.0000
43.6700 470.0000 1.0000
43.6800 486.0000 1.0000
43.6900 478.0000 1.0000
43.7000 438.0000 1.0000
43.7100 430.0000 1.0000
43.7200 451.0000 1.0000
43.7300 450.0000 1.0000
43.7400 447.0000 1.0000
43.7500 446.0000 1.0000
43.7600 440.0000 1.0000
43.7700 469.0000 1.0000
43.7800 478.0000 1.0000
43.7900 459.0000 1.0000
43.8000 471.0000 1.0000
43.8100 434.0000 1.0000
43.8200 459.0000 1.0000
43.8300 436.0000 1.0000
43.8400 462.0000 1.0000
43.8500 446.0000 1.0000
43.8600 477.0000 1.0000
43.8700 461.0000 1.0000
43.8800 439.0000 1.0000
43.8900 464.0000 1.0000
43.9000 471.0000 1.0000
43.9100 483.0000 1.0000
43.9200 462.0000 1.0000
43.9300 447.0000 1.0000
43.9400 452.0000 1.0000
43.9500 433.0000 1.0000
43.9600 442.0000 1.0000
43.9700 439.0000 1.0000
43.9800 453.0000 1.0000
43.9900 460.0000 1.0000
44.0000 442.0000 1.0000
44.0100 444.0000 1.0000
44.0200 448.0000 1.0000
44.0300 419.0000 1.0000
44.0400 459.0000 1.0000
44.0500 458.0000 1.0000
44.0600 429.0000 1.0000
44.0700 422.0000 1.0000
44.0800 450.0000 1.0000
44.0900 452.0000 1.0000
44.1000 419.0000 1.0000
44.1100 434.0000 1.0000
44.1200 444.0000 1.0000
44.1300 451.0000 1.0000
44.1400 455.0000 1.0000
44.1500 455.0000 1.0000
44.1600 461.0000 1.0000
44.1700 436.0000 1.0000
44.1800 474.0000 1.0000
44.1900 428.0000 1.0000
44.2000 452.0000 1.0000
44.2100 457.0000 1.0000
44.2200 427.0000 1.0000
44.2300 471.0000 1.0000
44.2400 443.0000 1.0000
44.2500 450.0000 1.0000
44.2600 445.0000 1.0000
44.2700 428.0000 1.0000
44.2800 448.0000 1.0000
44.2900 443.0000 1.0000
44.3000 435.0000 1.0000
44.3100 432.0000 1.0000
44.3200 464.0000 1.0000
44.3300 425.0000 1.0000
44.3400 447.0000 1.0000
44.3500 429.0000 1.0000
44.3600 455.0000 1.0000
44.3700 462.0000 1.0000
44.3800 458.0000 1.0000
44.3900 445.0000 1.0000
44.4000 450.0000 1.0000
44.4100 436.0000 1.0000
44.4200 416.0000 1.0000
44.4300 428.0000 1.0000
44.4400 468.0000 1.0000
44.4500 424.0000 1.0000
44.4600 442.0000 1.0000
44.4700 456.0000 1.0000
44.4800 434.0000 1.0000
44.4900 466.0000 1.0000
44.5000 450.0000 1.0000
44.5100 447.0000 1.0000
44.5200 426.0000 1.0000
44.5300 432.0000 1.0000
44.5400 427.0000 1.0000
44.5500 463.0000 1.0000
44.5600 472.0000 1.0000
44.5700 443.0000 1.0000
44.5800 402.0000 1.0000
44.5900 428.0000 1.0000
44.6000 431.0000 1.0000
44.6100 458.0000 1.0000
44.6200 453.0000 1.0000
44.6300 438.0000 1.0000
44.6400 439.0000 1.0000
44.6500 428.0000 1.0000
44.6600 440.0000 1.0000
44.6700 423.0000 1.0000
44.6800 450.0000 1.0000
44.6900 428.0000 1.0000
44.7000 459.0000 1.0000
44.7100 415.0000 1.0000
44.7200 475.0000 1.0000
44.7300 462.0000 1.0000
44.7400 449.0000 1.0000
44.7500 462.0000 1.0000
44.7600 454.0000 1.0000
44.7700 439.0000 1.0000
44.7800 451.0000 1.0000
44.7900 460.0000 1.0000
44.8000 453.0000 1.0000
44.8100 422.0000 1.0000
44.8200 382.0000 1.0000
44.8300 434.0000 1.0000
44.8400 439.0000 1.0000
44.8500 458.0000 1.0000
44.8600 483.0000 1.0000
44.8700 432.0000 1.0000
44.8800 440.0000 1.0000
44.8900 437.0000 1.0000
44.9000 463.0000 1.0000
44.9100 467.0000 1.0000
44.9200 454.0000 1.0000
44.9300 450.0000 1.0000
44.9400 431.0000 1.0000
44.9500 455.0000 1.0000
44.9600 387.0000 1.0000
44.9700 439.0000 1.0000
44.9800 440.0000 1.0000
44.9900 438.0000 1.0000
45.0000 453.0000 1.0000
45.0100 440.0000 1.0000
45.0200 432.0000 1.0000
45.0300 408.0000 1.0000
45.0400 445.0000 1.0000
45.0500 446.0000 1.0000
45.0600 440.0000 1.0000
45.0700 438.0000 1.0000
45.0800 440.0000 1.0000
45.0900 452.0000 1.0000
45.1000 415.0000 1.0000
45.1100 424.0000 1.0000
45.1200 414.0000 1.0000
45.1300 456.0000 1.0000
45.1400 407.0000 1.0000
45.1500 460.0000 1.0000
45.1600 441.0000 1.0000
45.1700 434.0000 1.0000
45.1800 450.0000 1.0000
45.1900 450.0000 1.0000
45.2000 449.0000 1.0000
45.2100 420.0000 1.0000
45.2200 440.0000 1.0000
45.2300 458.0000 1.0000
45.2400 422.0000 1.0000
45.2500 449.0000 1.0000
45.2600 441.0000 1.0000
45.2700 415.0000 1.0000
45.2800 440.0000 1.0000
45.2900 454.0000 1.0000
45.3000 438.0000 1.0000
45.3100 418.0000 1.0000
45.3200 414.0000 1.0000
45.3300 441.0000 1.0000
45.3400 416.0000 1.0000
45.3500 410.0000 1.0000
45.3600 459.0000 1.0000
45.3700 456.0000 1.0000
45.3800 410.0000 1.0000
45.3900 415.0000 1.0000
45.4000 423.0000 1.0000
45.4100 437.0000 1.0000
45.4200 452.0000 1.0000
45.4300 436.0000 1.0000
45.4400 421.0000 1.0000
45.4500 418.0000 1.0000
45.4600 429.0000 1.0000
45.4700 400.0000 1.0000
45.4800 430.0000 1.0000
45.4900 418.0000 1.0000
45.5000 421.0000 1.0000
45.5100 414.0000 1.0000
45.5200 395.0000 1.0000
45.5300 423.0000 1.0000
45.5400 432.0000 1.0000
45.5500 431.0000 1.0000
45.5600 419.0000 1.0000
45.5700 430.0000 1.0000
45.5800 394.0000 1.0000
45.5900 409.0000 1.0000
45.6000 436.0000 1.0000
45.6100 447.0000 1.0000
45.6200 461.0000 1.0000
45.6300 434.0000 1.0000
45.6400 419.0000 1.0000
45.6500 412.0000 1.0000
45.6600 425.0000 1.0000
45.6700 443.0000 1.0000
45.6800 411.0000 1.0000
45.6900 425.0000 1.0000
45.7000 428.0000 1.0000
45.7100 426.0000 1.0000
45.7200 385.0000 1.0000
45.7300 417.0000 1.0000
45.7400 416.0000 1.0000
45.7500 453.0000 1.0000
45.7600 432.0000 1.0000
45.7700 410.0000 1.0000
45.7800 453.0000 1.0000
45.7900 463.0000 1.0000
45.8000 437.0000 1.0000
45.8100 423.0000 1.0000
45.8200 422.0000 1.0000
45.8300 478.0000 1.0000
45.8400 390.0000 1.0000
45.8500 413.0000 1.0000
45.8600 409.0000 1.0000
45.8700 413.0000 1.0000
45.8800 466.0000 1.0000
45.8900 439.0000 1.0000
45.9000 441.0000 1.0000
45.9100 451.0000 1.0000
45.9200 435.0000 1.0000
45.9300 454.0000 1.0000
45.9400 425.0000 1.0000
45.9500 424.0000 1.0000
45.9600 412.0000 1.0000
45.9700 399.0000 1.0000
45.9800 430.0000 1.0000
45.9900 430.0000 1.0000
46.0000 395.0000 1.0000
46.0100 420.0000 1.0000
46.0200 437.0000 1.0000
46.0300 393.0000 1.0000
46.0400 429.0000 1.0000
46.0500 442.0000 1.0000
46.0600 433.0000 1.0000
46.0700 411.0000 1.0000
46.0800 435.0000 1.0000
46.0900 442.0000 1.0000
46.1000 445.0000 1.0000
46.1100 464.0000 1.0000
46.1200 430.0000 1.0000
46.1300 441.0000 1.0000
46.1400 437.0000 1.0000
46.1500 450.0000 1.0000
46.1600 437.0000 1.0000
46.1700 454.0000 1.0000
46.1800 451.0000 1.0000
46.1900 458.0000 1.0000
46.2000 457.0000 1.0000
46.2100 465.0000 1.0000
46.2200 450.0000 1.0000
46.2300 432.0000 1.0000
46.2400 429.0000 1.0000
46.2500 416.0000 1.0000
46.2600 424.0000 1.0000
46.2700 431.0000 1.0000
46.2800 428.0000 1.0000
46.2900 422.0000 1.0000
46.3000 420.0000 1.0000
46.3100 438.0000 1.0000
46.3200 387.0000 1.0000
46.3300 406.0000 1.0000
46.3400 404.0000 1.0000
46.3500 445.0000 1.0000
46.3600 433.0000 1.0000
46.3700 441.0000 1.0000
46.3800 462.0000 1.0000
46.3900 452.0000 1.0000
46.4000 420.0000 1.0000
46.4100 406.0000 1.0000
46.4200 408.0000 1.0000
46.4300 397.0000 1.0000
46.4400 432.0000 1.0000
46.4500 442.0000 1.0000
46.4600 420.0000 1.0000
46.4700 458.0000 1.0000
46.4800 434.0000 1.0000
46.4900 409.0000 1.0000
46.5000 421.0000 1.0000
46.5100 393.0000 1.0000
46.5200 408.0000 1.0000
46.5300 396.0000 1.0000
46.5400 404.0000 1.0000
46.5500 431.0000 1.0000
46.5600 430.0000 1.0000
46.5700 436.0000 1.0000
46.5800 421.0000 1.0000
46.5900 431.0000 1.0000
46.6000 401.0000 1.0000
46.6100 419.0000 1.0000
46.6200 429.0000 1.0000
46.6300 423.0000 1.0000
46.6400 423.0000 1.0000
46.6500 418.0000 1.0000
46.6600 447.0000 1.0000
46.6700 397.0000 1.0000
46.6800 431.0000 1.0000
46.6900 409.0000 1.0000
46.7000 446.0000 1.0000
46.7100 455.0000 1.0000
46.7200 419.0000 1.0000
46.7300 430.0000 1.0000
46.7400 387.0000 1.0000
46.7500 403.0000 1.0000
46.7600 403.0000 1.0000
46.7700 424.0000 1.0000
46.7800 408.0000 1.0000
46.7900 417.0000 1.0000
46.8000 415.0000 1.0000
46.8100 387.0000 1.0000
46.8200 412.0000 1.0000
46.8300 407.0000 1.0000
46.8400 397.0000 1.0000
46.8500 403.0000 1.0000
46.8600 453.0000 1.0000
46.8700 417.0000 1.0000
46.8800 428.0000 1.0000
46.8900 430.0000 1.0000
46.9000 426.0000 1.0000
46.9100 434.0000 1.0000
46.9200 401.0000 1.0000
46.9300 409.0000 1.0000
46.9400 398.0000 1.0000
46.9500 390.0000 1.0000
46.9600 393.0000 1.0000
46.9700 422.0000 1.0000
46.9800 388.0000 1.0000
46.9900 396.0000 1.0000
47.0000 398.0000 1.0000
47.0100 429.0000 1.0000
47.0200 419.0000 1.0000
47.0300 416.0000 1.0000
47.0400 402.0000 1.0000
47.0500 422.0000 1.0000
47.0600 406.0000 1.0000
47.0700 426.0000 1.0000
47.0800 400.0000 1.0000
47.0900 420.0000 1.0000
47.1000 396.0000 1.0000
47.1100 429.0000 1.0000
47.1200 415.0000 1.0000
47.1300 427.0000 1.0000
47.1400 407.0000 1.0000
47.1500 383.0000 1.0000
47.1600 392.0000 1.0000
47.1700 413.0000 1.0000
47.1800 417.0000 1.0000
47.1900 450.0000 1.0000
47.2000 424.0000 1.0000
47.2100 424.0000 1.0000
47.2200 405.0000 1.0000
47.2300 383.0000 1.0000
47.2400 436.0000 1.0000
47.2500 399.0000 1.0000
47.2600 441.0000 1.0000
47.2700 390.0000 1.0000
47.2800 428.0000 1.0000
47.2900 408.0000 1.0000
47.3000 427.0000 1.0000
47.3100 392.0000 1.0000
47.3200 400.0000 1.0000
47.3300 423.0000 1.0000
47.3400 407.0000 1.0000
47.3500 404.0000 1.0000
47.3600 399.0000 1.0000
47.3700 423.0000 1.0000
47.3800 424.0000 1.0000
47.3900 397.0000 1.0000
47.4000 376.0000 1.0000
47.4100 436.0000 1.0000
47.4200 429.0000 1.0000
47.4300 378.0000 1.0000
47.4400 393.0000 1.0000
47.4500 424.0000 1.0000
47.4600 436.0000 1.0000
47.4700 420.0000 1.0000
47.4800 411.0000 1.0000
47.4900 399.0000 1.0000
47.5000 410.0000 1.0000
47.5100 423.0000 1.0000
47.5200 438.0000 1.0000
47.5300 424.0000 1.0000
47.5400 440.0000 1.0000
47.5500 406.0000 1.0000
47.5600 401.0000 1.0000
47.5700 406.0000 1.0000
47.5800 414.0000 1.0000
47.5900 443.0000 1.0000
47.6000 423.0000 1.0000
47.6100 432.0000 1.0000
47.6200 389.0000 1.0000
47.6300 380.0000 1.0000
47.6400 409.0000 1.0000
47.6500 391.0000 1.0000
47.6600 418.0000 1.0000
47.6700 424.0000 1.0000
47.6800 407.0000 1.0000
47.6900 400.0000 1.0000
47.7000 398.0000 1.0000
47.7100 388.0000 1.0000
47.7200 452.0000 1.0000
47.7300 379.0000 1.0000
47.7400 411.0000 1.0000
47.7500 393.0000 1.0000
47.7600 398.0000 1.0000
47.7700 397.0000 1.0000
47.7800 378.0000 1.0000
47.7900 400.0000 1.0000
47.8000 385.0000 1.0000
47.8100 415.0000 1.0000
47.8200 394.0000 1.0000
47.8300 408.0000 1.0000
47.8400 445.0000 1.0000
47.8500 438.0000 1.0000
47.8600 396.0000 1.0000
47.8700 397.0000 1.0000
47.8800 400.0000 1.0000
47.8900 373.0000 1.0000
47.9000 424.0000 1.0000
47.9100 425.0000 1.0000
47.9200 412.0000 1.0000
47.9300 380.0000 1.0000
47.9400 392.0000 1.0000
47.9500 419.0000 1.0000
47.9600 407.0000 1.0000
47.9700 413.0000 1.0000
47.9800 384.0000 1.0000
47.9900 415.0000 1.0000
48.0000 415.0000 1.0000
48.0100 416.0000 1.0000
48.0200 409.0000 1.0000
48.0300 422.0000 1.0000
48.0400 436.0000 1.0000
48.0500 405.0000 1.0000
48.0600 424.0000 1.0000
48.0700 413.0000 1.0000
48.0800 394.0000 1.0000
48.0900 426.0000 1.0000
48.1000 409.0000 1.0000
48.1100 391.0000 1.0000
48.1200 392.0000 1.0000
48.1300 438.0000 1.0000
48.1400 408.0000 1.0000
48.1500 436.0000 1.0000
48.1600 404.0000 1.0000
48.1700 379.0000 1.0000
48.1800 399.0000 1.0000
48.1900 391.0000 1.0000
48.2000 414.0000 1.0000
48.2100 407.0000 1.0000
48.2200 411.0000 1.0000
48.2300 389.0000 1.0000
48.2400 426.0000 1.0000
48.2500 407.0000 1.0000
48.2600 373.0000 1.0000
48.2700 407.0000 1.0000
48.2800 403.0000 1.0000
48.2900 431.0000 1.0000
48.3000 408.0000 1.0000
48.3100 397.0000 1.0000
48.3200 414.0000 1.0000
48.3300 400.0000 1.0000
48.3400 403.0000 1.0000
48.3500 412.0000 1.0000
48.3600 424.0000 1.0000
48.3700 421.0000 1.0000
48.3800 373.0000 1.0000
48.3900 409.0000 1.0000
48.4000 403.0000 1.0000
48.4100 408.0000 1.0000
48.4200 394.0000 1.0000
48.4300 415.0000 1.0000
48.4400 393.0000 1.0000
48.4500 406.0000 1.0000
48.4600 438.0000 1.0000
48.4700 389.0000 1.0000
48.4800 399.0000 1.0000
48.4900 415.0000 1.0000
48.5000 406.0000 1.0000
48.5100 412.0000 1.0000
48.5200 364.0000 1.0000
48.5300 415.0000 1.0000
48.5400 429.0000 1.0000
48.5500 380.0000 1.0000
48.5600 385.0000 1.0000
48.5700 380.0000 1.0000
48.5800 420.0000 1.0000
48.5900 415.0000 1.0000
48.6000 407.0000 1.0000
48.6100 388.0000 1.0000
48.6200 398.0000 1.0000
48.6300 373.0000 1.0000
48.6400 389.0000 1.0000
48.6500 437.0000 1.0000
48.6600 410.0000 1.0000
48.6700 385.0000 1.0000
48.6800 415.0000 1.0000
48.6900 400.0000 1.0000
48.7000 408.0000 1.0000
48.7100 416.0000 1.0000
48.7200 401.0000 1.0000
48.7300 398.0000 1.0000
48.7400 381.0000 1.0000
48.7500 395.0000 1.0000
48.7600 386.0000 1.0000
48.7700 379.0000 1.0000
48.7800 400.0000 1.0000
48.7900 418.0000 1.0000
48.8000 413.0000 1.0000
48.8100 403.0000 1.0000
48.8200 390.0000 1.0000
48.8300 401.0000 1.0000
48.8400 403.0000 1.0000
48.8500 422.0000 1.0000
48.8600 423.0000 1.0000
48.8700 421.0000 1.0000
48.8800 377.0000 1.0000
48.8900 365.0000 1.0000
48.9000 395.0000 1.0000
48.9100 395.0000 1.0000
48.9200 395.0000 1.0000
48.9300 419.0000 1.0000
48.9400 385.0000 1.0000
48.9500 432.0000 1.0000
48.9600 430.0000 1.0000
48.9700 388.0000 1.0000
48.9800 417.0000 1.0000
48.9900 427.0000 1.0000
49.0000 406.0000 1.0000
49.0100 395.0000 1.0000
49.0200 389.0000 1.0000
49.0300 398.0000 1.0000
49.0400 367.0000 1.0000
49.0500 412.0000 1.0000
49.0600 395.0000 1.0000
49.0700 392.0000 1.0000
49.0800 423.0000 1.0000
49.0900 408.0000 1.0000
49.1000 416.0000 1.0000
49.1100 387.0000 1.0000
49.1200 396.0000 1.0000
49.1300 391.0000 1.0000
49.1400 428.0000 1.0000
49.1500 398.0000 1.0000
49.1600 406.0000 1.0000
49.1700 400.0000 1.0000
49.1800 413.0000 1.0000
49.1900 411.0000 1.0000
49.2000 392.0000 1.0000
49.2100 416.0000 1.0000
49.2200 416.0000 1.0000
49.2300 445.0000 1.0000
49.2400 408.0000 1.0000
49.2500 426.0000 1.0000
49.2600 423.0000 1.0000
49.2700 431.0000 1.0000
49.2800 418.0000 1.0000
49.2900 411.0000 1.0000
49.3000 434.0000 1.0000
49.3100 442.0000 1.0000
49.3200 436.0000 1.0000
49.3300 427.0000 1.0000
49.3400 403.0000 1.0000
49.3500 418.0000 1.0000
49.3600 441.0000 1.0000
49.3700 451.0000 1.0000
49.3800 437.0000 1.0000
49.3900 465.0000 1.0000
49.4000 439.0000 1.0000
49.4100 472.0000 1.0000
49.4200 449.0000 1.0000
49.4300 416.0000 1.0000
49.4400 414.0000 1.0000
49.4500 411.0000 1.0000
49.4600 424.0000 1.0000
49.4700 416.0000 1.0000
49.4800 416.0000 1.0000
49.4900 438.0000 1.0000
49.5000 414.0000 1.0000
49.5100 434.0000 1.0000
49.5200 386.0000 1.0000
49.5300 442.0000 1.0000
49.5400 419.0000 1.0000
49.5500 400.0000 1.0000
49.5600 419.0000 1.0000
49.5700 431.0000 1.0000
49.5800 423.0000 1.0000
49.5900 409.0000 1.0000
49.6000 409.0000 1.0000
49.6100 411.0000 1.0000
49.6200 409.0000 1.0000
49.6300 420.0000 1.0000
49.6400 375.0000 1.0000
49.6500 422.0000 1.0000
49.6600 430.0000 1.0000
49.6700 454.0000 1.0000
49.6800 426.0000 1.0000
49.6900 393.0000 1.0000
49.7000 402.0000 1.0000
49.7100 384.0000 1.0000
49.7200 420.0000 1.0000
49.7300 407.0000 1.0000
49.7400 423.0000 1.0000
49.7500 426.0000 1.0000
49.7600 414.0000 1.0000
49.7700 406.0000 1.0000
49.7800 396.0000 1.0000
49.7900 417.0000 1.0000
49.8000 443.0000 1.0000
49.8100 401.0000 1.0000
49.8200 431.0000 1.0000
49.8300 417.0000 1.0000
49.8400 409.0000 1.0000
49.8500 432.0000 1.0000
49.8600 418.0000 1.0000
49.8700 420.0000 1.0000
49.8800 422.0000 1.0000
49.8900 388.0000 1.0000
49.9000 404.0000 1.0000
49.9100 407.0000 1.0000
49.9200 411.0000 1.0000
49.9300 396.0000 1.0000
49.9400 394.0000 1.0000
49.9500 406.0000 1.0000
49.9600 409.0000 1.0000
49.9700 430.0000 1.0000
49.9800 419.0000 1.0000
49.9900 402.0000 1.0000
50.0000 362.0000 1.0000
50.0100 397.0000 1.0000
50.0200 401.0000 1.0000
50.0300 397.0000 1.0000
50.0400 405.0000 1.0000
50.0500 408.0000 1.0000
50.0600 415.0000 1.0000
50.0700 431.0000 1.0000
50.0800 366.0000 1.0000
50.0900 373.0000 1.0000
50.1000 406.0000 1.0000
50.1100 403.0000 1.0000
50.1200 365.0000 1.0000
50.1300 411.0000 1.0000
50.1400 420.0000 1.0000
50.1500 458.0000 1.0000
50.1600 413.0000 1.0000
50.1700 383.0000 1.0000
50.1800 382.0000 1.0000
50.1900 408.0000 1.0000
50.2000 427.0000 1.0000
50.2100 393.0000 1.0000
50.2200 389.0000 1.0000
50.2300 410.0000 1.0000
50.2400 397.0000 1.0000
50.2500 402.0000 1.0000
50.2600 405.0000 1.0000
50.2700 421.0000 1.0000
50.2800 409.0000 1.0000
50.2900 412.0000 1.0000
50.3000 413.0000 1.0000
50.3100 433.0000 1.0000
50.3200 395.0000 1.0000
50.3300 413.0000 1.0000
50.3400 421.0000 1.0000
50.3500 391.0000 1.0000
50.3600 394.0000 1.0000
50.3700 407.0000 1.0000
50.3800 402.0000 1.0000
50.3900 411.0000 1.0000
50.4000 399.0000 1.0000
50.4100 423.0000 1.0000
50.4200 404.0000 1.0000
50.4300 421.0000 1.0000
50.4400 433.0000 1.0000
50.4500 443.0000 1.0000
50.4600 404.0000 1.0000
50.4700 409.0000 1.0000
50.4800 425.0000 1.0000
50.4900 417.0000 1.0000
50.5000 424.0000 1.0000
50.5100 416.0000 1.0000
50.5200 417.0000 1.0000
50.5300 392.0000 1.0000
50.5400 417.0000 1.0000
50.5500 431.0000 1.0000
50.5600 419.0000 1.0000
50.5700 399.0000 1.0000
50.5800 376.0000 1.0000
50.5900 426.0000 1.0000
50.6000 438.0000 1.0000
50.6100 383.0000 1.0000
50.6200 412.0000 1.0000
50.6300 378.0000 1.0000
50.6400 407.0000 1.0000
50.6500 418.0000 1.0000
50.6600 412.0000 1.0000
50.6700 410.0000 1.0000
50.6800 411.0000 1.0000
50.6900 404.0000 1.0000
50.7000 410.0000 1.0000
50.7100 412.0000 1.0000
50.7200 416.0000 1.0000
50.7300 429.0000 1.0000
50.7400 411.0000 1.0000
50.7500 428.0000 1.0000
50.7600 394.0000 1.0000
50.7700 460.0000 1.0000
50.7800 411.0000 1.0000
50.7900 389.0000 1.0000
50.8000 394.0000 1.0000
50.8100 423.0000 1.0000
50.8200 429.0000 1.0000
50.8300 419.0000 1.0000
50.8400 426.0000 1.0000
50.8500 438.0000 1.0000
50.8600 417.0000 1.0000
50.8700 434.0000 1.0000
50.8800 439.0000 1.0000
50.8900 486.0000 1.0000
50.9000 464.0000 1.0000
50.9100 440.0000 1.0000
50.9200 462.0000 1.0000
50.9300 440.0000 1.0000
50.9400 423.0000 1.0000
50.9500 470.0000 1.0000
50.9600 432.0000 1.0000
50.9700 439.0000 1.0000
50.9800 424.0000 1.0000
50.9900 456.0000 1.0000
51.0000 443.0000 1.0000
51.0100 475.0000 1.0000
51.0200 463.0000 1.0000
51.0300 454.0000 1.0000
51.0400 467.0000 1.0000
51.0500 482.0000 1.0000
51.0600 509.0000 1.0000
51.0700 500.0000 1.0000
51.0800 478.0000 1.0000
51.0900 486.0000 1.0000
51.1000 488.0000 1.0000
51.1100 527.0000 1.0000
51.1200 513.0000 1.0000
51.1300 509.0000 1.0000
51.1400 548.0000 1.0000
51.1500 552.0000 1.0000
51.1600 567.0000 1.0000
51.1700 573.0000 1.0000
51.1800 605.0000 1.0000
51.1900 631.0000 1.0000
51.2000 665.0000 1.0000
51.2100 628.0000 1.0000
51.2200 657.0000 1.0000
51.2300 718.0000 1.0000
51.2400 737.0000 1.0000
51.2500 770.0000 1.0000
51.2600 780.0000 1.0000
51.2700 768.0000 1.0000
51.2800 904.0000 1.0000
51.2900 886.0000 1.0000
51.3000 928.0000 1.0000
51.3100 1020.0000 1.0000
51.3200 1127.0000 1.0000
51.3300 1144.0000 1.0000
51.3400 1266.0000 1.0000
51.3500 1409.0000 1.0000
51.3600 1557.0000 1.0000
51.3700 1584.0000 1.0000
51.3800 1769.0000 1.0000
51.3900 1934.0000 1.0000
51.4000 2113.0000 1.0000
51.4100 2184.0000 1.0000
51.4200 2320.0000 1.0000
51.4300 2483.0000 1.0000
51.4400 2647.0000 1.0000
51.4500 2736.0000 1.0000
51.4600 2783.0000 1.0000
51.4700 2762.0000 1.0000
51.4800 2827.0000 1.0000
51.4900 2761.0000 1.0000
51.5000 2738.0000 1.0000
51.5100 2659.0000 1.0000
51.5200 2621.0000 1.0000
51.5300 2521.0000 1.0000
51.5400 2385.0000 1.0000
51.5500 2356.0000 1.0000
51.5600 2267.0000 1.0000
51.5700 2221.0000 1.0000
51.5800 2187.0000 1.0000
51.5900 2104.0000 1.0000
51.6000 2026.0000 1.0000
51.6100 1968.0000 1.0000
51.6200 1902.0000 1.0000
51.6300 1850.0000 1.0000
51.6400 1774.0000 1.0000
51.6500 1657.0000 1.0000
51.6600 1513.0000 1.0000
51.6700 1386.0000 1.0000
51.6800 1268.0000 1.0000
51.6900 1235.0000 1.0000
51.7000 1122.0000 1.0000
51.7100 1011.0000 1.0000
51.7200 971.0000 1.0000
51.7300 928.0000 1.0000
51.7400 860.0000 1.0000
51.7500 858.0000 1.0000
51.7600 800.0000 1.0000
51.7700 761.0000 1.0000
51.7800 751.0000 1.0000
51.7900 709.0000 1.0000
51.8000 726.0000 1.0000
51.8100 682.0000 1.0000
51.8200 651.0000 1.0000
51.8300 601.0000 1.0000
51.8400 653.0000 1.0000
51.8500 624.0000 1.0000
51.8600 594.0000 1.0000
51.8700 547.0000 1.0000
51.8800 581.0000 1.0000
51.8900 580.0000 1.0000
51.9000 538.0000 1.0000
51.9100 518.0000 1.0000
51.9200 524.0000 1.0000
51.9300 499.0000 1.0000
51.9400 512.0000 1.0000
51.9500 492.0000 1.0000
51.9600 475.0000 1.0000
51.9700 515.0000 1.0000
51.9800 512.0000 1.0000
51.9900 472.0000 1.0000
52.0000 515.0000 1.0000
52.0100 463.0000 1.0000
52.0200 450.0000 1.0000
52.0300 467.0000 1.0000
52.0400 483.0000 1.0000
52.0500 474.0000 1.0000
52.0600 440.0000 1.0000
52.0700 440.0000 1.0000
52.0800 456.0000 1.0000
52.0900 451.0000 1.0000
52.1000 394.0000 1.0000
52.1100 437.0000 1.0000
52.1200 430.0000 1.0000
52.1300 438.0000 1.0000
52.1400 456.0000 1.0000
52.1500 460.0000 1.0000
52.1600 472.0000 1.0000
52.1700 448.0000 1.0000
52.1800 428.0000 1.0000
52.1900 463.0000 1.0000
52.2000 428.0000 1.0000
52.2100 438.0000 1.0000
52.2200 398.0000 1.0000
52.2300 409.0000 1.0000
52.2400 420.0000 1.0000
52.2500 448.0000 1.0000
52.2600 408.0000 1.0000
52.2700 400.0000 1.0000
52.2800 422.0000 1.0000
52.2900 414.0000 1.0000
52.3000 444.0000 1.0000
52.3100 416.0000 1.0000
52.3200 426.0000 1.0000
52.3300 437.0000 1.0000
52.3400 419.0000 1.0000
52.3500 427.0000 1.0000
52.3600 388.0000 1.0000
52.3700 403.0000 1.0000
52.3800 404.0000 1.0000
52.3900 392.0000 1.0000
52.4000 361.0000 1.0000
52.4100 430.0000 1.0000
52.4200 416.0000 1.0000
52.4300 411.0000 1.0000
52.4400 413.0000 1.0000
52.4500 439.0000 1.0000
52.4600 419.0000 1.0000
52.4700 412.0000 1.0000
52.4800 418.0000 1.0000
52.4900 393.0000 1.0000
52.5000 411.0000 1.0000
52.5100 400.0000 1.0000
52.5200 397.0000 1.0000
52.5300 431.0000 1.0000
52.5400 388.0000 1.0000
52.5500 431.0000 1.0000
52.5600 405.0000 1.0000
52.5700 427.0000 1.0000
52.5800 424.0000 1.0000
52.5900 381.0000 1.0000
52.6000 397.0000 1.0000
52.6100 401.0000 1.0000
52.6200 414.0000 1.0000
52.6300 417.0000 1.0000
52.6400 408.0000 1.0000
52.6500 405.0000 1.0000
52.6600 396.0000 1.0000
52.6700 421.0000 1.0000
52.6800 418.0000 1.0000
52.6900 419.0000 1.0000
52.7000 426.0000 1.0000
52.7100 417.0000 1.0000
52.7200 402.0000 1.0000
52.7300 426.0000 1.0000
52.7400 380.0000 1.0000
52.7500 392.0000 1.0000
52.7600 428.0000 1.0000
52.7700 358.0000 1.0000
52.7800 374.0000 1.0000
52.7900 407.0000 1.0000
52.8000 400.0000 1.0000
52.8100 399.0000 1.0000
52.8200 425.0000 1.0000
52.8300 379.0000 1.0000
52.8400 406.0000 1.0000
52.8500 401.0000 1.0000
52.8600 384.0000 1.0000
52.8700 400.0000 1.0000
52.8800 395.0000 1.0000
52.8900 383.0000 1.0000
52.9000 388.0000 1.0000
52.9100 410.0000 1.0000
52.9200 378.0000 1.0000
52.9300 351.0000 1.0000
52.9400 398.0000 1.0000
52.9500 378.0000 1.0000
52.9600 413.0000 1.0000
52.9700 382.0000 1.0000
52.9800 378.0000 1.0000
52.9900 406.0000 1.0000
53.0000 405.0000 1.0000
53.0100 405.0000 1.0000
53.0200 406.0000 1.0000
53.0300 390.0000 1.0000
53.0400 394.0000 1.0000
53.0500 406.0000 1.0000
53.0600 400.0000 1.0000
53.0700 403.0000 1.0000
53.0800 414.0000 1.0000
53.0900 417.0000 1.0000
53.1000 397.0000 1.0000
53.1100 414.0000 1.0000
53.1200 378.0000 1.0000
53.1300 373.0000 1.0000
53.1400 391.0000 1.0000
53.1500 406.0000 1.0000
53.1600 412.0000 1.0000
53.1700 400.0000 1.0000
53.1800 405.0000 1.0000
53.1900 390.0000 1.0000
53.2000 393.0000 1.0000
53.2100 387.0000 1.0000
53.2200 370.0000 1.0000
53.2300 384.0000 1.0000
53.2400 379.0000 1.0000
53.2500 382.0000 1.0000
53.2600 398.0000 1.0000
53.2700 396.0000 1.0000
53.2800 395.0000 1.0000
53.2900 358.0000 1.0000
53.3000 397.0000 1.0000
53.3100 371.0000 1.0000
53.3200 405.0000 1.0000
53.3300 403.0000 1.0000
53.3400 406.0000 1.0000
53.3500 392.0000 1.0000
53.3600 362.0000 1.0000
53.3700 406.0000 1.0000
53.3800 428.0000 1.0000
53.3900 399.0000 1.0000
53.4000 368.0000 1.0000
53.4100 368.0000 1.0000
53.4200 385.0000 1.0000
53.4300 381.0000 1.0000
53.4400 395.0000 1.0000
53.4500 373.0000 1.0000
53.4600 375.0000 1.0000
53.4700 375.0000 1.0000
53.4800 406.0000 1.0000
53.4900 391.0000 1.0000
53.5000 381.0000 1.0000
53.5100 409.0000 1.0000
53.5200 377.0000 1.0000
53.5300 389.0000 1.0000
53.5400 372.0000 1.0000
53.5500 384.0000 1.0000
53.5600 358.0000 1.0000
53.5700 395.0000 1.0000
53.5800 411.0000 1.0000
53.5900 392.0000 1.0000
53.6000 410.0000 1.0000
53.6100 408.0000 1.0000
53.6200 413.0000 1.0000
53.6300 372.0000 1.0000
53.6400 393.0000 1.0000
53.6500 412.0000 1.0000
53.6600 379.0000 1.0000
53.6700 396.0000 1.0000
53.6800 372.0000 1.0000
53.6900 394.0000 1.0000
53.7000 392.0000 1.0000
53.7100 417.0000 1.0000
53.7200 425.0000 1.0000
53.7300 434.0000 1.0000
53.7400 396.0000 1.0000
53.7500 371.0000 1.0000
53.7600 411.0000 1.0000
53.7700 409.0000 1.0000
53.7800 409.0000 1.0000
53.7900 403.0000 1.0000
53.8000 384.0000 1.0000
53.8100 411.0000 1.0000
53.8200 412.0000 1.0000
53.8300 413.0000 1.0000
53.8400 419.0000 1.0000
53.8500 408.0000 1.0000
53.8600 425.0000 1.0000
53.8700 415.0000 1.0000
53.8800 408.0000 1.0000
53.8900 442.0000 1.0000
53.9000 435.0000 1.0000
53.9100 425.0000 1.0000
53.9200 431.0000 1.0000
53.9300 418.0000 1.0000
53.9400 446.0000 1.0000
53.9500 419.0000 1.0000
53.9600 410.0000 1.0000
53.9700 427.0000 1.0000
53.9800 444.0000 1.0000
53.9900 459.0000 1.0000
54.0000 488.0000 1.0000
54.0100 468.0000 1.0000
54.0200 440.0000 1.0000
54.0300 399.0000 1.0000
54.0400 439.0000 1.0000
54.0500 462.0000 1.0000
54.0600 427.0000 1.0000
54.0700 416.0000 1.0000
54.0800 442.0000 1.0000
54.0900 429.0000 1.0000
54.1000 420.0000 1.0000
54.1100 428.0000 1.0000
54.1200 452.0000 1.0000
54.1300 478.0000 1.0000
54.1400 425.0000 1.0000
54.1500 420.0000 1.0000
54.1600 464.0000 1.0000
54.1700 471.0000 1.0000
54.1800 471.0000 1.0000
54.1900 428.0000 1.0000
54.2000 458.0000 1.0000
54.2100 456.0000 1.0000
54.2200 470.0000 1.0000
54.2300 453.0000 1.0000
54.2400 417.0000 1.0000
54.2500 438.0000 1.0000
54.2600 444.0000 1.0000
54.2700 456.0000 1.0000
54.2800 443.0000 1.0000
54.2900 454.0000 1.0000
54.3000 450.0000 1.0000
54.3100 426.0000 1.0000
54.3200 447.0000 1.0000
54.3300 483.0000 1.0000
54.3400 502.0000 1.0000
54.3500 451.0000 1.0000
54.3600 514.0000 1.0000
54.3700 495.0000 1.0000
54.3800 493.0000 1.0000
54.3900 527.0000 1.0000
54.4000 534.0000 1.0000
54.4100 512.0000 1.0000
54.4200 514.0000 1.0000
54.4300 555.0000 1.0000
54.4400 563.0000 1.0000
54.4500 595.0000 1.0000
54.4600 566.0000 1.0000
54.4700 608.0000 1.0000
54.4800 590.0000 1.0000
54.4900 547.0000 1.0000
54.5000 591.0000 1.0000
54.5100 578.0000 1.0000
54.5200 630.0000 1.0000
54.5300 610.0000 1.0000
54.5400 561.0000 1.0000
54.5500 571.0000 1.0000
54.5600 604.0000 1.0000
54.5700 573.0000 1.0000
54.5800 533.0000 1.0000
54.5900 570.0000 1.0000
54.6000 595.0000 1.0000
54.6100 570.0000 1.0000
54.6200 587.0000 1.0000
54.6300 551.0000 1.0000
54.6400 572.0000 1.0000
54.6500 546.0000 1.0000
54.6600 533.0000 1.0000
54.6700 507.0000 1.0000
54.6800 529.0000 1.0000
54.6900 540.0000 1.0000
54.7000 496.0000 1.0000
54.7100 484.0000 1.0000
54.7200 469.0000 1.0000
54.7300 506.0000 1.0000
54.7400 489.0000 1.0000
54.7500 480.0000 1.0000
54.7600 481.0000 1.0000
54.7700 435.0000 1.0000
54.7800 478.0000 1.0000
54.7900 462.0000 1.0000
54.8000 471.0000 1.0000
54.8100 458.0000 1.0000
54.8200 457.0000 1.0000
54.8300 433.0000 1.0000
54.8400 408.0000 1.0000
54.8500 426.0000 1.0000
54.8600 428.0000 1.0000
54.8700 428.0000 1.0000
54.8800 431.0000 1.0000
54.8900 417.0000 1.0000
54.9000 426.0000 1.0000
54.9100 420.0000 1.0000
54.9200 386.0000 1.0000
54.9300 410.0000 1.0000
54.9400 419.0000 1.0000
54.9500 438.0000 1.0000
54.9600 389.0000 1.0000
54.9700 401.0000 1.0000
54.9800 402.0000 1.0000
54.9900 371.0000 1.0000
55.0000 417.0000 1.0000
55.0100 401.0000 1.0000
55.0200 406.0000 1.0000
55.0300 388.0000 1.0000
55.0400 418.0000 1.0000
55.0500 392.0000 1.0000
55.0600 395.0000 1.0000
55.0700 386.0000 1.0000
55.0800 361.0000 1.0000
55.0900 373.0000 1.0000
55.1000 391.0000 1.0000
55.1100 394.0000 1.0000
55.1200 435.0000 1.0000
55.1300 404.0000 1.0000
55.1400 374.0000 1.0000
55.1500 390.0000 1.0000
55.1600 394.0000 1.0000
55.1700 399.0000 1.0000
55.1800 374.0000 1.0000
55.1900 366.0000 1.0000
55.2000 402.0000 1.0000
55.2100 374.0000 1.0000
55.2200 364.0000 1.0000
55.2300 405.0000 1.0000
55.2400 402.0000 1.0000
55.2500 388.0000 1.0000
55.2600 404.0000 1.0000
55.2700 397.0000 1.0000
55.2800 393.0000 1.0000
55.2900 394.0000 1.0000
55.3000 388.0000 1.0000
55.3100 396.0000 1.0000
55.3200 389.0000 1.0000
55.3300 404.0000 1.0000
55.3400 386.0000 1.0000
55.3500 387.0000 1.0000
55.3600 368.0000 1.0000
55.3700 390.0000 1.0000
55.3800 377.0000 1.0000
55.3900 358.0000 1.0000
55.4000 381.0000 1.0000
55.4100 370.0000 1.0000
55.4200 391.0000 1.0000
55.4300 401.0000 1.0000
55.4400 345.0000 1.0000
55.4500 374.0000 1.0000
55.4600 411.0000 1.0000
55.4700 398.0000 1.0000
55.4800 392.0000 1.0000
55.4900 395.0000 1.0000
55.5000 419.0000 1.0000
55.5100 364.0000 1.0000
55.5200 362.0000 1.0000
55.5300 364.0000 1.0000
55.5400 364.0000 1.0000
55.5500 362.0000 1.0000
55.5600 347.0000 1.0000
55.5700 382.0000 1.0000
55.5800 408.0000 1.0000
55.5900 382.0000 1.0000
55.6000 374.0000 1.0000
55.6100 380.0000 1.0000
55.6200 369.0000 1.0000
55.6300 380.0000 1.0000
55.6400 388.0000 1.0000
55.6500 384.0000 1.0000
55.6600 385.0000 1.0000
55.6700 356.0000 1.0000
55.6800 389.0000 1.0000
55.6900 377.0000 1.0000
55.7000 416.0000 1.0000
55.7100 399.0000 1.0000
55.7200 364.0000 1.0000
55.7300 375.0000 1.0000
55.7400 382.0000 1.0000
55.7500 357.0000 1.0000
55.7600 364.0000 1.0000
55.7700 381.0000 1.0000
55.7800 354.0000 1.0000
55.7900 321.0000 1.0000
55.8000 361.0000 1.0000
55.8100 358.0000 1.0000
55.8200 391.0000 1.0000
55.8300 359.0000 1.0000
55.8400 357.0000 1.0000
55.8500 371.0000 1.0000
55.8600 405.0000 1.0000
55.8700 370.0000 1.0000
55.8800 363.0000 1.0000
55.8900 399.0000 1.0000
55.9000 373.0000 1.0000
55.9100 403.0000 1.0000
55.9200 371.0000 1.0000
55.9300 377.0000 1.0000
55.9400 381.0000 1.0000
55.9500 403.0000 1.0000
55.9600 381.0000 1.0000
55.9700 343.0000 1.0000
55.9800 397.0000 1.0000
55.9900 385.0000 1.0000
56.0000 332.0000 1.0000
56.0100 418.0000 1.0000
56.0200 393.0000 1.0000
56.0300 364.0000 1.0000
56.0400 392.0000 1.0000
56.0500 394.0000 1.0000
56.0600 365.0000 1.0000
56.0700 396.0000 1.0000
56.0800 405.0000 1.0000
56.0900 368.0000 1.0000
56.1000 378.0000 1.0000
56.1100 402.0000 1.0000
56.1200 414.0000 1.0000
56.1300 348.0000 1.0000
56.1400 376.0000 1.0000
56.1500 373.0000 1.0000
56.1600 361.0000 1.0000
56.1700 366.0000 1.0000
56.1800 413.0000 1.0000
56.1900 365.0000 1.0000
56.2000 386.0000 1.0000
56.2100 359.0000 1.0000
56.2200 366.0000 1.0000
56.2300 377.0000 1.0000
56.2400 367.0000 1.0000
56.2500 381.0000 1.0000
56.2600 390.0000 1.0000
56.2700 353.0000 1.0000
56.2800 388.0000 1.0000
56.2900 373.0000 1.0000
56.3000 359.0000 1.0000
56.3100 374.0000 1.0000
56.3200 388.0000 1.0000
56.3300 366.0000 1.0000
56.3400 359.0000 1.0000
56.3500 370.0000 1.0000
56.3600 403.0000 1.0000
56.3700 391.0000 1.0000
56.3800 378.0000 1.0000
56.3900 402.0000 1.0000
56.4000 368.0000 1.0000
56.4100 372.0000 1.0000
56.4200 401.0000 1.0000
56.4300 336.0000 1.0000
56.4400 380.0000 1.0000
56.4500 376.0000 1.0000
56.4600 354.0000 1.0000
56.4700 380.0000 1.0000
56.4800 376.0000 1.0000
56.4900 377.0000 1.0000
56.5000 361.0000 1.0000
56.5100 368.0000 1.0000
56.5200 388.0000 1.0000
56.5300 364.0000 1.0000
56.5400 396.0000 1.0000
56.5500 382.0000 1.0000
56.5600 391.0000 1.0000
56.5700 362.0000 1.0000
56.5800 392.0000 1.0000
56.5900 367.0000 1.0000
56.6000 373.0000 1.0000
56.6100 361.0000 1.0000
56.6200 379.0000 1.0000
56.6300 378.0000 1.0000
56.6400 364.0000 1.0000
56.6500 409.0000 1.0000
56.6600 396.0000 1.0000
56.6700 377.0000 1.0000
56.6800 361.0000 1.0000
56.6900 367.0000 1.0000
56.7000 380.0000 1.0000
56.7100 413.0000 1.0000
56.7200 386.0000 1.0000
56.7300 367.0000 1.0000
56.7400 385.0000 1.0000
56.7500 374.0000 1.0000
56.7600 381.0000 1.0000
56.7700 360.0000 1.0000
56.7800 374.0000 1.0000
56.7900 381.0000 1.0000
56.8000 377.0000 1.0000
56.8100 335.0000 1.0000
56.8200 364.0000 1.0000
56.8300 379.0000 1.0000
56.8400 368.0000 1.0000
56.8500 378.0000 1.0000
56.8600 388.0000 1.0000
56.8700 359.0000 1.0000
56.8800 372.0000 1.0000
56.8900 362.0000 1.0000
56.9000 349.0000 1.0000
56.9100 364.0000 1.0000
56.9200 343.0000 1.0000
56.9300 372.0000 1.0000
56.9400 382.0000 1.0000
56.9500 366.0000 1.0000
56.9600 353.0000 1.0000
56.9700 368.0000 1.0000
56.9800 352.0000 1.0000
56.9900 399.0000 1.0000
57.0000 363.0000 1.0000
57.0100 355.0000 1.0000
57.0200 355.0000 1.0000
57.0300 344.0000 1.0000
57.0400 377.0000 1.0000
57.0500 363.0000 1.0000
57.0600 378.0000 1.0000
57.0700 358.0000 1.0000
57.0800 370.0000 1.0000
57.0900 374.0000 1.0000
57.1000 377.0000 1.0000
57.1100 360.0000 1.0000
57.1200 338.0000 1.0000
57.1300 356.0000 1.0000
57.1400 381.0000 1.0000
57.1500 381.0000 1.0000
57.1600 379.0000 1.0000
57.1700 402.0000 1.0000
57.1800 381.0000 1.0000
57.1900 369.0000 1.0000
57.2000 371.0000 1.0000
57.2100 360.0000 1.0000
57.2200 370.0000 1.0000
57.2300 377.0000 1.0000
57.2400 375.0000 1.0000
57.2500 371.0000 1.0000
57.2600 378.0000 1.0000
57.2700 381.0000 1.0000
57.2800 364.0000 1.0000
57.2900 377.0000 1.0000
57.3000 377.0000 1.0000
57.3100 394.0000 1.0000
57.3200 406.0000 1.0000
57.3300 392.0000 1.0000
57.3400 357.0000 1.0000
57.3500 417.0000 1.0000
57.3600 379.0000 1.0000
57.3700 378.0000 1.0000
57.3800 386.0000 1.0000
57.3900 406.0000 1.0000
57.4000 362.0000 1.0000
57.4100 364.0000 1.0000
57.4200 367.0000 1.0000
57.4300 392.0000 1.0000
57.4400 378.0000 1.0000
57.4500 396.0000 1.0000
57.4600 356.0000 1.0000
57.4700 360.0000 1.0000
57.4800 356.0000 1.0000
57.4900 395.0000 1.0000
57.5000 393.0000 1.0000
57.5100 365.0000 1.0000
57.5200 346.0000 1.0000
57.5300 371.0000 1.0000
57.5400 368.0000 1.0000
57.5500 388.0000 1.0000
57.5600 388.0000 1.0000
57.5700 387.0000 1.0000
57.5800 362.0000 1.0000
57.5900 370.0000 1.0000
57.6000 356.0000 1.0000
57.6100 382.0000 1.0000
57.6200 383.0000 1.0000
57.6300 361.0000 1.0000
57.6400 378.0000 1.0000
57.6500 393.0000 1.0000
57.6600 387.0000 1.0000
57.6700 374.0000 1.0000
57.6800 387.0000 1.0000
57.6900 384.0000 1.0000
57.7000 426.0000 1.0000
57.7100 363.0000 1.0000
57.7200 370.0000 1.0000
57.7300 361.0000 1.0000
57.7400 373.0000 1.0000
57.7500 365.0000 1.0000
57.7600 341.0000 1.0000
57.7700 348.0000 1.0000
57.7800 351.0000 1.0000
57.7900 403.0000 1.0000
57.8000 373.0000 1.0000
57.8100 358.0000 1.0000
57.8200 360.0000 1.0000
57.8300 379.0000 1.0000
57.8400 357.0000 1.0000
57.8500 371.0000 1.0000
57.8600 368.0000 1.0000
57.8700 381.0000 1.0000
57.8800 347.0000 1.0000
57.8900 379.0000 1.0000
57.9000 377.0000 1.0000
57.9100 353.0000 1.0000
57.9200 378.0000 1.0000
57.9300 380.0000 1.0000
57.9400 367.0000 1.0000
57.9500 362.0000 1.0000
57.9600 379.0000 1.0000
57.9700 378.0000 1.0000
57.9800 350.0000 1.0000
57.9900 358.0000 1.0000
58.0000 342.0000 1.0000
58.0100 345.0000 1.0000
58.0200 375.0000 1.0000
58.0300 369.0000 1.0000
58.0400 363.0000 1.0000
58.0500 368.0000 1.0000
58.0600 383.0000 1.0000
58.0700 348.0000 1.0000
58.0800 387.0000 1.0000
58.0900 369.0000 1.0000
58.1000 369.0000 1.0000
58.1100 358.0000 1.0000
58.1200 373.0000 1.0000
58.1300 347.0000 1.0000
58.1400 342.0000 1.0000
58.1500 337.0000 1.0000
58.1600 355.0000 1.0000
58.1700 343.0000 1.0000
58.1800 361.0000 1.0000
58.1900 362.0000 1.0000
58.2000 379.0000 1.0000
58.2100 369.0000 1.0000
58.2200 374.0000 1.0000
58.2300 347.0000 1.0000
58.2400 358.0000 1.0000
58.2500 360.0000 1.0000
58.2600 355.0000 1.0000
58.2700 343.0000 1.0000
58.2800 356.0000 1.0000
58.2900 371.0000 1.0000
58.3000 374.0000 1.0000
58.3100 359.0000 1.0000
58.3200 360.0000 1.0000
58.3300 355.0000 1.0000
58.3400 363.0000 1.0000
58.3500 351.0000 1.0000
58.3600 369.0000 1.0000
58.3700 372.0000 1.0000
58.3800 352.0000 1.0000
58.3900 347.0000 1.0000
58.4000 357.0000 1.0000
58.4100 384.0000 1.0000
58.4200 367.0000 1.0000
58.4300 367.0000 1.0000
58.4400 328.0000 1.0000
58.4500 333.0000 1.0000
58.4600 360.0000 1.0000
58.4700 316.0000 1.0000
58.4800 327.0000 1.0000
58.4900 341.0000 1.0000
58.5000 365.0000 1.0000
58.5100 336.0000 1.0000
58.5200 385.0000 1.0000
58.5300 362.0000 1.0000
58.5400 352.0000 1.0000
58.5500 331.0000 1.0000
58.5600 361.0000 1.0000
58.5700 340.0000 1.0000
58.5800 381.0000 1.0000
58.5900 384.0000 1.0000
58.6000 384.0000 1.0000
58.6100 373.0000 1.0000
58.6200 376.0000 1.0000
58.6300 363.0000 1.0000
58.6400 378.0000 1.0000
58.6500 368.0000 1.0000
58.6600 356.0000 1.0000
58.6700 358.0000 1.0000
58.6800 390.0000 1.0000
58.6900 354.0000 1.0000
58.7000 370.0000 1.0000
58.7100 359.0000 1.0000
58.7200 370.0000 1.0000
58.7300 339.0000 1.0000
58.7400 344.0000 1.0000
58.7500 325.0000 1.0000
58.7600 336.0000 1.0000
58.7700 330.0000 1.0000
58.7800 343.0000 1.0000
58.7900 336.0000 1.0000
58.8000 356.0000 1.0000
58.8100 314.0000 1.0000
58.8200 339.0000 1.0000
58.8300 353.0000 1.0000
58.8400 368.0000 1.0000
58.8500 345.0000 1.0000
58.8600 362.0000 1.0000
58.8700 340.0000 1.0000
58.8800 337.0000 1.0000
58.8900 351.0000 1.0000
58.9000 367.0000 1.0000
58.9100 370.0000 1.0000
58.9200 361.0000 1.0000
58.9300 340.0000 1.0000
58.9400 336.0000 1.0000
58.9500 324.0000 1.0000
58.9600 345.0000 1.0000
58.9700 357.0000 1.0000
58.9800 342.0000 1.0000
58.9900 352.0000 1.0000
59.0000 369.0000 1.0000
59.0100 357.0000 1.0000
59.0200 341.0000 1.0000
59.0300 347.0000 1.0000
59.0400 390.0000 1.0000
59.0500 353.0000 1.0000
59.0600 335.0000 1.0000
59.0700 356.0000 1.0000
59.0800 347.0000 1.0000
59.0900 359.0000 1.0000
59.1000 344.0000 1.0000
59.1100 346.0000 1.0000
59.1200 366.0000 1.0000
59.1300 373.0000 1.0000
59.1400 331.0000 1.0000
59.1500 360.0000 1.0000
59.1600 362.0000 1.0000
59.1700 389.0000 1.0000
59.1800 344.0000 1.0000
59.1900 343.0000 1.0000
59.2000 367.0000 1.0000
59.2100 367.0000 1.0000
59.2200 381.0000 1.0000
59.2300 332.0000 1.0000
59.2400 343.0000 1.0000
59.2500 365.0000 1.0000
59.2600 359.0000 1.0000
59.2700 358.0000 1.0000
59.2800 313.0000 1.0000
59.2900 322.0000 1.0000
59.3000 326.0000 1.0000
59.3100 345.0000 1.0000
59.3200 362.0000 1.0000
59.3300 383.0000 1.0000
59.3400 359.0000 1.0000
59.3500 396.0000 1.0000
59.3600 352.0000 1.0000
59.3700 362.0000 1.0000
59.3800 357.0000 1.0000
59.3900 344.0000 1.0000
59.4000 353.0000 1.0000
59.4100 371.0000 1.0000
59.4200 354.0000 1.0000
59.4300 357.0000 1.0000
59.4400 347.0000 1.0000
59.4500 347.0000 1.0000
59.4600 387.0000 1.0000
59.4700 368.0000 1.0000
59.4800 355.0000 1.0000
59.4900 362.0000 1.0000
59.5000 349.0000 1.0000
59.5100 365.0000 1.0000
59.5200 356.0000 1.0000
59.5300 377.0000 1.0000
59.5400 338.0000 1.0000
59.5500 358.0000 1.0000
59.5600 411.0000 1.0000
59.5700 348.0000 1.0000
59.5800 335.0000 1.0000
59.5900 389.0000 1.0000
59.6000 359.0000 1.0000
59.6100 338.0000 1.0000
59.6200 366.0000 1.0000
59.6300 347.0000 1.0000
59.6400 350.0000 1.0000
59.6500 362.0000 1.0000
59.6600 351.0000 1.0000
59.6700 349.0000 1.0000
59.6800 384.0000 1.0000
59.6900 375.0000 1.0000
59.7000 378.0000 1.0000
59.7100 361.0000 1.0000
59.7200 340.0000 1.0000
59.7300 360.0000 1.0000
59.7400 354.0000 1.0000
59.7500 366.0000 1.0000
59.7600 367.0000 1.0000
59.7700 343.0000 1.0000
59.7800 374.0000 1.0000
59.7900 369.0000 1.0000
59.8000 381.0000 1.0000
59.8100 357.0000 1.0000
59.8200 377.0000 1.0000
59.8300 328.0000 1.0000
59.8400 323.0000 1.0000
59.8500 341.0000 1.0000
59.8600 346.0000 1.0000
59.8700 336.0000 1.0000
59.8800 352.0000 1.0000
59.8900 383.0000 1.0000
59.9000 358.0000 1.0000
59.9100 346.0000 1.0000
59.9200 362.0000 1.0000
59.9300 386.0000 1.0000
59.9400 366.0000 1.0000
59.9500 369.0000 1.0000
59.9600 379.0000 1.0000
59.9700 386.0000 1.0000
59.9800 379.0000 1.0000
59.9900 346.0000 1.0000
60.0000 372.0000 1.0000
60.0100 374.0000 1.0000
60.0200 325.0000 1.0000
60.0300 370.0000 1.0000
60.0400 371.0000 1.0000
60.0500 367.0000 1.0000
60.0600 366.0000 1.0000
60.0700 375.0000 1.0000
60.0800 359.0000 1.0000
60.0900 341.0000 1.0000
60.1000 346.0000 1.0000
60.1100 366.0000 1.0000
60.1200 358.0000 1.0000
60.1300 358.0000 1.0000
60.1400 368.0000 1.0000
60.1500 349.0000 1.0000
60.1600 353.0000 1.0000
60.1700 346.0000 1.0000
60.1800 358.0000 1.0000
60.1900 367.0000 1.0000
60.2000 362.0000 1.0000
60.2100 403.0000 1.0000
60.2200 344.0000 1.0000
60.2300 340.0000 1.0000
60.2400 350.0000 1.0000
60.2500 354.0000 1.0000
60.2600 365.0000 1.0000
60.2700 355.0000 1.0000
60.2800 352.0000 1.0000
60.2900 349.0000 1.0000
60.3000 354.0000 1.0000
60.3100 356.0000 1.0000
60.3200 355.0000 1.0000
60.3300 376.0000 1.0000
60.3400 397.0000 1.0000
60.3500 389.0000 1.0000
60.3600 357.0000 1.0000
60.3700 370.0000 1.0000
60.3800 359.0000 1.0000
60.3900 362.0000 1.0000
60.4000 355.0000 1.0000
60.4100 340.0000 1.0000
60.4200 386.0000 1.0000
60.4300 387.0000 1.0000
60.4400 367.0000 1.0000
60.4500 346.0000 1.0000
60.4600 354.0000 1.0000
60.4700 351.0000 1.0000
60.4800 365.0000 1.0000
60.4900 338.0000 1.0000
60.5000 346.0000 1.0000
60.5100 349.0000 1.0000
60.5200 364.0000 1.0000
60.5300 365.0000 1.0000
60.5400 357.0000 1.0000
60.5500 355.0000 1.0000
60.5600 342.0000 1.0000
60.5700 350.0000 1.0000
60.5800 385.0000 1.0000
60.5900 367.0000 1.0000
60.6000 361.0000 1.0000
60.6100 379.0000 1.0000
60.6200 356.0000 1.0000
60.6300 365.0000 1.0000
60.6400 358.0000 1.0000
60.6500 369.0000 1.0000
60.6600 392.0000 1.0000
60.6700 367.0000 1.0000
60.6800 363.0000 1.0000
60.6900 355.0000 1.0000
60.7000 345.0000 1.0000
60.7100 387.0000 1.0000
60.7200 341.0000 1.0000
60.7300 390.0000 1.0000
60.7400 379.0000 1.0000
60.7500 361.0000 1.0000
60.7600 371.0000 1.0000
60.7700 374.0000 1.0000
60.7800 361.0000 1.0000
60.7900 374.0000 1.0000
60.8000 374.0000 1.0000
60.8100 348.0000 1.0000
60.8200 346.0000 1.0000
60.8300 377.0000 1.0000
60.8400 387.0000 1.0000
60.8500 390.0000 1.0000
60.8600 357.0000 1.0000
60.8700 379.0000 1.0000
60.8800 361.0000 1.0000
60.8900 367.0000 1.0000
60.9000 388.0000 1.0000
60.9100 368.0000 1.0000
60.9200 371.0000 1.0000
60.9300 363.0000 1.0000
60.9400 394.0000 1.0000
60.9500 380.0000 1.0000
60.9600 376.0000 1.0000
60.9700 397.0000 1.0000
60.9800 413.0000 1.0000
60.9900 395.0000 1.0000
61.0000 367.0000 1.0000
61.0100 373.0000 1.0000
61.0200 409.0000 1.0000
61.0300 426.0000 1.0000
61.0400 384.0000 1.0000
61.0500 408.0000 1.0000
61.0600 396.0000 1.0000
61.0700 423.0000 1.0000
61.0800 380.0000 1.0000
61.0900 391.0000 1.0000
61.1000 381.0000 1.0000
61.1100 398.0000 1.0000
61.1200 409.0000 1.0000
61.1300 416.0000 1.0000
61.1400 407.0000 1.0000
61.1500 396.0000 1.0000
61.1600 380.0000 1.0000
61.1700 392.0000 1.0000
61.1800 401.0000 1.0000
61.1900 446.0000 1.0000
61.2000 427.0000 1.0000
61.2100 431.0000 1.0000
61.2200 447.0000 1.0000
61.2300 434.0000 1.0000
61.2400 461.0000 1.0000
61.2500 447.0000 1.0000
61.2600 483.0000 1.0000
61.2700 448.0000 1.0000
61.2800 440.0000 1.0000
61.2900 463.0000 1.0000
61.3000 481.0000 1.0000
61.3100 474.0000 1.0000
61.3200 499.0000 1.0000
61.3300 536.0000 1.0000
61.3400 532.0000 1.0000
61.3500 563.0000 1.0000
61.3600 559.0000 1.0000
61.3700 561.0000 1.0000
61.3800 556.0000 1.0000
61.3900 607.0000 1.0000
61.4000 580.0000 1.0000
61.4100 656.0000 1.0000
61.4200 652.0000 1.0000
61.4300 668.0000 1.0000
61.4400 656.0000 1.0000
61.4500 667.0000 1.0000
61.4600 680.0000 1.0000
61.4700 698.0000 1.0000
61.4800 681.0000 1.0000
61.4900 709.0000 1.0000
61.5000 777.0000 1.0000
61.5100 704.0000 1.0000
61.5200 742.0000 1.0000
61.5300 733.0000 1.0000
61.5400 747.0000 1.0000
61.5500 747.0000 1.0000
61.5600 726.0000 1.0000
61.5700 741.0000 1.0000
61.5800 720.0000 1.0000
61.5900 708.0000 1.0000
61.6000 727.0000 1.0000
61.6100 697.0000 1.0000
61.6200 695.0000 1.0000
61.6300 676.0000 1.0000
61.6400 672.0000 1.0000
61.6500 676.0000 1.0000
61.6600 681.0000 1.0000
61.6700 676.0000 1.0000
61.6800 661.0000 1.0000
61.6900 612.0000 1.0000
61.7000 683.0000 1.0000
61.7100 626.0000 1.0000
61.7200 620.0000 1.0000
61.7300 581.0000 1.0000
61.7400 591.0000 1.0000
61.7500 604.0000 1.0000
61.7600 606.0000 1.0000
61.7700 563.0000 1.0000
61.7800 527.0000 1.0000
61.7900 508.0000 1.0000
61.8000 557.0000 1.0000
61.8100 516.0000 1.0000
61.8200 535.0000 1.0000
61.8300 512.0000 1.0000
61.8400 481.0000 1.0000
61.8500 478.0000 1.0000
61.8600 463.0000 1.0000
61.8700 512.0000 1.0000
61.8800 442.0000 1.0000
61.8900 469.0000 1.0000
61.9000 478.0000 1.0000
61.9100 433.0000 1.0000
61.9200 456.0000 1.0000
61.9300 421.0000 1.0000
61.9400 461.0000 1.0000
61.9500 399.0000 1.0000
61.9600 424.0000 1.0000
61.9700 422.0000 1.0000
61.9800 426.0000 1.0000
61.9900 429.0000 1.0000
62.0000 432.0000 1.0000
62.0100 403.0000 1.0000
62.0200 389.0000 1.0000
62.0300 413.0000 1.0000
62.0400 419.0000 1.0000
62.0500 428.0000 1.0000
62.0600 416.0000 1.0000
62.0700 409.0000 1.0000
62.0800 418.0000 1.0000
62.0900 392.0000 1.0000
62.1000 400.0000 1.0000
62.1100 394.0000 1.0000
62.1200 414.0000 1.0000
62.1300 395.0000 1.0000
62.1400 393.0000 1.0000
62.1500 380.0000 1.0000
62.1600 414.0000 1.0000
62.1700 408.0000 1.0000
62.1800 377.0000 1.0000
62.1900 399.0000 1.0000
62.2000 369.0000 1.0000
62.2100 397.0000 1.0000
62.2200 403.0000 1.0000
62.2300 379.0000 1.0000
62.2400 376.0000 1.0000
62.2500 432.0000 1.0000
62.2600 412.0000 1.0000
62.2700 408.0000 1.0000
62.2800 389.0000 1.0000
62.2900 419.0000 1.0000
62.3000 406.0000 1.0000
62.3100 390.0000 1.0000
62.3200 403.0000 1.0000
62.3300 401.0000 1.0000
62.3400 385.0000 1.0000
62.3500 392.0000 1.0000
62.3600 401.0000 1.0000
62.3700 387.0000 1.0000
62.3800 404.0000 1.0000
62.3900 395.0000 1.0000
62.4000 395.0000 1.0000
62.4100 398.0000 1.0000
62.4200 393.0000 1.0000
62.4300 375.0000 1.0000
62.4400 391.0000 1.0000
62.4500 399.0000 1.0000
62.4600 379.0000 1.0000
62.4700 376.0000 1.0000
62.4800 368.0000 1.0000
62.4900 411.0000 1.0000
62.5000 393.0000 1.0000
62.5100 385.0000 1.0000
62.5200 419.0000 1.0000
62.5300 438.0000 1.0000
62.5400 395.0000 1.0000
62.5500 373.0000 1.0000
62.5600 362.0000 1.0000
62.5700 404.0000 1.0000
62.5800 361.0000 1.0000
62.5900 379.0000 1.0000
62.6000 366.0000 1.0000
62.6100 366.0000 1.0000
62.6200 378.0000 1.0000
62.6300 390.0000 1.0000
62.6400 372.0000 1.0000
62.6500 371.0000 1.0000
62.6600 365.0000 1.0000
62.6700 374.0000 1.0000
62.6800 355.0000 1.0000
62.6900 375.0000 1.0000
62.7000 357.0000 1.0000
62.7100 387.0000 1.0000
62.7200 383.0000 1.0000
62.7300 340.0000 1.0000
62.7400 363.0000 1.0000
62.7500 367.0000 1.0000
62.7600 361.0000 1.0000
62.7700 391.0000 1.0000
62.7800 353.0000 1.0000
62.7900 338.0000 1.0000
62.8000 373.0000 1.0000
62.8100 345.0000 1.0000
62.8200 344.0000 1.0000
62.8300 367.0000 1.0000
62.8400 359.0000 1.0000
62.8500 352.0000 1.0000
62.8600 322.0000 1.0000
62.8700 383.0000 1.0000
62.8800 343.0000 1.0000
62.8900 386.0000 1.0000
62.9000 386.0000 1.0000
62.9100 382.0000 1.0000
62.9200 368.0000 1.0000
62.9300 370.0000 1.0000
62.9400 351.0000 1.0000
62.9500 366.0000 1.0000
62.9600 379.0000 1.0000
62.9700 385.0000 1.0000
62.9800 346.0000 1.0000
62.9900 359.0000 1.0000
63.0000 362.0000 1.0000
63.0100 341.0000 1.0000
63.0200 341.0000 1.0000
63.0300 345.0000 1.0000
63.0400 379.0000 1.0000
63.0500 373.0000 1.0000
63.0600 364.0000 1.0000
63.0700 357.0000 1.0000
63.0800 357.0000 1.0000
63.0900 387.0000 1.0000
63.1000 358.0000 1.0000
63.1100 357.0000 1.0000
63.1200 357.0000 1.0000
63.1300 369.0000 1.0000
63.1400 352.0000 1.0000
63.1500 364.0000 1.0000
63.1600 330.0000 1.0000
63.1700 355.0000 1.0000
63.1800 359.0000 1.0000
63.1900 354.0000 1.0000
63.2000 361.0000 1.0000
63.2100 340.0000 1.0000
63.2200 371.0000 1.0000
63.2300 387.0000 1.0000
63.2400 347.0000 1.0000
63.2500 368.0000 1.0000
63.2600 367.0000 1.0000
63.2700 380.0000 1.0000
63.2800 359.0000 1.0000
63.2900 382.0000 1.0000
63.3000 353.0000 1.0000
63.3100 361.0000 1.0000
63.3200 368.0000 1.0000
63.3300 360.0000 1.0000
63.3400 361.0000 1.0000
63.3500 352.0000 1.0000
63.3600 343.0000 1.0000
63.3700 342.0000 1.0000
63.3800 362.0000 1.0000
63.3900 359.0000 1.0000
63.4000 377.0000 1.0000
63.4100 392.0000 1.0000
63.4200 374.0000 1.0000
63.4300 372.0000 1.0000
63.4400 362.0000 1.0000
63.4500 394.0000 1.0000
63.4600 385.0000 1.0000
63.4700 377.0000 1.0000
63.4800 386.0000 1.0000
63.4900 397.0000 1.0000
63.5000 383.0000 1.0000
63.5100 363.0000 1.0000
63.5200 358.0000 1.0000
63.5300 374.0000 1.0000
63.5400 389.0000 1.0000
63.5500 375.0000 1.0000
63.5600 395.0000 1.0000
63.5700 388.0000 1.0000
63.5800 398.0000 1.0000
63.5900 373.0000 1.0000
63.6000 408.0000 1.0000
63.6100 397.0000 1.0000
63.6200 354.0000 1.0000
63.6300 375.0000 1.0000
63.6400 395.0000 1.0000
63.6500 373.0000 1.0000
63.6600 352.0000 1.0000
63.6700 384.0000 1.0000
63.6800 380.0000 1.0000
63.6900 401.0000 1.0000
63.7000 417.0000 1.0000
63.7100 434.0000 1.0000
63.7200 421.0000 1.0000
63.7300 436.0000 1.0000
63.7400 441.0000 1.0000
63.7500 394.0000 1.0000
63.7600 438.0000 1.0000
63.7700 434.0000 1.0000
63.7800 438.0000 1.0000
63.7900 438.0000 1.0000
63.8000 441.0000 1.0000
63.8100 478.0000 1.0000
63.8200 464.0000 1.0000
63.8300 480.0000 1.0000
63.8400 501.0000 1.0000
63.8500 522.0000 1.0000
63.8600 536.0000 1.0000
63.8700 515.0000 1.0000
63.8800 572.0000 1.0000
63.8900 520.0000 1.0000
63.9000 570.0000 1.0000
63.9100 604.0000 1.0000
63.9200 593.0000 1.0000
63.9300 625.0000 1.0000
63.9400 594.0000 1.0000
63.9500 607.0000 1.0000
63.9600 604.0000 1.0000
63.9700 563.0000 1.0000
63.9800 552.0000 1.0000
63.9900 545.0000 1.0000
64.0000 523.0000 1.0000
64.0100 518.0000 1.0000
64.0200 534.0000 1.0000
64.0300 535.0000 1.0000
64.0400 552.0000 1.0000
64.0500 565.0000 1.0000
64.0600 526.0000 1.0000
64.0700 515.0000 1.0000
64.0800 512.0000 1.0000
64.0900 510.0000 1.0000
64.1000 484.0000 1.0000
64.1100 526.0000 1.0000
64.1200 507.0000 1.0000
64.1300 489.0000 1.0000
64.1400 439.0000 1.0000
64.1500 467.0000 1.0000
64.1600 472.0000 1.0000
64.1700 455.0000 1.0000
64.1800 446.0000 1.0000
64.1900 440.0000 1.0000
64.2000 450.0000 1.0000
64.2100 447.0000 1.0000
64.2200 450.0000 1.0000
64.2300 434.0000 1.0000
64.2400 455.0000 1.0000
64.2500 433.0000 1.0000
64.2600 425.0000 1.0000
64.2700 399.0000 1.0000
64.2800 395.0000 1.0000
64.2900 397.0000 1.0000
64.3000 420.0000 1.0000
64.3100 418.0000 1.0000
64.3200 410.0000 1.0000
64.3300 382.0000 1.0000
64.3400 403.0000 1.0000
64.3500 408.0000 1.0000
64.3600 403.0000 1.0000
64.3700 374.0000 1.0000
64.3800 380.0000 1.0000
64.3900 367.0000 1.0000
64.4000 391.0000 1.0000
64.4100 373.0000 1.0000
64.4200 400.0000 1.0000
64.4300 368.0000 1.0000
64.4400 388.0000 1.0000
64.4500 380.0000 1.0000
64.4600 382.0000 1.0000
64.4700 393.0000 1.0000
64.4800 386.0000 1.0000
64.4900 371.0000 1.0000
64.5000 359.0000 1.0000
64.5100 355.0000 1.0000
64.5200 370.0000 1.0000
64.5300 384.0000 1.0000
64.5400 390.0000 1.0000
64.5500 367.0000 1.0000
64.5600 418.0000 1.0000
64.5700 400.0000 1.0000
64.5800 392.0000 1.0000
64.5900 363.0000 1.0000
64.6000 387.0000 1.0000
64.6100 381.0000 1.0000
64.6200 380.0000 1.0000
64.6300 350.0000 1.0000
64.6400 395.0000 1.0000
64.6500 354.0000 1.0000
64.6600 384.0000 1.0000
64.6700 398.0000 1.0000
64.6800 423.0000 1.0000
64.6900 359.0000 1.0000
64.7000 370.0000 1.0000
64.7100 342.0000 1.0000
64.7200 374.0000 1.0000
64.7300 357.0000 1.0000
64.7400 409.0000 1.0000
64.7500 362.0000 1.0000
64.7600 371.0000 1.0000
64.7700 388.0000 1.0000
64.7800 428.0000 1.0000
64.7900 397.0000 1.0000
64.8000 403.0000 1.0000
64.8100 377.0000 1.0000
64.8200 362.0000 1.0000
64.8300 367.0000 1.0000
64.8400 413.0000 1.0000
64.8500 369.0000 1.0000
64.8600 367.0000 1.0000
64.8700 365.0000 1.0000
64.8800 342.0000 1.0000
64.8900 377.0000 1.0000
64.9000 376.0000 1.0000
64.9100 370.0000 1.0000
64.9200 411.0000 1.0000
64.9300 395.0000 1.0000
64.9400 385.0000 1.0000
64.9500 399.0000 1.0000
64.9600 414.0000 1.0000
64.9700 378.0000 1.0000
64.9800 403.0000 1.0000
64.9900 381.0000 1.0000
65.0000 374.0000 1.0000
65.0100 396.0000 1.0000
65.0200 410.0000 1.0000
65.0300 424.0000 1.0000
65.0400 418.0000 1.0000
65.0500 417.0000 1.0000
65.0600 419.0000 1.0000
65.0700 453.0000 1.0000
65.0800 420.0000 1.0000
65.0900 442.0000 1.0000
65.1000 396.0000 1.0000
65.1100 405.0000 1.0000
65.1200 438.0000 1.0000
65.1300 409.0000 1.0000
65.1400 449.0000 1.0000
65.1500 399.0000 1.0000
65.1600 441.0000 1.0000
65.1700 500.0000 1.0000
65.1800 504.0000 1.0000
65.1900 511.0000 1.0000
65.2000 469.0000 1.0000
65.2100 475.0000 1.0000
65.2200 485.0000 1.0000
65.2300 498.0000 1.0000
65.2400 511.0000 1.0000
65.2500 512.0000 1.0000
65.2600 513.0000 1.0000
65.2700 548.0000 1.0000
65.2800 634.0000 1.0000
65.2900 586.0000 1.0000
65.3000 621.0000 1.0000
65.3100 617.0000 1.0000
65.3200 606.0000 1.0000
65.3300 650.0000 1.0000
65.3400 699.0000 1.0000
65.3500 726.0000 1.0000
65.3600 814.0000 1.0000
65.3700 782.0000 1.0000
65.3800 827.0000 1.0000
65.3900 836.0000 1.0000
65.4000 909.0000 1.0000
65.4100 905.0000 1.0000
65.4200 968.0000 1.0000
65.4300 1052.0000 1.0000
65.4400 1075.0000 1.0000
65.4500 1179.0000 1.0000
65.4600 1277.0000 1.0000
65.4700 1299.0000 1.0000
65.4800 1276.0000 1.0000
65.4900 1328.0000 1.0000
65.5000 1297.0000 1.0000
65.5100 1385.0000 1.0000
65.5200 1391.0000 1.0000
65.5300 1386.0000 1.0000
65.5400 1329.0000 1.0000
65.5500 1263.0000 1.0000
65.5600 1286.0000 1.0000
65.5700 1281.0000 1.0000
65.5800 1216.0000 1.0000
65.5900 1234.0000 1.0000
65.6000 1208.0000 1.0000
65.6100 1132.0000 1.0000
65.6200 1156.0000 1.0000
65.6300 1123.0000 1.0000
65.6400 1132.0000 1.0000
65.6500 1099.0000 1.0000
65.6600 1145.0000 1.0000
65.6700 1092.0000 1.0000
65.6800 1083.0000 1.0000
65.6900 1088.0000 1.0000
65.7000 1046.0000 1.0000
65.7100 997.0000 1.0000
65.7200 952.0000 1.0000
65.7300 965.0000 1.0000
65.7400 930.0000 1.0000
65.7500 882.0000 1.0000
65.7600 835.0000 1.0000
65.7700 858.0000 1.0000
65.7800 788.0000 1.0000
65.7900 757.0000 1.0000
65.8000 696.0000 1.0000
65.8100 715.0000 1.0000
65.8200 674.0000 1.0000
65.8300 669.0000 1.0000
65.8400 658.0000 1.0000
65.8500 664.0000 1.0000
65.8600 614.0000 1.0000
65.8700 609.0000 1.0000
65.8800 634.0000 1.0000
65.8900 519.0000 1.0000
65.9000 529.0000 1.0000
65.9100 509.0000 1.0000
65.9200 494.0000 1.0000
65.9300 521.0000 1.0000
65.9400 458.0000 1.0000
65.9500 467.0000 1.0000
65.9600 457.0000 1.0000
65.9700 447.0000 1.0000
65.9800 466.0000 1.0000
65.9900 444.0000 1.0000
66.0000 454.0000 1.0000
66.0100 406.0000 1.0000
66.0200 419.0000 1.0000
66.0300 423.0000 1.0000
66.0400 404.0000 1.0000
66.0500 409.0000 1.0000
66.0600 413.0000 1.0000
66.0700 394.0000 1.0000
66.0800 456.0000 1.0000
66.0900 403.0000 1.0000
66.1000 358.0000 1.0000
66.1100 378.0000 1.0000
66.1200 387.0000 1.0000
66.1300 397.0000 1.0000
66.1400 363.0000 1.0000
66.1500 379.0000 1.0000
66.1600 381.0000 1.0000
66.1700 387.0000 1.0000
66.1800 370.0000 1.0000
66.1900 375.0000 1.0000
66.2000 386.0000 1.0000
66.2100 383.0000 1.0000
66.2200 379.0000 1.0000
66.2300 346.0000 1.0000
66.2400 370.0000 1.0000
66.2500 367.0000 1.0000
66.2600 377.0000 1.0000
66.2700 366.0000 1.0000
66.2800 369.0000 1.0000
66.2900 341.0000 1.0000
66.3000 366.0000 1.0000
66.3100 379.0000 1.0000
66.3200 400.0000 1.0000
66.3300 328.0000 1.0000
66.3400 338.0000 1.0000
66.3500 355.0000 1.0000
66.3600 371.0000 1.0000
66.3700 390.0000 1.0000
66.3800 355.0000 1.0000
66.3900 379.0000 1.0000
66.4000 345.0000 1.0000
66.4100 360.0000 1.0000
66.4200 343.0000 1.0000
66.4300 366.0000 1.0000
66.4400 349.0000 1.0000
66.4500 367.0000 1.0000
66.4600 345.0000 1.0000
66.4700 354.0000 1.0000
66.4800 358.0000 1.0000
66.4900 366.0000 1.0000
66.5000 342.0000 1.0000
66.5100 394.0000 1.0000
66.5200 362.0000 1.0000
66.5300 367.0000 1.0000
66.5400 317.0000 1.0000
66.5500 345.0000 1.0000
66.5600 328.0000 1.0000
66.5700 360.0000 1.0000
66.5800 354.0000 1.0000
66.5900 361.0000 1.0000
66.6000 345.0000 1.0000
66.6100 337.0000 1.0000
66.6200 377.0000 1.0000
66.6300 329.0000 1.0000
66.6400 353.0000 1.0000
66.6500 341.0000 1.0000
66.6600 339.0000 1.0000
66.6700 345.0000 1.0000
66.6800 332.0000 1.0000
66.6900 358.0000 1.0000
66.7000 394.0000 1.0000
66.7100 348.0000 1.0000
66.7200 319.0000 1.0000
66.7300 367.0000 1.0000
66.7400 344.0000 1.0000
66.7500 343.0000 1.0000
66.7600 331.0000 1.0000
66.7700 319.0000 1.0000
66.7800 340.0000 1.0000
66.7900 346.0000 1.0000
66.8000 369.0000 1.0000
66.8100 367.0000 1.0000
66.8200 343.0000 1.0000
66.8300 329.0000 1.0000
66.8400 346.0000 1.0000
66.8500 349.0000 1.0000
66.8600 334.0000 1.0000
66.8700 314.0000 1.0000
66.8800 313.0000 1.0000
66.8900 341.0000 1.0000
66.9000 327.0000 1.0000
66.9100 347.0000 1.0000
66.9200 334.0000 1.0000
66.9300 345.0000 1.0000
66.9400 335.0000 1.0000
66.9500 352.0000 1.0000
66.9600 325.0000 1.0000
66.9700 353.0000 1.0000
66.9800 329.0000 1.0000
66.9900 333.0000 1.0000
67.0000 306.0000 1.0000
67.0100 317.0000 1.0000
67.0200 341.0000 1.0000
67.0300 348.0000 1.0000
67.0400 347.0000 1.0000
67.0500 334.0000 1.0000
67.0600 351.0000 1.0000
67.0700 310.0000 1.0000
67.0800 342.0000 1.0000
67.0900 337.0000 1.0000
67.1000 331.0000 1.0000
67.1100 352.0000 1.0000
67.1200 329.0000 1.0000
67.1300 337.0000 1.0000
67.1400 358.0000 1.0000
67.1500 348.0000 1.0000
67.1600 309.0000 1.0000
67.1700 324.0000 1.0000
67.1800 341.0000 1.0000
67.1900 328.0000 1.0000
67.2000 340.0000 1.0000
67.2100 331.0000 1.0000
67.2200 359.0000 1.0000
67.2300 315.0000 1.0000
67.2400 319.0000 1.0000
67.2500 326.0000 1.0000
67.2600 335.0000 1.0000
67.2700 322.0000 1.0000
67.2800 329.0000 1.0000
67.2900 354.0000 1.0000
67.3000 377.0000 1.0000
67.3100 341.0000 1.0000
67.3200 342.0000 1.0000
67.3300 326.0000 1.0000
67.3400 343.0000 1.0000
67.3500 312.0000 1.0000
67.3600 342.0000 1.0000
67.3700 309.0000 1.0000
67.3800 311.0000 1.0000
67.3900 343.0000 1.0000
67.4000 332.0000 1.0000
67.4100 336.0000 1.0000
67.4200 359.0000 1.0000
67.4300 318.0000 1.0000
67.4400 350.0000 1.0000
67.4500 370.0000 1.0000
67.4600 337.0000 1.0000
67.4700 319.0000 1.0000
67.4800 333.0000 1.0000
67.4900 316.0000 1.0000
67.5000 332.0000 1.0000
67.5100 321.0000 1.0000
67.5200 327.0000 1.0000
67.5300 317.0000 1.0000
67.5400 308.0000 1.0000
67.5500 342.0000 1.0000
67.5600 360.0000 1.0000
67.5700 314.0000 1.0000
67.5800 305.0000 1.0000
67.5900 333.0000 1.0000
67.6000 340.0000 1.0000
67.6100 329.0000 1.0000
67.6200 319.0000 1.0000
67.6300 349.0000 1.0000
67.6400 315.0000 1.0000
67.6500 328.0000 1.0000
67.6600 338.0000 1.0000
67.6700 329.0000 1.0000
67.6800 339.0000 1.0000
67.6900 329.0000 1.0000
67.7000 323.0000 1.0000
67.7100 339.0000 1.0000
67.7200 325.0000 1.0000
67.7300 321.0000 1.0000
67.7400 297.0000 1.0000
67.7500 310.0000 1.0000
67.7600 329.0000 1.0000
67.7700 354.0000 1.0000
67.7800 324.0000 1.0000
67.7900 365.0000 1.0000
67.8000 353.0000 1.0000
67.8100 350.0000 1.0000
67.8200 330.0000 1.0000
67.8300 315.0000 1.0000
67.8400 329.0000 1.0000
67.8500 335.0000 1.0000
67.8600 298.0000 1.0000
67.8700 328.0000 1.0000
67.8800 326.0000 1.0000
67.8900 303.0000 1.0000
67.9000 306.0000 1.0000
67.9100 312.0000 1.0000
67.9200 323.0000 1.0000
67.9300 332.0000 1.0000
67.9400 328.0000 1.0000
67.9500 349.0000 1.0000
67.9600 314.0000 1.0000
67.9700 306.0000 1.0000
67.9800 340.0000 1.0000
67.9900 318.0000 1.0000
68.0000 335.0000 1.0000
68.0100 353.0000 1.0000
68.0200 332.0000 1.0000
68.0300 319.0000 1.0000
68.0400 320.0000 1.0000
68.0500 308.0000 1.0000
68.0600 305.0000 1.0000
68.0700 331.0000 1.0000
68.0800 312.0000 1.0000
68.0900 324.0000 1.0000
68.1000 359.0000 1.0000
68.1100 352.0000 1.0000
68.1200 320.0000 1.0000
68.1300 335.0000 1.0000
68.1400 318.0000 1.0000
68.1500 294.0000 1.0000
68.1600 334.0000 1.0000
68.1700 329.0000 1.0000
68.1800 329.0000 1.0000
68.1900 318.0000 1.0000
68.2000 303.0000 1.0000
68.2100 333.0000 1.0000
68.2200 331.0000 1.0000
68.2300 309.0000 1.0000
68.2400 343.0000 1.0000
68.2500 330.0000 1.0000
68.2600 337.0000 1.0000
68.2700 348.0000 1.0000
68.2800 334.0000 1.0000
68.2900 327.0000 1.0000
68.3000 329.0000 1.0000
68.3100 330.0000 1.0000
68.3200 326.0000 1.0000
68.3300 312.0000 1.0000
68.3400 315.0000 1.0000
68.3500 347.0000 1.0000
68.3600 330.0000 1.0000
68.3700 327.0000 1.0000
68.3800 317.0000 1.0000
68.3900 318.0000 1.0000
68.4000 282.0000 1.0000
68.4100 316.0000 1.0000
68.4200 338.0000 1.0000
68.4300 304.0000 1.0000
68.4400 327.0000 1.0000
68.4500 318.0000 1.0000
68.4600 332.0000 1.0000
68.4700 335.0000 1.0000
68.4800 311.0000 1.0000
68.4900 329.0000 1.0000
68.5000 323.0000 1.0000
68.5100 336.0000 1.0000
68.5200 330.0000 1.0000
68.5300 330.0000 1.0000
68.5400 303.0000 1.0000
68.5500 330.0000 1.0000
68.5600 312.0000 1.0000
68.5700 320.0000 1.0000
68.5800 320.0000 1.0000
68.5900 326.0000 1.0000
68.6000 332.0000 1.0000
68.6100 301.0000 1.0000
68.6200 319.0000 1.0000
68.6300 302.0000 1.0000
68.6400 320.0000 1.0000
68.6500 355.0000 1.0000
68.6600 316.0000 1.0000
68.6700 324.0000 1.0000
68.6800 327.0000 1.0000
68.6900 310.0000 1.0000
68.7000 328.0000 1.0000
68.7100 321.0000 1.0000
68.7200 311.0000 1.0000
68.7300 304.0000 1.0000
68.7400 331.0000 1.0000
68.7500 314.0000 1.0000
68.7600 350.0000 1.0000
68.7700 298.0000 1.0000
68.7800 319.0000 1.0000
68.7900 296.0000 1.0000
68.8000 302.0000 1.0000
68.8100 315.0000 1.0000
68.8200 315.0000 1.0000
68.8300 324.0000 1.0000
68.8400 324.0000 1.0000
68.8500 328.0000 1.0000
68.8600 313.0000 1.0000
68.8700 317.0000 1.0000
68.8800 289.0000 1.0000
68.8900 316.0000 1.0000
68.9000 340.0000 1.0000
68.9100 319.0000 1.0000
68.9200 320.0000 1.0000
68.9300 320.0000 1.0000
68.9400 314.0000 1.0000
68.9500 341.0000 1.0000
68.9600 330.0000 1.0000
68.9700 309.0000 1.0000
68.9800 293.0000 1.0000
68.9900 327.0000 1.0000
69.0000 324.0000 1.0000
69.0100 296.0000 1.0000
69.0200 343.0000 1.0000
69.0300 324.0000 1.0000
69.0400 311.0000 1.0000
69.0500 345.0000 1.0000
69.0600 325.0000 1.0000
69.0700 341.0000 1.0000
69.0800 323.0000 1.0000
69.0900 302.0000 1.0000
69.1000 295.0000 1.0000
69.1100 294.0000 1.0000
69.1200 308.0000 1.0000
69.1300 294.0000 1.0000
69.1400 300.0000 1.0000
69.1500 351.0000 1.0000
69.1600 334.0000 1.0000
69.1700 305.0000 1.0000
69.1800 316.0000 1.0000
69.1900 335.0000 1.0000
69.2000 311.0000 1.0000
69.2100 349.0000 1.0000
69.2200 335.0000 1.0000
69.2300 305.0000 1.0000
69.2400 307.0000 1.0000
69.2500 303.0000 1.0000
69.2600 306.0000 1.0000
69.2700 341.0000 1.0000
69.2800 324.0000 1.0000
69.2900 313.0000 1.0000
69.3000 309.0000 1.0000
69.3100 317.0000 1.0000
69.3200 311.0000 1.0000
69.3300 315.0000 1.0000
69.3400 339.0000 1.0000
69.3500 310.0000 1.0000
69.3600 328.0000 1.0000
69.3700 310.0000 1.0000
69.3800 317.0000 1.0000
69.3900 334.0000 1.0000
69.4000 288.0000 1.0000
69.4100 300.0000 1.0000
69.4200 308.0000 1.0000
69.4300 318.0000 1.0000
69.4400 318.0000 1.0000
69.4500 335.0000 1.0000
69.4600 320.0000 1.0000
69.4700 321.0000 1.0000
69.4800 312.0000 1.0000
69.4900 314.0000 1.0000
69.5000 337.0000 1.0000
69.5100 332.0000 1.0000
69.5200 326.0000 1.0000
69.5300 326.0000 1.0000
69.5400 315.0000 1.0000
69.5500 329.0000 1.0000
69.5600 314.0000 1.0000
69.5700 305.0000 1.0000
69.5800 321.0000 1.0000
69.5900 338.0000 1.0000
69.6000 314.0000 1.0000
69.6100 334.0000 1.0000
69.6200 342.0000 1.0000
69.6300 303.0000 1.0000
69.6400 291.0000 1.0000
69.6500 331.0000 1.0000
69.6600 304.0000 1.0000
69.6700 318.0000 1.0000
69.6800 328.0000 1.0000
69.6900 318.0000 1.0000
69.7000 309.0000 1.0000
69.7100 307.0000 1.0000
69.7200 297.0000 1.0000
69.7300 327.0000 1.0000
69.7400 309.0000 1.0000
69.7500 304.0000 1.0000
69.7600 303.0000 1.0000
69.7700 320.0000 1.0000
69.7800 358.0000 1.0000
69.7900 309.0000 1.0000
69.8000 324.0000 1.0000
69.8100 319.0000 1.0000
69.8200 299.0000 1.0000
69.8300 293.0000 1.0000
69.8400 322.0000 1.0000
69.8500 318.0000 1.0000
69.8600 292.0000 1.0000
69.8700 334.0000 1.0000
69.8800 312.0000 1.0000
69.8900 296.0000 1.0000
69.9000 325.0000 1.0000
69.9100 317.0000 1.0000
69.9200 310.0000 1.0000
69.9300 328.0000 1.0000
69.9400 337.0000 1.0000
69.9500 315.0000 1.0000
69.9600 287.0000 1.0000
69.9700 325.0000 1.0000
69.9800 319.0000 1.0000
69.9900 314.0000 1.0000
70.0000 338.0000 1.0000
*RAS_INT_END
*RAS_TEMPERATURE_START
*RAS_TEMPERATURE_END
*RAS_DATA_END
