*RAS_DATA_START
*RAS_HEADER_START
*DISP_FMT_X "%.2f"
*DISP_FMT_Y "%.0f"
*DISP_FULLSCALE "13848.0000000000"
*DISP_LINE_COLOR "255.0000000000"
*DISP_LINE_STYLE "0.0000000000"
*DISP_LINE_WIDTH "0.2500000000"
*DISP_NOTE "測定データ-4"
*DISP_OFFSET_Y "0.0000000000"
*DISP_PEAKSEARCH_UNIT_Y "cps"
*DISP_RANGE_BOTTOM "0.0000000000"
*DISP_RANGE_LEFT "20.0000000000"
*DISP_RANGE_LOGCUTOFF "0.0100000000"
*DISP_RANGE_RIGHT "70.0000000000"
*DISP_RANGE_TOP "13848.0000000000"
*DISP_SCALE_MODE_Y "0.0000000000"
*DISP_TAB_NAME "2θ/θ"
*DISP_TITLE_Y "強度"
*DISP_UNIT_Y "cps"
*DISP_WINDOW_NAME "MSG_MACROENGINE"
*FILE_COMMENT " "
*FILE_MD5 ""
*FILE_MEMO " "
*FILE_OPERATOR "Administrator"
*FILE_SAMPLE " "
*FILE_TYPE "RAS_RAW"
*FILE_USERGROUP "システムマネージャ"
*FILE_VERSION "1.0000000000"
*HW_ATTACHMENT_ID "ATT0025"
*HW_ATTACHMENT_NAME "標準|Standard"
*HW_COUNTER_ID-0 "CUT0025"
*HW_COUNTER_ID-1 "CUT0020"
*HW_COUNTER_ID-2 "CUT0020"
*HW_COUNTER_ID-3 "CSL0021"
*HW_COUNTER_ID-4 "CMC0021"
*HW_COUNTER_NAME-0 "D/teX Ultra|D/teX Ultra"
*HW_COUNTER_NAME-1 "None|None"
*HW_COUNTER_NAME-2 "None|None"
*HW_COUNTER_NAME-3 "BBM|BBM"
*HW_COUNTER_NAME-4 "検出器モノクロメータ|Detector monochromator"
*HW_COUNTER_SELECT_NAME "D/teX Ultra|D/teX Ultra"
*HW_GONIOMETER_ID "GON0023"
*HW_GONIOMETER_NAME "SmartLab|SmartLab"
*HW_GONIOMETER_RADIUS-0 "90.0"
*HW_GONIOMETER_RADIUS-1 "114.0"
*HW_GONIOMETER_RADIUS-2 "190.0"
*HW_GONIOMETER_RADIUS-3 "300.0"
*HW_GONIOMETER_RADIUS-4 "187.0"
*HW_GONIOMETER_RADIUS-5 "300.0"
*HW_GONIOMETER_RADIUS-6 "113.0"
*HW_GONIOMETER_RADIUS-7 "331.0"
*HW_I_OPT_ID-0 "CBO0021"
*HW_I_OPT_ID-1 "ICR0023"
*HW_I_OPT_ID-2 "ISL0021"
*HW_I_OPT_ID-3 "ISO0021"
*HW_I_OPT_ID-4 "IAD0021"
*HW_I_OPT_ID-5 "IPR0001"
*HW_I_OPT_NAME-0 "CBOユニット|CBO unit"
*HW_I_OPT_NAME-1 "標準入射光学ユニット|Standard incident optical unit"
*HW_I_OPT_NAME-2 "標準入射スリットボックス|Standard incident slit box"
*HW_I_OPT_NAME-3 "入射平行スリット|Incident parallel slit"
*HW_I_OPT_NAME-4 "長手制限スリット|Length limiting slit"
*HW_I_OPT_NAME-5 "None|None"
*HW_R_ATTENUATER_AUTOMODE "0"
*HW_R_OPT_ID-0 "RSS0021"
*HW_R_OPT_ID-1 "RCR0023"
*HW_R_OPT_ID-2 "RSO0021"
*HW_R_OPT_ID-3 "RRS0021"
*HW_R_OPT_ID-4 "ATN0021"
*HW_R_OPT_ID-5 "RFL0021"
*HW_R_OPT_ID-6 "RAD0021"
*HW_R_OPT_NAME-0 "標準受光スリットボックス1|Standard receiving slit box # 1"
*HW_R_OPT_NAME-1 "標準受光光学ユニット1|Standard receiving unit # 1"
*HW_R_OPT_NAME-2 "標準受光光学ユニット2|Standard receiving optical unit # 2"
*HW_R_OPT_NAME-3 "標準受光スリットボックス2|Standard receiving slit box # 2"
*HW_R_OPT_NAME-4 "標準アッテネータ|Standard Attenuator"
*HW_R_OPT_NAME-5 "Cu Kβ|Cu K-beta"
*HW_R_OPT_NAME-6 "調整用受光スリット|Alignment receiving slit"
*HW_SAMPLE_HOLDER_ID "SMP0023"
*HW_SAMPLE_HOLDER_NAME "標準Zステージ|Standard Z stage"
*HW_XG_CURRENT_MAX "50"
*HW_XG_CURRENT_MIN "2"
*HW_XG_CURRENT_RESOLUTION "1"
*HW_XG_CURRENT_UNIT "mA"
*HW_XG_FOCUS "1mm x 10mm"
*HW_XG_FOCUS_TYPE "Normal"
*HW_XG_ID ""
*HW_XG_NAME "3kW 封入管(ID:1200)|3kW Sealed tube(ID:1200)"
*HW_XG_TARGET_ATOMIC_NUMBER "29.0000000000"
*HW_XG_TARGET_NAME "Cu"
*HW_XG_TYPE "Hermetic"
*HW_XG_VOLTAGE_MAX "60"
*HW_XG_VOLTAGE_MIN "20"
*HW_XG_VOLTAGE_RESOLUTION "1"
*HW_XG_VOLTAGE_UNIT "kV"
*HW_XG_WATT_MAX "1.500"
*HW_XG_WATT_UNIT "kW"
*HW_XG_WAVE_LENGTH_ALPHA1 "1.540593"
*HW_XG_WAVE_LENGTH_ALPHA2 "1.544414"
*HW_XG_WAVE_LENGTH_BETA "1.392250"
*MEAS_COND_AXIS_NAME-0 "2θ/θ"
*MEAS_COND_AXIS_NAME-1 "2θ"
*MEAS_COND_AXIS_NAME-2 "ω"
*MEAS_COND_AXIS_NAME-3 "Z"
*MEAS_COND_AXIS_NAME-4 "2θ/ω"
*MEAS_COND_AXIS_NAME-5 "θs"
*MEAS_COND_AXIS_NAME-6 "θd"
*MEAS_COND_AXIS_NAME-7 "Ts"
*MEAS_COND_AXIS_NAME-8 "CBO選択スリット"
*MEAS_COND_AXIS_NAME-9 "M"
*MEAS_COND_AXIS_NAME-10 "入射平行スリット"
*MEAS_COND_AXIS_NAME-11 "入射スリット"
*MEAS_COND_AXIS_NAME-12 ""
*MEAS_COND_AXIS_NAME-13 "Zs"
*MEAS_COND_AXIS_NAME-14 "入射光学素子"
*MEAS_COND_AXIS_NAME-15 "長手制限スリット"
*MEAS_COND_AXIS_NAME-16 "センタースリット"
*MEAS_COND_AXIS_NAME-17 "フィルター"
*MEAS_COND_AXIS_NAME-18 "受光スリット1"
*MEAS_COND_AXIS_NAME-19 "受光スリット2"
*MEAS_COND_AXIS_NAME-20 "受光光学素子"
*MEAS_COND_AXIS_NAME-21 "受光平行スリット"
*MEAS_COND_AXIS_NAME-22 "調整用受光スリット"
*MEAS_COND_AXIS_NAME-23 ""
*MEAS_COND_AXIS_NAME-24 ""
*MEAS_COND_AXIS_NAME-25 "Zd"
*MEAS_COND_AXIS_NAME-26 "アッテネータ"
*MEAS_COND_AXIS_NAME-27 "検出器モノクロメータ"
*MEAS_COND_AXIS_NAME-28 "モノクロメータスリット"
*MEAS_COND_AXIS_NAME-29 "プライマリビーム"
*MEAS_COND_AXIS_NAME-30 "PHA"
*MEAS_COND_AXIS_NAME_INTERNAL-0 "TwoThetaTheta"
*MEAS_COND_AXIS_NAME_INTERNAL-1 "TwoTheta"
*MEAS_COND_AXIS_NAME_INTERNAL-2 "Omega"
*MEAS_COND_AXIS_NAME_INTERNAL-3 "Z"
*MEAS_COND_AXIS_NAME_INTERNAL-4 "TwoThetaOmega"
*MEAS_COND_AXIS_NAME_INTERNAL-5 "ThetaS"
*MEAS_COND_AXIS_NAME_INTERNAL-6 "ThetaD"
*MEAS_COND_AXIS_NAME_INTERNAL-7 "Ts"
*MEAS_COND_AXIS_NAME_INTERNAL-8 "CBO"
*MEAS_COND_AXIS_NAME_INTERNAL-9 "CBO-M"
*MEAS_COND_AXIS_NAME_INTERNAL-10 "IncidentSollerSlit"
*MEAS_COND_AXIS_NAME_INTERNAL-11 "IncidentSlitBox"
*MEAS_COND_AXIS_NAME_INTERNAL-12 "IncidentSlitBox-_Axis"
*MEAS_COND_AXIS_NAME_INTERNAL-13 "Zs"
*MEAS_COND_AXIS_NAME_INTERNAL-14 "IncidentMonochromator"
*MEAS_COND_AXIS_NAME_INTERNAL-15 "IncidentAxdSlit"
*MEAS_COND_AXIS_NAME_INTERNAL-16 "CenterSlit"
*MEAS_COND_AXIS_NAME_INTERNAL-17 "Filter"
*MEAS_COND_AXIS_NAME_INTERNAL-18 "ReceivingSlitBox1"
*MEAS_COND_AXIS_NAME_INTERNAL-19 "ReceivingSlitBox2"
*MEAS_COND_AXIS_NAME_INTERNAL-20 "ReceivingOptics"
*MEAS_COND_AXIS_NAME_INTERNAL-21 "ReceivingSollerSlit"
*MEAS_COND_AXIS_NAME_INTERNAL-22 "ReceivingAxdSlit"
*MEAS_COND_AXIS_NAME_INTERNAL-23 "ReceivingSlitBox1-_Axis"
*MEAS_COND_AXIS_NAME_INTERNAL-24 "ReceivingSlitBox2-_Axis"
*MEAS_COND_AXIS_NAME_INTERNAL-25 "ReceivingSlitBox2-Zd"
*MEAS_COND_AXIS_NAME_INTERNAL-26 "Attenuator"
*MEAS_COND_AXIS_NAME_INTERNAL-27 "CounterMonochromator"
*MEAS_COND_AXIS_NAME_INTERNAL-28 "CounterSlit"
*MEAS_COND_AXIS_NAME_INTERNAL-29 "IncidentPrimary"
*MEAS_COND_AXIS_NAME_INTERNAL-30 "PHA"
*MEAS_COND_AXIS_NAME_MAGICNO-0 "83951616.0000000000"
*MEAS_COND_AXIS_NAME_MAGICNO-1 "268632064.0000000000"
*MEAS_COND_AXIS_NAME_MAGICNO-2 "268500992.0000000000"
*MEAS_COND_AXIS_NAME_MAGICNO-3 "285278208.0000000000"
*MEAS_COND_AXIS_NAME_MAGICNO-4 "83951616.0000000000"
*MEAS_COND_AXIS_NAME_MAGICNO-5 "131072.0000000000"
*MEAS_COND_AXIS_NAME_MAGICNO-6 "131072.0000000000"
*MEAS_COND_AXIS_NAME_MAGICNO-7 "318898176.0000000000"
*MEAS_COND_AXIS_NAME_MAGICNO-8 "20971521.0000000000"
*MEAS_COND_AXIS_NAME_MAGICNO-9 "285343744.0000000000"
*MEAS_COND_AXIS_NAME_MAGICNO-10 "20971521.0000000000"
*MEAS_COND_AXIS_NAME_MAGICNO-11 "22020097.0000000000"
*MEAS_COND_AXIS_NAME_MAGICNO-12 "25165824.0000000000"
*MEAS_COND_AXIS_NAME_MAGICNO-13 "318898176.0000000000"
*MEAS_COND_AXIS_NAME_MAGICNO-14 "1.0000000000"
*MEAS_COND_AXIS_NAME_MAGICNO-15 "20971521.0000000000"
*MEAS_COND_AXIS_NAME_MAGICNO-16 "20971521.0000000000"
*MEAS_COND_AXIS_NAME_MAGICNO-17 "20971521.0000000000"
*MEAS_COND_AXIS_NAME_MAGICNO-18 "23068673.0000000000"
*MEAS_COND_AXIS_NAME_MAGICNO-19 "23068673.0000000000"
*MEAS_COND_AXIS_NAME_MAGICNO-20 "20971521.0000000000"
*MEAS_COND_AXIS_NAME_MAGICNO-21 "20971521.0000000000"
*MEAS_COND_AXIS_NAME_MAGICNO-22 "20971521.0000000000"
*MEAS_COND_AXIS_NAME_MAGICNO-23 "25165824.0000000000"
*MEAS_COND_AXIS_NAME_MAGICNO-24 "25165824.0000000000"
*MEAS_COND_AXIS_NAME_MAGICNO-25 "285343744.0000000000"
*MEAS_COND_AXIS_NAME_MAGICNO-26 "17301505.0000000000"
*MEAS_COND_AXIS_NAME_MAGICNO-27 "20971521.0000000000"
*MEAS_COND_AXIS_NAME_MAGICNO-28 "20971521.0000000000"
*MEAS_COND_AXIS_NAME_MAGICNO-29 "20971521.0000000000"
*MEAS_COND_AXIS_NAME_MAGICNO-30 "0.0000000000"
*MEAS_COND_AXIS_OFFSET-0 "-"
*MEAS_COND_AXIS_OFFSET-1 "-0.1081000000"
*MEAS_COND_AXIS_OFFSET-2 "0.3758000000"
*MEAS_COND_AXIS_OFFSET-3 "-"
*MEAS_COND_AXIS_OFFSET-4 "-"
*MEAS_COND_AXIS_OFFSET-5 "0.3758000000"
*MEAS_COND_AXIS_OFFSET-6 "-0.4839000000"
*MEAS_COND_AXIS_OFFSET-7 "-"
*MEAS_COND_AXIS_OFFSET-8 "-"
*MEAS_COND_AXIS_OFFSET-9 "-"
*MEAS_COND_AXIS_OFFSET-10 "-"
*MEAS_COND_AXIS_OFFSET-11 "-"
*MEAS_COND_AXIS_OFFSET-12 "-"
*MEAS_COND_AXIS_OFFSET-13 "-"
*MEAS_COND_AXIS_OFFSET-14 "-"
*MEAS_COND_AXIS_OFFSET-15 "-"
*MEAS_COND_AXIS_OFFSET-16 "-"
*MEAS_COND_AXIS_OFFSET-17 "-"
*MEAS_COND_AXIS_OFFSET-18 "-"
*MEAS_COND_AXIS_OFFSET-19 "-"
*MEAS_COND_AXIS_OFFSET-20 "-"
*MEAS_COND_AXIS_OFFSET-21 "-"
*MEAS_COND_AXIS_OFFSET-22 "-"
*MEAS_COND_AXIS_OFFSET-23 "-"
*MEAS_COND_AXIS_OFFSET-24 "-"
*MEAS_COND_AXIS_OFFSET-25 "-"
*MEAS_COND_AXIS_OFFSET-26 "-"
*MEAS_COND_AXIS_OFFSET-27 "-"
*MEAS_COND_AXIS_OFFSET-28 "-"
*MEAS_COND_AXIS_OFFSET-29 "-"
*MEAS_COND_AXIS_OFFSET-30 "-"
*MEAS_COND_AXIS_POSITION-0 "0.0000000000"
*MEAS_COND_AXIS_POSITION-1 "0.0000000000"
*MEAS_COND_AXIS_POSITION-2 "0.0000000000"
*MEAS_COND_AXIS_POSITION-3 "-0.5500000000"
*MEAS_COND_AXIS_POSITION-4 "0.0000000000"
*MEAS_COND_AXIS_POSITION-5 "0.0000000000"
*MEAS_COND_AXIS_POSITION-6 "0.0000000000"
*MEAS_COND_AXIS_POSITION-7 "-0.4278800000"
*MEAS_COND_AXIS_POSITION-8 "BB"
*MEAS_COND_AXIS_POSITION-9 "0.0000000000"
*MEAS_COND_AXIS_POSITION-10 "Soller_slit_5.0deg"
*MEAS_COND_AXIS_POSITION-11 "2/3deg"
*MEAS_COND_AXIS_POSITION-12 "2.2088000000"
*MEAS_COND_AXIS_POSITION-13 "-0.4140600000"
*MEAS_COND_AXIS_POSITION-14 "0.0000000000"
*MEAS_COND_AXIS_POSITION-15 "10.0mm"
*MEAS_COND_AXIS_POSITION-16 "None"
*MEAS_COND_AXIS_POSITION-17 "Cu_K-beta"
*MEAS_COND_AXIS_POSITION-18 "13.000mm"
*MEAS_COND_AXIS_POSITION-19 "13.000mm"
*MEAS_COND_AXIS_POSITION-20 "No_unit"
*MEAS_COND_AXIS_POSITION-21 "Soller_slit_5.0deg"
*MEAS_COND_AXIS_POSITION-22 "None"
*MEAS_COND_AXIS_POSITION-23 "13.0000000000"
*MEAS_COND_AXIS_POSITION-24 "13.0000000000"
*MEAS_COND_AXIS_POSITION-25 "0.0109400000"
*MEAS_COND_AXIS_POSITION-26 "Open"
*MEAS_COND_AXIS_POSITION-27 "None"
*MEAS_COND_AXIS_POSITION-28 "None"
*MEAS_COND_AXIS_POSITION-29 "None"
*MEAS_COND_AXIS_POSITION-30 "38.0000000000"
*MEAS_COND_AXIS_UNIT-0 "deg"
*MEAS_COND_AXIS_UNIT-1 "deg"
*MEAS_COND_AXIS_UNIT-2 "deg"
*MEAS_COND_AXIS_UNIT-3 "mm"
*MEAS_COND_AXIS_UNIT-4 "deg"
*MEAS_COND_AXIS_UNIT-5 "deg"
*MEAS_COND_AXIS_UNIT-6 "deg"
*MEAS_COND_AXIS_UNIT-7 "mm"
*MEAS_COND_AXIS_UNIT-8 ""
*MEAS_COND_AXIS_UNIT-9 "pulse"
*MEAS_COND_AXIS_UNIT-10 ""
*MEAS_COND_AXIS_UNIT-11 ""
*MEAS_COND_AXIS_UNIT-12 "mm"
*MEAS_COND_AXIS_UNIT-13 "mm"
*MEAS_COND_AXIS_UNIT-14 ""
*MEAS_COND_AXIS_UNIT-15 ""
*MEAS_COND_AXIS_UNIT-16 ""
*MEAS_COND_AXIS_UNIT-17 ""
*MEAS_COND_AXIS_UNIT-18 ""
*MEAS_COND_AXIS_UNIT-19 ""
*MEAS_COND_AXIS_UNIT-20 ""
*MEAS_COND_AXIS_UNIT-21 ""
*MEAS_COND_AXIS_UNIT-22 ""
*MEAS_COND_AXIS_UNIT-23 "mm"
*MEAS_COND_AXIS_UNIT-24 "mm"
*MEAS_COND_AXIS_UNIT-25 "mm"
*MEAS_COND_AXIS_UNIT-26 ""
*MEAS_COND_AXIS_UNIT-27 ""
*MEAS_COND_AXIS_UNIT-28 ""
*MEAS_COND_AXIS_UNIT-29 ""
*MEAS_COND_AXIS_UNIT-30 "div"
*MEAS_COND_COUNTER_CNTLOSS_CORR "0.0000000000"
*MEAS_COND_COUNTER_PHABASE "38.0000000000"
*MEAS_COND_COUNTER_PHAWINDOW "16.0000000000"
*MEAS_COND_COUNTER_PHA_UNIT "div"
*MEAS_COND_COUNTER_TAUDIFF "30.0000000000"
*MEAS_COND_COUNTER_TAUINT "0.0000000000"
*MEAS_COND_IRRADIATION_MODE "OFF"
*MEAS_COND_IRRADIATION_WIDTH ""
*MEAS_COND_OPT_ATTR "集中法"
*MEAS_COND_OPT_NAME "@集中法"
*MEAS_COND_UNSYMMETRIC_MODE "OFF"
*MEAS_COND_XG_CURRENT "30.0000000000"
*MEAS_COND_XG_VOLTAGE "40.0000000000"
*MEAS_COND_XG_WAVE_TYPE "Ka"
*MEAS_DATA_COUNT "5001.0000000000"
*MEAS_SCAN_AXIS_X "2θ/θ"
*MEAS_SCAN_AXIS_X_INTERNAL "TwoThetaTheta"
*MEAS_SCAN_END_TIME "07/08/21 14:35:03"
*MEAS_SCAN_MODE "CONTINUOUS"
*MEAS_SCAN_MONITOR "0"
*MEAS_SCAN_RESOLUTION_X "0.0002"
*MEAS_SCAN_SPEED "1.0"
*MEAS_SCAN_SPEED_UNIT "deg/min"
*MEAS_SCAN_START "20.0000000000"
*MEAS_SCAN_START_TIME "07/08/21 13:42:09"
*MEAS_SCAN_STEP "0.0100000000"
*MEAS_SCAN_STOP "70.0000000000"
*MEAS_SCAN_UNIT_X "deg"
*MEAS_SCAN_UNIT_Y "counts"
*RAS_HEADER_END
*RAS_INT_START
20.0000 1616.0000 1.0000
20.0100 1616.0000 1.0000
20.0200 1660.0000 1.0000
20.0300 1615.0000 1.0000
20.0400 1559.0000 1.0000
20.0500 1620.0000 1.0000
20.0600 1572.0000 1.0000
20.0700 1611.0000 1.0000
20.0800 1591.0000 1.0000
20.0900 1597.0000 1.0000
20.1000 1596.0000 1.0000
20.1100 1601.0000 1.0000
20.1200 1640.0000 1.0000
20.1300 1660.0000 1.0000
20.1400 1609.0000 1.0000
20.1500 1657.0000 1.0000
20.1600 1580.0000 1.0000
20.1700 1662.0000 1.0000
20.1800 1654.0000 1.0000
20.1900 1665.0000 1.0000
20.2000 1603.0000 1.0000
20.2100 1614.0000 1.0000
20.2200 1672.0000 1.0000
20.2300 1637.0000 1.0000
20.2400 1577.0000 1.0000
20.2500 1615.0000 1.0000
20.2600 1621.0000 1.0000
20.2700 1612.0000 1.0000
20.2800 1601.0000 1.0000
20.2900 1621.0000 1.0000
20.3000 1580.0000 1.0000
20.3100 1574.0000 1.0000
20.3200 1609.0000 1.0000
20.3300 1616.0000 1.0000
20.3400 1644.0000 1.0000
20.3500 1650.0000 1.0000
20.3600 1659.0000 1.0000
20.3700 1595.0000 1.0000
20.3800 1593.0000 1.0000
20.3900 1598.0000 1.0000
20.4000 1583.0000 1.0000
20.4100 1635.0000 1.0000
20.4200 1658.0000 1.0000
20.4300 1668.0000 1.0000
20.4400 1626.0000 1.0000
20.4500 1560.0000 1.0000
20.4600 1603.0000 1.0000
20.4700 1574.0000 1.0000
20.4800 1699.0000 1.0000
20.4900 1653.0000 1.0000
20.5000 1652.0000 1.0000
20.5100 1598.0000 1.0000
20.5200 1592.0000 1.0000
20.5300 1620.0000 1.0000
20.5400 1617.0000 1.0000
20.5500 1637.0000 1.0000
20.5600 1631.0000 1.0000
20.5700 1689.0000 1.0000
20.5800 1631.0000 1.0000
20.5900 1703.0000 1.0000
20.6000 1606.0000 1.0000
20.6100 1524.0000 1.0000
20.6200 1626.0000 1.0000
20.6300 1602.0000 1.0000
20.6400 1564.0000 1.0000
20.6500 1647.0000 1.0000
20.6600 1590.0000 1.0000
20.6700 1565.0000 1.0000
20.6800 1590.0000 1.0000
20.6900 1661.0000 1.0000
20.7000 1663.0000 1.0000
20.7100 1621.0000 1.0000
20.7200 1643.0000 1.0000
20.7300 1627.0000 1.0000
20.7400 1627.0000 1.0000
20.7500 1629.0000 1.0000
20.7600 1627.0000 1.0000
20.7700 1571.0000 1.0000
20.7800 1636.0000 1.0000
20.7900 1637.0000 1.0000
20.8000 1662.0000 1.0000
20.8100 1604.0000 1.0000
20.8200 1579.0000 1.0000
20.8300 1625.0000 1.0000
20.8400 1582.0000 1.0000
20.8500 1582.0000 1.0000
20.8600 1643.0000 1.0000
20.8700 1648.0000 1.0000
20.8800 1598.0000 1.0000
20.8900 1596.0000 1.0000
20.9000 1565.0000 1.0000
20.9100 1594.0000 1.0000
20.9200 1561.0000 1.0000
20.9300 1608.0000 1.0000
20.9400 1563.0000 1.0000
20.9500 1608.0000 1.0000
20.9600 1652.0000 1.0000
20.9700 1601.0000 1.0000
20.9800 1630.0000 1.0000
20.9900 1602.0000 1.0000
21.0000 1607.0000 1.0000
21.0100 1606.0000 1.0000
21.0200 1640.0000 1.0000
21.0300 1557.0000 1.0000
21.0400 1603.0000 1.0000
21.0500 1572.0000 1.0000
21.0600 1659.0000 1.0000
21.0700 1629.0000 1.0000
21.0800 1551.0000 1.0000
21.0900 1656.0000 1.0000
21.1000 1636.0000 1.0000
21.1100 1629.0000 1.0000
21.1200 1619.0000 1.0000
21.1300 1659.0000 1.0000
21.1400 1600.0000 1.0000
21.1500 1603.0000 1.0000
21.1600 1608.0000 1.0000
21.1700 1634.0000 1.0000
21.1800 1626.0000 1.0000
21.1900 1701.0000 1.0000
21.2000 1679.0000 1.0000
21.2100 1559.0000 1.0000
21.2200 1642.0000 1.0000
21.2300 1634.0000 1.0000
21.2400 1618.0000 1.0000
21.2500 1692.0000 1.0000
21.2600 1577.0000 1.0000
21.2700 1644.0000 1.0000
21.2800 1558.0000 1.0000
21.2900 1588.0000 1.0000
21.3000 1629.0000 1.0000
21.3100 1650.0000 1.0000
21.3200 1632.0000 1.0000
21.3300 1597.0000 1.0000
21.3400 1630.0000 1.0000
21.3500 1566.0000 1.0000
21.3600 1613.0000 1.0000
21.3700 1655.0000 1.0000
21.3800 1566.0000 1.0000
21.3900 1597.0000 1.0000
21.4000 1576.0000 1.0000
21.4100 1582.0000 1.0000
21.4200 1585.0000 1.0000
21.4300 1547.0000 1.0000
21.4400 1659.0000 1.0000
21.4500 1667.0000 1.0000
21.4600 1576.0000 1.0000
21.4700 1616.0000 1.0000
21.4800 1593.0000 1.0000
21.4900 1553.0000 1.0000
21.5000 1655.0000 1.0000
21.5100 1647.0000 1.0000
21.5200 1639.0000 1.0000
21.5300 1638.0000 1.0000
21.5400 1608.0000 1.0000
21.5500 1584.0000 1.0000
21.5600 1616.0000 1.0000
21.5700 1606.0000 1.0000
21.5800 1664.0000 1.0000
21.5900 1635.0000 1.0000
21.6000 1638.0000 1.0000
21.6100 1657.0000 1.0000
21.6200 1640.0000 1.0000
21.6300 1655.0000 1.0000
21.6400 1595.0000 1.0000
21.6500 1672.0000 1.0000
21.6600 1618.0000 1.0000
21.6700 1578.0000 1.0000
21.6800 1566.0000 1.0000
21.6900 1564.0000 1.0000
21.7000 1606.0000 1.0000
21.7100 1649.0000 1.0000
21.7200 1614.0000 1.0000
21.7300 1637.0000 1.0000
21.7400 1579.0000 1.0000
21.7500 1596.0000 1.0000
21.7600 1609.0000 1.0000
21.7700 1655.0000 1.0000
21.7800 1661.0000 1.0000
21.7900 1622.0000 1.0000
21.8000 1603.0000 1.0000
21.8100 1651.0000 1.0000
21.8200 1608.0000 1.0000
21.8300 1596.0000 1.0000
21.8400 1617.0000 1.0000
21.8500 1622.0000 1.0000
21.8600 1646.0000 1.0000
21.8700 1587.0000 1.0000
21.8800 1609.0000 1.0000
21.8900 1609.0000 1.0000
21.9000 1668.0000 1.0000
21.9100 1641.0000 1.0000
21.9200 1614.0000 1.0000
21.9300 1629.0000 1.0000
21.9400 1691.0000 1.0000
21.9500 1699.0000 1.0000
21.9600 1584.0000 1.0000
21.9700 1585.0000 1.0000
21.9800 1654.0000 1.0000
21.9900 1655.0000 1.0000
22.0000 1599.0000 1.0000
22.0100 1665.0000 1.0000
22.0200 1650.0000 1.0000
22.0300 1651.0000 1.0000
22.0400 1612.0000 1.0000
22.0500 1662.0000 1.0000
22.0600 1674.0000 1.0000
22.0700 1670.0000 1.0000
22.0800 1647.0000 1.0000
22.0900 1647.0000 1.0000
22.1000 1707.0000 1.0000
22.1100 1652.0000 1.0000
22.1200 1622.0000 1.0000
22.1300 1562.0000 1.0000
22.1400 1544.0000 1.0000
22.1500 1668.0000 1.0000
22.1600 1657.0000 1.0000
22.1700 1629.0000 1.0000
22.1800 1616.0000 1.0000
22.1900 1591.0000 1.0000
22.2000 1617.0000 1.0000
22.2100 1635.0000 1.0000
22.2200 1660.0000 1.0000
22.2300 1587.0000 1.0000
22.2400 1629.0000 1.0000
22.2500 1669.0000 1.0000
22.2600 1663.0000 1.0000
22.2700 1670.0000 1.0000
22.2800 1631.0000 1.0000
22.2900 1605.0000 1.0000
22.3000 1691.0000 1.0000
22.3100 1664.0000 1.0000
22.3200 1620.0000 1.0000
22.3300 1572.0000 1.0000
22.3400 1642.0000 1.0000
22.3500 1646.0000 1.0000
22.3600 1624.0000 1.0000
22.3700 1638.0000 1.0000
22.3800 1589.0000 1.0000
22.3900 1616.0000 1.0000
22.4000 1661.0000 1.0000
22.4100 1609.0000 1.0000
22.4200 1612.0000 1.0000
22.4300 1666.0000 1.0000
22.4400 1614.0000 1.0000
22.4500 1614.0000 1.0000
22.4600 1650.0000 1.0000
22.4700 1665.0000 1.0000
22.4800 1645.0000 1.0000
22.4900 1624.0000 1.0000
22.5000 1658.0000 1.0000
22.5100 1641.0000 1.0000
22.5200 1677.0000 1.0000
22.5300 1671.0000 1.0000
22.5400 1656.0000 1.0000
22.5500 1678.0000 1.0000
22.5600 1627.0000 1.0000
22.5700 1657.0000 1.0000
22.5800 1578.0000 1.0000
22.5900 1630.0000 1.0000
22.6000 1665.0000 1.0000
22.6100 1652.0000 1.0000
22.6200 1573.0000 1.0000
22.6300 1619.0000 1.0000
22.6400 1661.0000 1.0000
22.6500 1688.0000 1.0000
22.6600 1618.0000 1.0000
22.6700 1598.0000 1.0000
22.6800 1613.0000 1.0000
22.6900 1625.0000 1.0000
22.7000 1648.0000 1.0000
22.7100 1629.0000 1.0000
22.7200 1729.0000 1.0000
22.7300 1683.0000 1.0000
22.7400 1549.0000 1.0000
22.7500 1671.0000 1.0000
22.7600 1617.0000 1.0000
22.7700 1661.0000 1.0000
22.7800 1676.0000 1.0000
22.7900 1636.0000 1.0000
22.8000 1618.0000 1.0000
22.8100 1587.0000 1.0000
22.8200 1666.0000 1.0000
22.8300 1632.0000 1.0000
22.8400 1644.0000 1.0000
22.8500 1607.0000 1.0000
22.8600 1570.0000 1.0000
22.8700 1648.0000 1.0000
22.8800 1659.0000 1.0000
22.8900 1592.0000 1.0000
22.9000 1603.0000 1.0000
22.9100 1641.0000 1.0000
22.9200 1609.0000 1.0000
22.9300 1689.0000 1.0000
22.9400 1642.0000 1.0000
22.9500 1584.0000 1.0000
22.9600 1621.0000 1.0000
22.9700 1618.0000 1.0000
22.9800 1642.0000 1.0000
22.9900 1610.0000 1.0000
23.0000 1604.0000 1.0000
23.0100 1632.0000 1.0000
23.0200 1640.0000 1.0000
23.0300 1652.0000 1.0000
23.0400 1662.0000 1.0000
23.0500 1717.0000 1.0000
23.0600 1653.0000 1.0000
23.0700 1615.0000 1.0000
23.0800 1636.0000 1.0000
23.0900 1699.0000 1.0000
23.1000 1611.0000 1.0000
23.1100 1599.0000 1.0000
23.1200 1595.0000 1.0000
23.1300 1658.0000 1.0000
23.1400 1591.0000 1.0000
23.1500 1652.0000 1.0000
23.1600 1615.0000 1.0000
23.1700 1703.0000 1.0000
23.1800 1637.0000 1.0000
23.1900 1588.0000 1.0000
23.2000 1665.0000 1.0000
23.2100 1635.0000 1.0000
23.2200 1653.0000 1.0000
23.2300 1669.0000 1.0000
23.2400 1679.0000 1.0000
23.2500 1609.0000 1.0000
23.2600 1670.0000 1.0000
23.2700 1647.0000 1.0000
23.2800 1643.0000 1.0000
23.2900 1682.0000 1.0000
23.3000 1652.0000 1.0000
23.3100 1608.0000 1.0000
23.3200 1642.0000 1.0000
23.3300 1607.0000 1.0000
23.3400 1666.0000 1.0000
23.3500 1600.0000 1.0000
23.3600 1636.0000 1.0000
23.3700 1674.0000 1.0000
23.3800 1647.0000 1.0000
23.3900 1629.0000 1.0000
23.4000 1663.0000 1.0000
23.4100 1662.0000 1.0000
23.4200 1643.0000 1.0000
23.4300 1641.0000 1.0000
23.4400 1636.0000 1.0000
23.4500 1680.0000 1.0000
23.4600 1618.0000 1.0000
23.4700 1548.0000 1.0000
23.4800 1612.0000 1.0000
23.4900 1643.0000 1.0000
23.5000 1618.0000 1.0000
23.5100 1673.0000 1.0000
23.5200 1629.0000 1.0000
23.5300 1693.0000 1.0000
23.5400 1642.0000 1.0000
23.5500 1696.0000 1.0000
23.5600 1587.0000 1.0000
23.5700 1675.0000 1.0000
23.5800 1607.0000 1.0000
23.5900 1715.0000 1.0000
23.6000 1667.0000 1.0000
23.6100 1645.0000 1.0000
23.6200 1662.0000 1.0000
23.6300 1645.0000 1.0000
23.6400 1623.0000 1.0000
23.6500 1622.0000 1.0000
23.6600 1655.0000 1.0000
23.6700 1675.0000 1.0000
23.6800 1640.0000 1.0000
23.6900 1671.0000 1.0000
23.7000 1657.0000 1.0000
23.7100 1697.0000 1.0000
23.7200 1710.0000 1.0000
23.7300 1597.0000 1.0000
23.7400 1655.0000 1.0000
23.7500 1712.0000 1.0000
23.7600 1706.0000 1.0000
23.7700 1723.0000 1.0000
23.7800 1708.0000 1.0000
23.7900 1613.0000 1.0000
23.8000 1672.0000 1.0000
23.8100 1600.0000 1.0000
23.8200 1635.0000 1.0000
23.8300 1740.0000 1.0000
23.8400 1653.0000 1.0000
23.8500 1657.0000 1.0000
23.8600 1658.0000 1.0000
23.8700 1679.0000 1.0000
23.8800 1666.0000 1.0000
23.8900 1649.0000 1.0000
23.9000 1724.0000 1.0000
23.9100 1648.0000 1.0000
23.9200 1684.0000 1.0000
23.9300 1667.0000 1.0000
23.9400 1660.0000 1.0000
23.9500 1670.0000 1.0000
23.9600 1699.0000 1.0000
23.9700 1697.0000 1.0000
23.9800 1714.0000 1.0000
23.9900 1654.0000 1.0000
24.0000 1660.0000 1.0000
24.0100 1672.0000 1.0000
24.0200 1771.0000 1.0000
24.0300 1760.0000 1.0000
24.0400 1631.0000 1.0000
24.0500 1614.0000 1.0000
24.0600 1709.0000 1.0000
24.0700 1671.0000 1.0000
24.0800 1602.0000 1.0000
24.0900 1620.0000 1.0000
24.1000 1708.0000 1.0000
24.1100 1709.0000 1.0000
24.1200 1638.0000 1.0000
24.1300 1660.0000 1.0000
24.1400 1664.0000 1.0000
24.1500 1617.0000 1.0000
24.1600 1641.0000 1.0000
24.1700 1613.0000 1.0000
24.1800 1715.0000 1.0000
24.1900 1669.0000 1.0000
24.2000 1671.0000 1.0000
24.2100 1659.0000 1.0000
24.2200 1723.0000 1.0000
24.2300 1686.0000 1.0000
24.2400 1590.0000 1.0000
24.2500 1685.0000 1.0000
24.2600 1629.0000 1.0000
24.2700 1659.0000 1.0000
24.2800 1659.0000 1.0000
24.2900 1742.0000 1.0000
24.3000 1681.0000 1.0000
24.3100 1667.0000 1.0000
24.3200 1671.0000 1.0000
24.3300 1699.0000 1.0000
24.3400 1636.0000 1.0000
24.3500 1668.0000 1.0000
24.3600 1686.0000 1.0000
24.3700 1706.0000 1.0000
24.3800 1652.0000 1.0000
24.3900 1670.0000 1.0000
24.4000 1675.0000 1.0000
24.4100 1618.0000 1.0000
24.4200 1661.0000 1.0000
24.4300 1664.0000 1.0000
24.4400 1705.0000 1.0000
24.4500 1713.0000 1.0000
24.4600 1657.0000 1.0000
24.4700 1692.0000 1.0000
24.4800 1688.0000 1.0000
24.4900 1714.0000 1.0000
24.5000 1678.0000 1.0000
24.5100 1716.0000 1.0000
24.5200 1707.0000 1.0000
24.5300 1727.0000 1.0000
24.5400 1676.0000 1.0000
24.5500 1741.0000 1.0000
24.5600 1712.0000 1.0000
24.5700 1686.0000 1.0000
24.5800 1597.0000 1.0000
24.5900 1680.0000 1.0000
24.6000 1615.0000 1.0000
24.6100 1672.0000 1.0000
24.6200 1732.0000 1.0000
24.6300 1739.0000 1.0000
24.6400 1646.0000 1.0000
24.6500 1711.0000 1.0000
24.6600 1760.0000 1.0000
24.6700 1699.0000 1.0000
24.6800 1713.0000 1.0000
24.6900 1775.0000 1.0000
24.7000 1757.0000 1.0000
24.7100 1729.0000 1.0000
24.7200 1731.0000 1.0000
24.7300 1675.0000 1.0000
24.7400 1617.0000 1.0000
24.7500 1749.0000 1.0000
24.7600 1697.0000 1.0000
24.7700 1702.0000 1.0000
24.7800 1751.0000 1.0000
24.7900 1751.0000 1.0000
24.8000 1649.0000 1.0000
24.8100 1748.0000 1.0000
24.8200 1781.0000 1.0000
24.8300 1744.0000 1.0000
24.8400 1686.0000 1.0000
24.8500 1768.0000 1.0000
24.8600 1752.0000 1.0000
24.8700 1750.0000 1.0000
24.8800 1718.0000 1.0000
24.8900 1835.0000 1.0000
24.9000 1725.0000 1.0000
24.9100 1716.0000 1.0000
24.9200 1754.0000 1.0000
24.9300 1838.0000 1.0000
24.9400 1803.0000 1.0000
24.9500 1790.0000 1.0000
24.9600 1766.0000 1.0000
24.9700 1805.0000 1.0000
24.9800 1813.0000 1.0000
24.9900 1831.0000 1.0000
25.0000 1759.0000 1.0000
25.0100 1757.0000 1.0000
25.0200 1746.0000 1.0000
25.0300 1718.0000 1.0000
25.0400 1723.0000 1.0000
25.0500 1726.0000 1.0000
25.0600 1776.0000 1.0000
25.0700 1675.0000 1.0000
25.0800 1717.0000 1.0000
25.0900 1720.0000 1.0000
25.1000 1726.0000 1.0000
25.1100 1684.0000 1.0000
25.1200 1774.0000 1.0000
25.1300 1720.0000 1.0000
25.1400 1715.0000 1.0000
25.1500 1704.0000 1.0000
25.1600 1708.0000 1.0000
25.1700 1660.0000 1.0000
25.1800 1630.0000 1.0000
25.1900 1762.0000 1.0000
25.2000 1780.0000 1.0000
25.2100 1694.0000 1.0000
25.2200 1735.0000 1.0000
25.2300 1776.0000 1.0000
25.2400 1709.0000 1.0000
25.2500 1772.0000 1.0000
25.2600 1724.0000 1.0000
25.2700 1735.0000 1.0000
25.2800 1803.0000 1.0000
25.2900 1745.0000 1.0000
25.3000 1748.0000 1.0000
25.3100 1723.0000 1.0000
25.3200 1713.0000 1.0000
25.3300 1730.0000 1.0000
25.3400 1717.0000 1.0000
25.3500 1726.0000 1.0000
25.3600 1707.0000 1.0000
25.3700 1687.0000 1.0000
25.3800 1741.0000 1.0000
25.3900 1745.0000 1.0000
25.4000 1699.0000 1.0000
25.4100 1690.0000 1.0000
25.4200 1696.0000 1.0000
25.4300 1742.0000 1.0000
25.4400 1631.0000 1.0000
25.4500 1779.0000 1.0000
25.4600 1754.0000 1.0000
25.4700 1721.0000 1.0000
25.4800 1751.0000 1.0000
25.4900 1724.0000 1.0000
25.5000 1670.0000 1.0000
25.5100 1714.0000 1.0000
25.5200 1664.0000 1.0000
25.5300 1711.0000 1.0000
25.5400 1659.0000 1.0000
25.5500 1625.0000 1.0000
25.5600 1618.0000 1.0000
25.5700 1738.0000 1.0000
25.5800 1737.0000 1.0000
25.5900 1709.0000 1.0000
25.6000 1665.0000 1.0000
25.6100 1724.0000 1.0000
25.6200 1657.0000 1.0000
25.6300 1725.0000 1.0000
25.6400 1685.0000 1.0000
25.6500 1704.0000 1.0000
25.6600 1661.0000 1.0000
25.6700 1679.0000 1.0000
25.6800 1671.0000 1.0000
25.6900 1722.0000 1.0000
25.7000 1738.0000 1.0000
25.7100 1793.0000 1.0000
25.7200 1754.0000 1.0000
25.7300 1722.0000 1.0000
25.7400 1780.0000 1.0000
25.7500 1660.0000 1.0000
25.7600 1673.0000 1.0000
25.7700 1655.0000 1.0000
25.7800 1717.0000 1.0000
25.7900 1707.0000 1.0000
25.8000 1745.0000 1.0000
25.8100 1706.0000 1.0000
25.8200 1737.0000 1.0000
25.8300 1728.0000 1.0000
25.8400 1688.0000 1.0000
25.8500 1725.0000 1.0000
25.8600 1746.0000 1.0000
25.8700 1709.0000 1.0000
25.8800 1657.0000 1.0000
25.8900 1698.0000 1.0000
25.9000 1718.0000 1.0000
25.9100 1655.0000 1.0000
25.9200 1684.0000 1.0000
25.9300 1693.0000 1.0000
25.9400 1728.0000 1.0000
25.9500 1723.0000 1.0000
25.9600 1700.0000 1.0000
25.9700 1721.0000 1.0000
25.9800 1686.0000 1.0000
25.9900 1731.0000 1.0000
26.0000 1714.0000 1.0000
26.0100 1696.0000 1.0000
26.0200 1732.0000 1.0000
26.0300 1688.0000 1.0000
26.0400 1722.0000 1.0000
26.0500 1733.0000 1.0000
26.0600 1722.0000 1.0000
26.0700 1715.0000 1.0000
26.0800 1625.0000 1.0000
26.0900 1734.0000 1.0000
26.1000 1733.0000 1.0000
26.1100 1742.0000 1.0000
26.1200 1653.0000 1.0000
26.1300 1666.0000 1.0000
26.1400 1749.0000 1.0000
26.1500 1679.0000 1.0000
26.1600 1725.0000 1.0000
26.1700 1740.0000 1.0000
26.1800 1729.0000 1.0000
26.1900 1705.0000 1.0000
26.2000 1761.0000 1.0000
26.2100 1698.0000 1.0000
26.2200 1722.0000 1.0000
26.2300 1768.0000 1.0000
26.2400 1757.0000 1.0000
26.2500 1720.0000 1.0000
26.2600 1746.0000 1.0000
26.2700 1695.0000 1.0000
26.2800 1694.0000 1.0000
26.2900 1796.0000 1.0000
26.3000 1762.0000 1.0000
26.3100 1750.0000 1.0000
26.3200 1701.0000 1.0000
26.3300 1718.0000 1.0000
26.3400 1733.0000 1.0000
26.3500 1736.0000 1.0000
26.3600 1780.0000 1.0000
26.3700 1795.0000 1.0000
26.3800 1777.0000 1.0000
26.3900 1828.0000 1.0000
26.4000 1761.0000 1.0000
26.4100 1765.0000 1.0000
26.4200 1713.0000 1.0000
26.4300 1782.0000 1.0000
26.4400 1735.0000 1.0000
26.4500 1734.0000 1.0000
26.4600 1854.0000 1.0000
26.4700 1806.0000 1.0000
26.4800 1846.0000 1.0000
26.4900 1758.0000 1.0000
26.5000 1817.0000 1.0000
26.5100 1873.0000 1.0000
26.5200 1813.0000 1.0000
26.5300 1788.0000 1.0000
26.5400 1769.0000 1.0000
26.5500 1870.0000 1.0000
26.5600 1808.0000 1.0000
26.5700 1828.0000 1.0000
26.5800 1799.0000 1.0000
26.5900 1828.0000 1.0000
26.6000 1864.0000 1.0000
26.6100 1923.0000 1.0000
26.6200 1848.0000 1.0000
26.6300 1782.0000 1.0000
26.6400 1811.0000 1.0000
26.6500 1791.0000 1.0000
26.6600 1838.0000 1.0000
26.6700 1897.0000 1.0000
26.6800 1896.0000 1.0000
26.6900 1884.0000 1.0000
26.7000 1959.0000 1.0000
26.7100 1904.0000 1.0000
26.7200 1883.0000 1.0000
26.7300 1925.0000 1.0000
26.7400 1893.0000 1.0000
26.7500 1897.0000 1.0000
26.7600 1928.0000 1.0000
26.7700 1888.0000 1.0000
26.7800 1900.0000 1.0000
26.7900 1914.0000 1.0000
26.8000 1893.0000 1.0000
26.8100 1874.0000 1.0000
26.8200 1877.0000 1.0000
26.8300 1806.0000 1.0000
26.8400 1955.0000 1.0000
26.8500 1840.0000 1.0000
26.8600 2002.0000 1.0000
26.8700 1964.0000 1.0000
26.8800 2038.0000 1.0000
26.8900 1953.0000 1.0000
26.9000 2092.0000 1.0000
26.9100 2061.0000 1.0000
26.9200 2061.0000 1.0000
26.9300 2125.0000 1.0000
26.9400 2176.0000 1.0000
26.9500 2197.0000 1.0000
26.9600 2183.0000 1.0000
26.9700 2187.0000 1.0000
26.9800 2237.0000 1.0000
26.9900 2396.0000 1.0000
27.0000 2352.0000 1.0000
27.0100 2329.0000 1.0000
27.0200 2479.0000 1.0000
27.0300 2515.0000 1.0000
27.0400 2530.0000 1.0000
27.0500 2631.0000 1.0000
27.0600 2705.0000 1.0000
27.0700 2835.0000 1.0000
27.0800 2967.0000 1.0000
27.0900 3063.0000 1.0000
27.1000 3074.0000 1.0000
27.1100 3297.0000 1.0000
27.1200 3426.0000 1.0000
27.1300 3524.0000 1.0000
27.1400 3733.0000 1.0000
27.1500 3841.0000 1.0000
27.1600 4028.0000 1.0000
27.1700 4202.0000 1.0000
27.1800 4422.0000 1.0000
27.1900 4716.0000 1.0000
27.2000 5048.0000 1.0000
27.2100 5309.0000 1.0000
27.2200 5728.0000 1.0000
27.2300 5975.0000 1.0000
27.2400 6090.0000 1.0000
27.2500 6411.0000 1.0000
27.2600 6589.0000 1.0000
27.2700 6786.0000 1.0000
27.2800 6910.0000 1.0000
27.2900 6924.0000 1.0000
27.3000 6582.0000 1.0000
27.3100 6504.0000 1.0000
27.3200 6443.0000 1.0000
27.3300 6312.0000 1.0000
27.3400 6023.0000 1.0000
27.3500 5774.0000 1.0000
27.3600 5477.0000 1.0000
27.3700 5313.0000 1.0000
27.3800 5134.0000 1.0000
27.3900 4790.0000 1.0000
27.4000 4589.0000 1.0000
27.4100 4366.0000 1.0000
27.4200 4119.0000 1.0000
27.4300 3860.0000 1.0000
27.4400 3736.0000 1.0000
27.4500 3518.0000 1.0000
27.4600 3314.0000 1.0000
27.4700 3292.0000 1.0000
27.4800 3192.0000 1.0000
27.4900 3067.0000 1.0000
27.5000 2996.0000 1.0000
27.5100 2821.0000 1.0000
27.5200 2744.0000 1.0000
27.5300 2633.0000 1.0000
27.5400 2581.0000 1.0000
27.5500 2448.0000 1.0000
27.5600 2486.0000 1.0000
27.5700 2431.0000 1.0000
27.5800 2376.0000 1.0000
27.5900 2328.0000 1.0000
27.6000 2254.0000 1.0000
27.6100 2245.0000 1.0000
27.6200 2233.0000 1.0000
27.6300 2163.0000 1.0000
27.6400 2086.0000 1.0000
27.6500 2122.0000 1.0000
27.6600 2135.0000 1.0000
27.6700 2130.0000 1.0000
27.6800 2121.0000 1.0000
27.6900 2112.0000 1.0000
27.7000 2004.0000 1.0000
27.7100 2030.0000 1.0000
27.7200 1945.0000 1.0000
27.7300 2006.0000 1.0000
27.7400 1959.0000 1.0000
27.7500 1952.0000 1.0000
27.7600 1933.0000 1.0000
27.7700 1967.0000 1.0000
27.7800 1949.0000 1.0000
27.7900 2023.0000 1.0000
27.8000 1967.0000 1.0000
27.8100 1898.0000 1.0000
27.8200 1828.0000 1.0000
27.8300 1878.0000 1.0000
27.8400 1885.0000 1.0000
27.8500 1878.0000 1.0000
27.8600 1899.0000 1.0000
27.8700 1880.0000 1.0000
27.8800 1878.0000 1.0000
27.8900 1795.0000 1.0000
27.9000 1843.0000 1.0000
27.9100 1868.0000 1.0000
27.9200 1858.0000 1.0000
27.9300 1865.0000 1.0000
27.9400 1897.0000 1.0000
27.9500 1807.0000 1.0000
27.9600 1745.0000 1.0000
27.9700 1812.0000 1.0000
27.9800 1781.0000 1.0000
27.9900 1736.0000 1.0000
28.0000 1810.0000 1.0000
28.0100 1831.0000 1.0000
28.0200 1837.0000 1.0000
28.0300 1795.0000 1.0000
28.0400 1710.0000 1.0000
28.0500 1676.0000 1.0000
28.0600 1766.0000 1.0000
28.0700 1735.0000 1.0000
28.0800 1751.0000 1.0000
28.0900 1784.0000 1.0000
28.1000 1797.0000 1.0000
28.1100 1852.0000 1.0000
28.1200 1773.0000 1.0000
28.1300 1734.0000 1.0000
28.1400 1691.0000 1.0000
28.1500 1676.0000 1.0000
28.1600 1766.0000 1.0000
28.1700 1687.0000 1.0000
28.1800 1688.0000 1.0000
28.1900 1760.0000 1.0000
28.2000 1756.0000 1.0000
28.2100 1651.0000 1.0000
28.2200 1685.0000 1.0000
28.2300 1726.0000 1.0000
28.2400 1769.0000 1.0000
28.2500 1728.0000 1.0000
28.2600 1712.0000 1.0000
28.2700 1728.0000 1.0000
28.2800 1715.0000 1.0000
28.2900 1740.0000 1.0000
28.3000 1720.0000 1.0000
28.3100 1710.0000 1.0000
28.3200 1731.0000 1.0000
28.3300 1758.0000 1.0000
28.3400 1775.0000 1.0000
28.3500 1718.0000 1.0000
28.3600 1695.0000 1.0000
28.3700 1769.0000 1.0000
28.3800 1706.0000 1.0000
28.3900 1767.0000 1.0000
28.4000 1701.0000 1.0000
28.4100 1695.0000 1.0000
28.4200 1710.0000 1.0000
28.4300 1670.0000 1.0000
28.4400 1695.0000 1.0000
28.4500 1694.0000 1.0000
28.4600 1726.0000 1.0000
28.4700 1747.0000 1.0000
28.4800 1711.0000 1.0000
28.4900 1689.0000 1.0000
28.5000 1703.0000 1.0000
28.5100 1689.0000 1.0000
28.5200 1648.0000 1.0000
28.5300 1646.0000 1.0000
28.5400 1715.0000 1.0000
28.5500 1714.0000 1.0000
28.5600 1744.0000 1.0000
28.5700 1708.0000 1.0000
28.5800 1674.0000 1.0000
28.5900 1656.0000 1.0000
28.6000 1637.0000 1.0000
28.6100 1701.0000 1.0000
28.6200 1704.0000 1.0000
28.6300 1675.0000 1.0000
28.6400 1721.0000 1.0000
28.6500 1695.0000 1.0000
28.6600 1686.0000 1.0000
28.6700 1623.0000 1.0000
28.6800 1682.0000 1.0000
28.6900 1709.0000 1.0000
28.7000 1758.0000 1.0000
28.7100 1677.0000 1.0000
28.7200 1701.0000 1.0000
28.7300 1686.0000 1.0000
28.7400 1657.0000 1.0000
28.7500 1733.0000 1.0000
28.7600 1707.0000 1.0000
28.7700 1672.0000 1.0000
28.7800 1684.0000 1.0000
28.7900 1652.0000 1.0000
28.8000 1584.0000 1.0000
28.8100 1653.0000 1.0000
28.8200 1718.0000 1.0000
28.8300 1641.0000 1.0000
28.8400 1682.0000 1.0000
28.8500 1689.0000 1.0000
28.8600 1643.0000 1.0000
28.8700 1708.0000 1.0000
28.8800 1704.0000 1.0000
28.8900 1598.0000 1.0000
28.9000 1721.0000 1.0000
28.9100 1674.0000 1.0000
28.9200 1673.0000 1.0000
28.9300 1754.0000 1.0000
28.9400 1683.0000 1.0000
28.9500 1779.0000 1.0000
28.9600 1665.0000 1.0000
28.9700 1655.0000 1.0000
28.9800 1625.0000 1.0000
28.9900 1597.0000 1.0000
29.0000 1611.0000 1.0000
29.0100 1681.0000 1.0000
29.0200 1606.0000 1.0000
29.0300 1672.0000 1.0000
29.0400 1608.0000 1.0000
29.0500 1717.0000 1.0000
29.0600 1725.0000 1.0000
29.0700 1665.0000 1.0000
29.0800 1558.0000 1.0000
29.0900 1674.0000 1.0000
29.1000 1694.0000 1.0000
29.1100 1632.0000 1.0000
29.1200 1639.0000 1.0000
29.1300 1580.0000 1.0000
29.1400 1648.0000 1.0000
29.1500 1657.0000 1.0000
29.1600 1612.0000 1.0000
29.1700 1587.0000 1.0000
29.1800 1627.0000 1.0000
29.1900 1650.0000 1.0000
29.2000 1587.0000 1.0000
29.2100 1627.0000 1.0000
29.2200 1692.0000 1.0000
29.2300 1669.0000 1.0000
29.2400 1675.0000 1.0000
29.2500 1678.0000 1.0000
29.2600 1587.0000 1.0000
29.2700 1648.0000 1.0000
29.2800 1627.0000 1.0000
29.2900 1664.0000 1.0000
29.3000 1645.0000 1.0000
29.3100 1631.0000 1.0000
29.3200 1661.0000 1.0000
29.3300 1633.0000 1.0000
29.3400 1683.0000 1.0000
29.3500 1672.0000 1.0000
29.3600 1660.0000 1.0000
29.3700 1695.0000 1.0000
29.3800 1662.0000 1.0000
29.3900 1661.0000 1.0000
29.4000 1704.0000 1.0000
29.4100 1685.0000 1.0000
29.4200 1676.0000 1.0000
29.4300 1634.0000 1.0000
29.4400 1529.0000 1.0000
29.4500 1617.0000 1.0000
29.4600 1618.0000 1.0000
29.4700 1612.0000 1.0000
29.4800 1612.0000 1.0000
29.4900 1606.0000 1.0000
29.5000 1665.0000 1.0000
29.5100 1649.0000 1.0000
29.5200 1620.0000 1.0000
29.5300 1604.0000 1.0000
29.5400 1621.0000 1.0000
29.5500 1677.0000 1.0000
29.5600 1650.0000 1.0000
29.5700 1665.0000 1.0000
29.5800 1658.0000 1.0000
29.5900 1593.0000 1.0000
29.6000 1644.0000 1.0000
29.6100 1690.0000 1.0000
29.6200 1583.0000 1.0000
29.6300 1658.0000 1.0000
29.6400 1611.0000 1.0000
29.6500 1595.0000 1.0000
29.6600 1592.0000 1.0000
29.6700 1624.0000 1.0000
29.6800 1582.0000 1.0000
29.6900 1669.0000 1.0000
29.7000 1648.0000 1.0000
29.7100 1583.0000 1.0000
29.7200 1625.0000 1.0000
29.7300 1634.0000 1.0000
29.7400 1632.0000 1.0000
29.7500 1644.0000 1.0000
29.7600 1687.0000 1.0000
29.7700 1653.0000 1.0000
29.7800 1610.0000 1.0000
29.7900 1595.0000 1.0000
29.8000 1587.0000 1.0000
29.8100 1560.0000 1.0000
29.8200 1595.0000 1.0000
29.8300 1671.0000 1.0000
29.8400 1590.0000 1.0000
29.8500 1581.0000 1.0000
29.8600 1664.0000 1.0000
29.8700 1619.0000 1.0000
29.8800 1652.0000 1.0000
29.8900 1636.0000 1.0000
29.9000 1572.0000 1.0000
29.9100 1600.0000 1.0000
29.9200 1525.0000 1.0000
29.9300 1635.0000 1.0000
29.9400 1655.0000 1.0000
29.9500 1534.0000 1.0000
29.9600 1585.0000 1.0000
29.9700 1600.0000 1.0000
29.9800 1609.0000 1.0000
29.9900 1641.0000 1.0000
30.0000 1608.0000 1.0000
30.0100 1631.0000 1.0000
30.0200 1596.0000 1.0000
30.0300 1628.0000 1.0000
30.0400 1629.0000 1.0000
30.0500 1593.0000 1.0000
30.0600 1547.0000 1.0000
30.0700 1579.0000 1.0000
30.0800 1627.0000 1.0000
30.0900 1643.0000 1.0000
30.1000 1641.0000 1.0000
30.1100 1561.0000 1.0000
30.1200 1556.0000 1.0000
30.1300 1625.0000 1.0000
30.1400 1612.0000 1.0000
30.1500 1568.0000 1.0000
30.1600 1550.0000 1.0000
30.1700 1648.0000 1.0000
30.1800 1614.0000 1.0000
30.1900 1644.0000 1.0000
30.2000 1576.0000 1.0000
30.2100 1610.0000 1.0000
30.2200 1562.0000 1.0000
30.2300 1579.0000 1.0000
30.2400 1584.0000 1.0000
30.2500 1583.0000 1.0000
30.2600 1581.0000 1.0000
30.2700 1588.0000 1.0000
30.2800 1645.0000 1.0000
30.2900 1606.0000 1.0000
30.3000 1594.0000 1.0000
30.3100 1558.0000 1.0000
30.3200 1578.0000 1.0000
30.3300 1492.0000 1.0000
30.3400 1574.0000 1.0000
30.3500 1647.0000 1.0000
30.3600 1631.0000 1.0000
30.3700 1604.0000 1.0000
30.3800 1550.0000 1.0000
30.3900 1583.0000 1.0000
30.4000 1567.0000 1.0000
30.4100 1578.0000 1.0000
30.4200 1603.0000 1.0000
30.4300 1640.0000 1.0000
30.4400 1543.0000 1.0000
30.4500 1630.0000 1.0000
30.4600 1588.0000 1.0000
30.4700 1563.0000 1.0000
30.4800 1583.0000 1.0000
30.4900 1601.0000 1.0000
30.5000 1601.0000 1.0000
30.5100 1570.0000 1.0000
30.5200 1553.0000 1.0000
30.5300 1636.0000 1.0000
30.5400 1551.0000 1.0000
30.5500 1546.0000 1.0000
30.5600 1558.0000 1.0000
30.5700 1595.0000 1.0000
30.5800 1550.0000 1.0000
30.5900 1542.0000 1.0000
30.6000 1537.0000 1.0000
30.6100 1535.0000 1.0000
30.6200 1585.0000 1.0000
30.6300 1592.0000 1.0000
30.6400 1594.0000 1.0000
30.6500 1572.0000 1.0000
30.6600 1567.0000 1.0000
30.6700 1583.0000 1.0000
30.6800 1574.0000 1.0000
30.6900 1514.0000 1.0000
30.7000 1615.0000 1.0000
30.7100 1563.0000 1.0000
30.7200 1522.0000 1.0000
30.7300 1562.0000 1.0000
30.7400 1532.0000 1.0000
30.7500 1566.0000 1.0000
30.7600 1542.0000 1.0000
30.7700 1531.0000 1.0000
30.7800 1561.0000 1.0000
30.7900 1504.0000 1.0000
30.8000 1624.0000 1.0000
30.8100 1528.0000 1.0000
30.8200 1613.0000 1.0000
30.8300 1593.0000 1.0000
30.8400 1582.0000 1.0000
30.8500 1511.0000 1.0000
30.8600 1509.0000 1.0000
30.8700 1539.0000 1.0000
30.8800 1566.0000 1.0000
30.8900 1539.0000 1.0000
30.9000 1522.0000 1.0000
30.9100 1609.0000 1.0000
30.9200 1594.0000 1.0000
30.9300 1609.0000 1.0000
30.9400 1593.0000 1.0000
30.9500 1558.0000 1.0000
30.9600 1587.0000 1.0000
30.9700 1568.0000 1.0000
30.9800 1524.0000 1.0000
30.9900 1506.0000 1.0000
31.0000 1596.0000 1.0000
31.0100 1563.0000 1.0000
31.0200 1562.0000 1.0000
31.0300 1542.0000 1.0000
31.0400 1564.0000 1.0000
31.0500 1524.0000 1.0000
31.0600 1596.0000 1.0000
31.0700 1581.0000 1.0000
31.0800 1579.0000 1.0000
31.0900 1564.0000 1.0000
31.1000 1590.0000 1.0000
31.1100 1565.0000 1.0000
31.1200 1526.0000 1.0000
31.1300 1515.0000 1.0000
31.1400 1549.0000 1.0000
31.1500 1471.0000 1.0000
31.1600 1535.0000 1.0000
31.1700 1574.0000 1.0000
31.1800 1577.0000 1.0000
31.1900 1593.0000 1.0000
31.2000 1552.0000 1.0000
31.2100 1551.0000 1.0000
31.2200 1508.0000 1.0000
31.2300 1545.0000 1.0000
31.2400 1534.0000 1.0000
31.2500 1528.0000 1.0000
31.2600 1599.0000 1.0000
31.2700 1513.0000 1.0000
31.2800 1498.0000 1.0000
31.2900 1534.0000 1.0000
31.3000 1559.0000 1.0000
31.3100 1524.0000 1.0000
31.3200 1493.0000 1.0000
31.3300 1530.0000 1.0000
31.3400 1518.0000 1.0000
31.3500 1523.0000 1.0000
31.3600 1623.0000 1.0000
31.3700 1602.0000 1.0000
31.3800 1497.0000 1.0000
31.3900 1480.0000 1.0000
31.4000 1470.0000 1.0000
31.4100 1475.0000 1.0000
31.4200 1488.0000 1.0000
31.4300 1509.0000 1.0000
31.4400 1555.0000 1.0000
31.4500 1464.0000 1.0000
31.4600 1531.0000 1.0000
31.4700 1534.0000 1.0000
31.4800 1512.0000 1.0000
31.4900 1495.0000 1.0000
31.5000 1508.0000 1.0000
31.5100 1519.0000 1.0000
31.5200 1480.0000 1.0000
31.5300 1488.0000 1.0000
31.5400 1559.0000 1.0000
31.5500 1531.0000 1.0000
31.5600 1542.0000 1.0000
31.5700 1508.0000 1.0000
31.5800 1547.0000 1.0000
31.5900 1551.0000 1.0000
31.6000 1570.0000 1.0000
31.6100 1564.0000 1.0000
31.6200 1469.0000 1.0000
31.6300 1502.0000 1.0000
31.6400 1491.0000 1.0000
31.6500 1504.0000 1.0000
31.6600 1554.0000 1.0000
31.6700 1488.0000 1.0000
31.6800 1506.0000 1.0000
31.6900 1468.0000 1.0000
31.7000 1481.0000 1.0000
31.7100 1534.0000 1.0000
31.7200 1547.0000 1.0000
31.7300 1483.0000 1.0000
31.7400 1528.0000 1.0000
31.7500 1513.0000 1.0000
31.7600 1558.0000 1.0000
31.7700 1586.0000 1.0000
31.7800 1495.0000 1.0000
31.7900 1494.0000 1.0000
31.8000 1473.0000 1.0000
31.8100 1490.0000 1.0000
31.8200 1499.0000 1.0000
31.8300 1507.0000 1.0000
31.8400 1518.0000 1.0000
31.8500 1548.0000 1.0000
31.8600 1516.0000 1.0000
31.8700 1518.0000 1.0000
31.8800 1533.0000 1.0000
31.8900 1563.0000 1.0000
31.9000 1552.0000 1.0000
31.9100 1564.0000 1.0000
31.9200 1543.0000 1.0000
31.9300 1493.0000 1.0000
31.9400 1521.0000 1.0000
31.9500 1555.0000 1.0000
31.9600 1604.0000 1.0000
31.9700 1580.0000 1.0000
31.9800 1569.0000 1.0000
31.9900 1555.0000 1.0000
32.0000 1606.0000 1.0000
32.0100 1594.0000 1.0000
32.0200 1529.0000 1.0000
32.0300 1586.0000 1.0000
32.0400 1611.0000 1.0000
32.0500 1580.0000 1.0000
32.0600 1545.0000 1.0000
32.0700 1498.0000 1.0000
32.0800 1563.0000 1.0000
32.0900 1568.0000 1.0000
32.1000 1529.0000 1.0000
32.1100 1556.0000 1.0000
32.1200 1548.0000 1.0000
32.1300 1540.0000 1.0000
32.1400 1496.0000 1.0000
32.1500 1534.0000 1.0000
32.1600 1513.0000 1.0000
32.1700 1499.0000 1.0000
32.1800 1503.0000 1.0000
32.1900 1484.0000 1.0000
32.2000 1492.0000 1.0000
32.2100 1568.0000 1.0000
32.2200 1520.0000 1.0000
32.2300 1472.0000 1.0000
32.2400 1505.0000 1.0000
32.2500 1500.0000 1.0000
32.2600 1538.0000 1.0000
32.2700 1508.0000 1.0000
32.2800 1528.0000 1.0000
32.2900 1468.0000 1.0000
32.3000 1493.0000 1.0000
32.3100 1501.0000 1.0000
32.3200 1501.0000 1.0000
32.3300 1510.0000 1.0000
32.3400 1498.0000 1.0000
32.3500 1479.0000 1.0000
32.3600 1529.0000 1.0000
32.3700 1522.0000 1.0000
32.3800 1507.0000 1.0000
32.3900 1491.0000 1.0000
32.4000 1450.0000 1.0000
32.4100 1509.0000 1.0000
32.4200 1429.0000 1.0000
32.4300 1420.0000 1.0000
32.4400 1458.0000 1.0000
32.4500 1473.0000 1.0000
32.4600 1440.0000 1.0000
32.4700 1508.0000 1.0000
32.4800 1506.0000 1.0000
32.4900 1457.0000 1.0000
32.5000 1506.0000 1.0000
32.5100 1506.0000 1.0000
32.5200 1454.0000 1.0000
32.5300 1514.0000 1.0000
32.5400 1479.0000 1.0000
32.5500 1448.0000 1.0000
32.5600 1416.0000 1.0000
32.5700 1420.0000 1.0000
32.5800 1431.0000 1.0000
32.5900 1469.0000 1.0000
32.6000 1483.0000 1.0000
32.6100 1484.0000 1.0000
32.6200 1468.0000 1.0000
32.6300 1491.0000 1.0000
32.6400 1445.0000 1.0000
32.6500 1468.0000 1.0000
32.6600 1480.0000 1.0000
32.6700 1493.0000 1.0000
32.6800 1504.0000 1.0000
32.6900 1457.0000 1.0000
32.7000 1393.0000 1.0000
32.7100 1386.0000 1.0000
32.7200 1423.0000 1.0000
32.7300 1459.0000 1.0000
32.7400 1452.0000 1.0000
32.7500 1408.0000 1.0000
32.7600 1476.0000 1.0000
32.7700 1439.0000 1.0000
32.7800 1468.0000 1.0000
32.7900 1480.0000 1.0000
32.8000 1425.0000 1.0000
32.8100 1471.0000 1.0000
32.8200 1455.0000 1.0000
32.8300 1428.0000 1.0000
32.8400 1486.0000 1.0000
32.8500 1513.0000 1.0000
32.8600 1492.0000 1.0000
32.8700 1465.0000 1.0000
32.8800 1464.0000 1.0000
32.8900 1467.0000 1.0000
32.9000 1442.0000 1.0000
32.9100 1447.0000 1.0000
32.9200 1432.0000 1.0000
32.9300 1482.0000 1.0000
32.9400 1489.0000 1.0000
32.9500 1380.0000 1.0000
32.9600 1489.0000 1.0000
32.9700 1488.0000 1.0000
32.9800 1417.0000 1.0000
32.9900 1453.0000 1.0000
33.0000 1462.0000 1.0000
33.0100 1464.0000 1.0000
33.0200 1436.0000 1.0000
33.0300 1396.0000 1.0000
33.0400 1397.0000 1.0000
33.0500 1460.0000 1.0000
33.0600 1404.0000 1.0000
33.0700 1351.0000 1.0000
33.0800 1463.0000 1.0000
33.0900 1432.0000 1.0000
33.1000 1443.0000 1.0000
33.1100 1378.0000 1.0000
33.1200 1418.0000 1.0000
33.1300 1418.0000 1.0000
33.1400 1489.0000 1.0000
33.1500 1430.0000 1.0000
33.1600 1443.0000 1.0000
33.1700 1434.0000 1.0000
33.1800 1432.0000 1.0000
33.1900 1430.0000 1.0000
33.2000 1387.0000 1.0000
33.2100 1418.0000 1.0000
33.2200 1431.0000 1.0000
33.2300 1488.0000 1.0000
33.2400 1479.0000 1.0000
33.2500 1399.0000 1.0000
33.2600 1435.0000 1.0000
33.2700 1413.0000 1.0000
33.2800 1437.0000 1.0000
33.2900 1423.0000 1.0000
33.3000 1451.0000 1.0000
33.3100 1387.0000 1.0000
33.3200 1426.0000 1.0000
33.3300 1447.0000 1.0000
33.3400 1433.0000 1.0000
33.3500 1449.0000 1.0000
33.3600 1450.0000 1.0000
33.3700 1404.0000 1.0000
33.3800 1399.0000 1.0000
33.3900 1422.0000 1.0000
33.4000 1436.0000 1.0000
33.4100 1437.0000 1.0000
33.4200 1379.0000 1.0000
33.4300 1411.0000 1.0000
33.4400 1430.0000 1.0000
33.4500 1396.0000 1.0000
33.4600 1429.0000 1.0000
33.4700 1501.0000 1.0000
33.4800 1409.0000 1.0000
33.4900 1441.0000 1.0000
33.5000 1419.0000 1.0000
33.5100 1434.0000 1.0000
33.5200 1389.0000 1.0000
33.5300 1458.0000 1.0000
33.5400 1481.0000 1.0000
33.5500 1418.0000 1.0000
33.5600 1480.0000 1.0000
33.5700 1425.0000 1.0000
33.5800 1471.0000 1.0000
33.5900 1483.0000 1.0000
33.6000 1413.0000 1.0000
33.6100 1399.0000 1.0000
33.6200 1472.0000 1.0000
33.6300 1452.0000 1.0000
33.6400 1433.0000 1.0000
33.6500 1462.0000 1.0000
33.6600 1447.0000 1.0000
33.6700 1453.0000 1.0000
33.6800 1479.0000 1.0000
33.6900 1409.0000 1.0000
33.7000 1458.0000 1.0000
33.7100 1502.0000 1.0000
33.7200 1507.0000 1.0000
33.7300 1519.0000 1.0000
33.7400 1504.0000 1.0000
33.7500 1511.0000 1.0000
33.7600 1445.0000 1.0000
33.7700 1537.0000 1.0000
33.7800 1535.0000 1.0000
33.7900 1586.0000 1.0000
33.8000 1560.0000 1.0000
33.8100 1557.0000 1.0000
33.8200 1538.0000 1.0000
33.8300 1505.0000 1.0000
33.8400 1503.0000 1.0000
33.8500 1633.0000 1.0000
33.8600 1671.0000 1.0000
33.8700 1598.0000 1.0000
33.8800 1727.0000 1.0000
33.8900 1715.0000 1.0000
33.9000 1746.0000 1.0000
33.9100 1717.0000 1.0000
33.9200 1683.0000 1.0000
33.9300 1735.0000 1.0000
33.9400 1718.0000 1.0000
33.9500 1706.0000 1.0000
33.9600 1704.0000 1.0000
33.9700 1717.0000 1.0000
33.9800 1732.0000 1.0000
33.9900 1612.0000 1.0000
34.0000 1670.0000 1.0000
34.0100 1639.0000 1.0000
34.0200 1651.0000 1.0000
34.0300 1699.0000 1.0000
34.0400 1615.0000 1.0000
34.0500 1630.0000 1.0000
34.0600 1688.0000 1.0000
34.0700 1614.0000 1.0000
34.0800 1640.0000 1.0000
34.0900 1568.0000 1.0000
34.1000 1518.0000 1.0000
34.1100 1595.0000 1.0000
34.1200 1591.0000 1.0000
34.1300 1707.0000 1.0000
34.1400 1676.0000 1.0000
34.1500 1675.0000 1.0000
34.1600 1644.0000 1.0000
34.1700 1600.0000 1.0000
34.1800 1679.0000 1.0000
34.1900 1715.0000 1.0000
34.2000 1711.0000 1.0000
34.2100 1693.0000 1.0000
34.2200 1765.0000 1.0000
34.2300 1828.0000 1.0000
34.2400 1813.0000 1.0000
34.2500 1778.0000 1.0000
34.2600 1921.0000 1.0000
34.2700 1969.0000 1.0000
34.2800 1924.0000 1.0000
34.2900 1978.0000 1.0000
34.3000 2071.0000 1.0000
34.3100 2184.0000 1.0000
34.3200 2179.0000 1.0000
34.3300 2366.0000 1.0000
34.3400 2328.0000 1.0000
34.3500 2486.0000 1.0000
34.3600 2618.0000 1.0000
34.3700 2691.0000 1.0000
34.3800 2694.0000 1.0000
34.3900 2920.0000 1.0000
34.4000 3094.0000 1.0000
34.4100 3173.0000 1.0000
34.4200 3295.0000 1.0000
34.4300 3420.0000 1.0000
34.4400 3445.0000 1.0000
34.4500 3519.0000 1.0000
34.4600 3476.0000 1.0000
34.4700 3640.0000 1.0000
34.4800 3622.0000 1.0000
34.4900 3613.0000 1.0000
34.5000 3546.0000 1.0000
34.5100 3618.0000 1.0000
34.5200 3499.0000 1.0000
34.5300 3412.0000 1.0000
34.5400 3308.0000 1.0000
34.5500 3176.0000 1.0000
34.5600 3143.0000 1.0000
34.5700 3063.0000 1.0000
34.5800 2863.0000 1.0000
34.5900 2808.0000 1.0000
34.6000 2718.0000 1.0000
34.6100 2594.0000 1.0000
34.6200 2468.0000 1.0000
34.6300 2421.0000 1.0000
34.6400 2322.0000 1.0000
34.6500 2265.0000 1.0000
34.6600 2171.0000 1.0000
34.6700 2113.0000 1.0000
34.6800 2058.0000 1.0000
34.6900 1937.0000 1.0000
34.7000 1919.0000 1.0000
34.7100 1875.0000 1.0000
34.7200 1915.0000 1.0000
34.7300 1769.0000 1.0000
34.7400 1701.0000 1.0000
34.7500 1800.0000 1.0000
34.7600 1713.0000 1.0000
34.7700 1717.0000 1.0000
34.7800 1633.0000 1.0000
34.7900 1600.0000 1.0000
34.8000 1684.0000 1.0000
34.8100 1607.0000 1.0000
34.8200 1611.0000 1.0000
34.8300 1567.0000 1.0000
34.8400 1621.0000 1.0000
34.8500 1573.0000 1.0000
34.8600 1530.0000 1.0000
34.8700 1515.0000 1.0000
34.8800 1455.0000 1.0000
34.8900 1497.0000 1.0000
34.9000 1458.0000 1.0000
34.9100 1455.0000 1.0000
34.9200 1444.0000 1.0000
34.9300 1500.0000 1.0000
34.9400 1401.0000 1.0000
34.9500 1454.0000 1.0000
34.9600 1421.0000 1.0000
34.9700 1413.0000 1.0000
34.9800 1392.0000 1.0000
34.9900 1414.0000 1.0000
35.0000 1401.0000 1.0000
35.0100 1409.0000 1.0000
35.0200 1431.0000 1.0000
35.0300 1418.0000 1.0000
35.0400 1356.0000 1.0000
35.0500 1371.0000 1.0000
35.0600 1356.0000 1.0000
35.0700 1387.0000 1.0000
35.0800 1381.0000 1.0000
35.0900 1341.0000 1.0000
35.1000 1309.0000 1.0000
35.1100 1346.0000 1.0000
35.1200 1366.0000 1.0000
35.1300 1403.0000 1.0000
35.1400 1375.0000 1.0000
35.1500 1363.0000 1.0000
35.1600 1316.0000 1.0000
35.1700 1283.0000 1.0000
35.1800 1354.0000 1.0000
35.1900 1291.0000 1.0000
35.2000 1276.0000 1.0000
35.2100 1362.0000 1.0000
35.2200 1350.0000 1.0000
35.2300 1363.0000 1.0000
35.2400 1322.0000 1.0000
35.2500 1261.0000 1.0000
35.2600 1338.0000 1.0000
35.2700 1328.0000 1.0000
35.2800 1334.0000 1.0000
35.2900 1283.0000 1.0000
35.3000 1233.0000 1.0000
35.3100 1267.0000 1.0000
35.3200 1281.0000 1.0000
35.3300 1262.0000 1.0000
35.3400 1264.0000 1.0000
35.3500 1296.0000 1.0000
35.3600 1298.0000 1.0000
35.3700 1318.0000 1.0000
35.3800 1296.0000 1.0000
35.3900 1303.0000 1.0000
35.4000 1278.0000 1.0000
35.4100 1280.0000 1.0000
35.4200 1256.0000 1.0000
35.4300 1257.0000 1.0000
35.4400 1281.0000 1.0000
35.4500 1277.0000 1.0000
35.4600 1291.0000 1.0000
35.4700 1272.0000 1.0000
35.4800 1270.0000 1.0000
35.4900 1263.0000 1.0000
35.5000 1301.0000 1.0000
35.5100 1268.0000 1.0000
35.5200 1227.0000 1.0000
35.5300 1231.0000 1.0000
35.5400 1200.0000 1.0000
35.5500 1269.0000 1.0000
35.5600 1303.0000 1.0000
35.5700 1240.0000 1.0000
35.5800 1239.0000 1.0000
35.5900 1279.0000 1.0000
35.6000 1237.0000 1.0000
35.6100 1267.0000 1.0000
35.6200 1253.0000 1.0000
35.6300 1244.0000 1.0000
35.6400 1251.0000 1.0000
35.6500 1236.0000 1.0000
35.6600 1274.0000 1.0000
35.6700 1198.0000 1.0000
35.6800 1323.0000 1.0000
35.6900 1281.0000 1.0000
35.7000 1184.0000 1.0000
35.7100 1196.0000 1.0000
35.7200 1296.0000 1.0000
35.7300 1187.0000 1.0000
35.7400 1219.0000 1.0000
35.7500 1227.0000 1.0000
35.7600 1170.0000 1.0000
35.7700 1277.0000 1.0000
35.7800 1236.0000 1.0000
35.7900 1266.0000 1.0000
35.8000 1244.0000 1.0000
35.8100 1238.0000 1.0000
35.8200 1202.0000 1.0000
35.8300 1288.0000 1.0000
35.8400 1230.0000 1.0000
35.8500 1279.0000 1.0000
35.8600 1280.0000 1.0000
35.8700 1242.0000 1.0000
35.8800 1228.0000 1.0000
35.8900 1262.0000 1.0000
35.9000 1164.0000 1.0000
35.9100 1225.0000 1.0000
35.9200 1229.0000 1.0000
35.9300 1220.0000 1.0000
35.9400 1225.0000 1.0000
35.9500 1216.0000 1.0000
35.9600 1274.0000 1.0000
35.9700 1236.0000 1.0000
35.9800 1265.0000 1.0000
35.9900 1256.0000 1.0000
36.0000 1252.0000 1.0000
36.0100 1226.0000 1.0000
36.0200 1216.0000 1.0000
36.0300 1253.0000 1.0000
36.0400 1214.0000 1.0000
36.0500 1241.0000 1.0000
36.0600 1230.0000 1.0000
36.0700 1230.0000 1.0000
36.0800 1214.0000 1.0000
36.0900 1194.0000 1.0000
36.1000 1228.0000 1.0000
36.1100 1255.0000 1.0000
36.1200 1352.0000 1.0000
36.1300 1308.0000 1.0000
36.1400 1307.0000 1.0000
36.1500 1324.0000 1.0000
36.1600 1324.0000 1.0000
36.1700 1365.0000 1.0000
36.1800 1339.0000 1.0000
36.1900 1426.0000 1.0000
36.2000 1349.0000 1.0000
36.2100 1351.0000 1.0000
36.2200 1381.0000 1.0000
36.2300 1413.0000 1.0000
36.2400 1458.0000 1.0000
36.2500 1470.0000 1.0000
36.2600 1466.0000 1.0000
36.2700 1535.0000 1.0000
36.2800 1639.0000 1.0000
36.2900 1724.0000 1.0000
36.3000 1689.0000 1.0000
36.3100 1809.0000 1.0000
36.3200 1918.0000 1.0000
36.3300 1967.0000 1.0000
36.3400 2028.0000 1.0000
36.3500 2114.0000 1.0000
36.3600 2137.0000 1.0000
36.3700 2225.0000 1.0000
36.3800 2239.0000 1.0000
36.3900 2298.0000 1.0000
36.4000 2292.0000 1.0000
36.4100 2307.0000 1.0000
36.4200 2295.0000 1.0000
36.4300 2171.0000 1.0000
36.4400 2104.0000 1.0000
36.4500 2100.0000 1.0000
36.4600 1915.0000 1.0000
36.4700 1946.0000 1.0000
36.4800 1836.0000 1.0000
36.4900 1814.0000 1.0000
36.5000 1760.0000 1.0000
36.5100 1665.0000 1.0000
36.5200 1641.0000 1.0000
36.5300 1546.0000 1.0000
36.5400 1510.0000 1.0000
36.5500 1487.0000 1.0000
36.5600 1345.0000 1.0000
36.5700 1359.0000 1.0000
36.5800 1308.0000 1.0000
36.5900 1315.0000 1.0000
36.6000 1316.0000 1.0000
36.6100 1176.0000 1.0000
36.6200 1275.0000 1.0000
36.6300 1284.0000 1.0000
36.6400 1248.0000 1.0000
36.6500 1226.0000 1.0000
36.6600 1202.0000 1.0000
36.6700 1234.0000 1.0000
36.6800 1181.0000 1.0000
36.6900 1204.0000 1.0000
36.7000 1181.0000 1.0000
36.7100 1188.0000 1.0000
36.7200 1173.0000 1.0000
36.7300 1187.0000 1.0000
36.7400 1165.0000 1.0000
36.7500 1197.0000 1.0000
36.7600 1129.0000 1.0000
36.7700 1127.0000 1.0000
36.7800 1182.0000 1.0000
36.7900 1169.0000 1.0000
36.8000 1196.0000 1.0000
36.8100 1137.0000 1.0000
36.8200 1133.0000 1.0000
36.8300 1122.0000 1.0000
36.8400 1136.0000 1.0000
36.8500 1146.0000 1.0000
36.8600 1172.0000 1.0000
36.8700 1143.0000 1.0000
36.8800 1126.0000 1.0000
36.8900 1153.0000 1.0000
36.9000 1102.0000 1.0000
36.9100 1148.0000 1.0000
36.9200 1126.0000 1.0000
36.9300 1135.0000 1.0000
36.9400 1167.0000 1.0000
36.9500 1157.0000 1.0000
36.9600 1142.0000 1.0000
36.9700 1137.0000 1.0000
36.9800 1212.0000 1.0000
36.9900 1185.0000 1.0000
37.0000 1172.0000 1.0000
37.0100 1176.0000 1.0000
37.0200 1141.0000 1.0000
37.0300 1136.0000 1.0000
37.0400 1146.0000 1.0000
37.0500 1068.0000 1.0000
37.0600 1170.0000 1.0000
37.0700 1094.0000 1.0000
37.0800 1142.0000 1.0000
37.0900 1176.0000 1.0000
37.1000 1121.0000 1.0000
37.1100 1163.0000 1.0000
37.1200 1130.0000 1.0000
37.1300 1063.0000 1.0000
37.1400 1132.0000 1.0000
37.1500 1124.0000 1.0000
37.1600 1150.0000 1.0000
37.1700 1117.0000 1.0000
37.1800 1109.0000 1.0000
37.1900 1143.0000 1.0000
37.2000 1128.0000 1.0000
37.2100 1117.0000 1.0000
37.2200 1119.0000 1.0000
37.2300 1146.0000 1.0000
37.2400 1080.0000 1.0000
37.2500 1070.0000 1.0000
37.2600 1139.0000 1.0000
37.2700 1116.0000 1.0000
37.2800 1113.0000 1.0000
37.2900 1138.0000 1.0000
37.3000 1184.0000 1.0000
37.3100 1135.0000 1.0000
37.3200 1112.0000 1.0000
37.3300 1153.0000 1.0000
37.3400 1182.0000 1.0000
37.3500 1155.0000 1.0000
37.3600 1097.0000 1.0000
37.3700 1184.0000 1.0000
37.3800 1091.0000 1.0000
37.3900 1168.0000 1.0000
37.4000 1177.0000 1.0000
37.4100 1097.0000 1.0000
37.4200 1125.0000 1.0000
37.4300 1135.0000 1.0000
37.4400 1096.0000 1.0000
37.4500 1142.0000 1.0000
37.4600 1104.0000 1.0000
37.4700 1114.0000 1.0000
37.4800 1122.0000 1.0000
37.4900 1071.0000 1.0000
37.5000 1125.0000 1.0000
37.5100 1118.0000 1.0000
37.5200 1143.0000 1.0000
37.5300 1131.0000 1.0000
37.5400 1109.0000 1.0000
37.5500 1079.0000 1.0000
37.5600 1118.0000 1.0000
37.5700 1104.0000 1.0000
37.5800 1132.0000 1.0000
37.5900 1123.0000 1.0000
37.6000 1121.0000 1.0000
37.6100 1094.0000 1.0000
37.6200 1126.0000 1.0000
37.6300 1157.0000 1.0000
37.6400 1165.0000 1.0000
37.6500 1177.0000 1.0000
37.6600 1120.0000 1.0000
37.6700 1151.0000 1.0000
37.6800 1131.0000 1.0000
37.6900 1127.0000 1.0000
37.7000 1106.0000 1.0000
37.7100 1060.0000 1.0000
37.7200 1119.0000 1.0000
37.7300 1115.0000 1.0000
37.7400 1109.0000 1.0000
37.7500 1159.0000 1.0000
37.7600 1143.0000 1.0000
37.7700 1154.0000 1.0000
37.7800 1214.0000 1.0000
37.7900 1104.0000 1.0000
37.8000 1121.0000 1.0000
37.8100 1164.0000 1.0000
37.8200 1112.0000 1.0000
37.8300 1129.0000 1.0000
37.8400 1153.0000 1.0000
37.8500 1178.0000 1.0000
37.8600 1162.0000 1.0000
37.8700 1193.0000 1.0000
37.8800 1150.0000 1.0000
37.8900 1160.0000 1.0000
37.9000 1170.0000 1.0000
37.9100 1211.0000 1.0000
37.9200 1211.0000 1.0000
37.9300 1232.0000 1.0000
37.9400 1169.0000 1.0000
37.9500 1185.0000 1.0000
37.9600 1217.0000 1.0000
37.9700 1223.0000 1.0000
37.9800 1189.0000 1.0000
37.9900 1209.0000 1.0000
38.0000 1249.0000 1.0000
38.0100 1267.0000 1.0000
38.0200 1225.0000 1.0000
38.0300 1217.0000 1.0000
38.0400 1243.0000 1.0000
38.0500 1239.0000 1.0000
38.0600 1240.0000 1.0000
38.0700 1234.0000 1.0000
38.0800 1202.0000 1.0000
38.0900 1336.0000 1.0000
38.1000 1339.0000 1.0000
38.1100 1336.0000 1.0000
38.1200 1357.0000 1.0000
38.1300 1375.0000 1.0000
38.1400 1472.0000 1.0000
38.1500 1444.0000 1.0000
38.1600 1412.0000 1.0000
38.1700 1475.0000 1.0000
38.1800 1449.0000 1.0000
38.1900 1558.0000 1.0000
38.2000 1605.0000 1.0000
38.2100 1680.0000 1.0000
38.2200 1717.0000 1.0000
38.2300 1737.0000 1.0000
38.2400 1834.0000 1.0000
38.2500 1915.0000 1.0000
38.2600 1858.0000 1.0000
38.2700 1919.0000 1.0000
38.2800 2085.0000 1.0000
38.2900 2136.0000 1.0000
38.3000 2229.0000 1.0000
38.3100 2276.0000 1.0000
38.3200 2470.0000 1.0000
38.3300 2576.0000 1.0000
38.3400 2703.0000 1.0000
38.3500 2870.0000 1.0000
38.3600 3034.0000 1.0000
38.3700 3242.0000 1.0000
38.3800 3493.0000 1.0000
38.3900 3733.0000 1.0000
38.4000 4045.0000 1.0000
38.4100 4313.0000 1.0000
38.4200 4568.0000 1.0000
38.4300 4842.0000 1.0000
38.4400 5123.0000 1.0000
38.4500 5615.0000 1.0000
38.4600 5833.0000 1.0000
38.4700 6023.0000 1.0000
38.4800 6280.0000 1.0000
38.4900 6455.0000 1.0000
38.5000 6604.0000 1.0000
38.5100 6729.0000 1.0000
38.5200 6834.0000 1.0000
38.5300 6727.0000 1.0000
38.5400 6810.0000 1.0000
38.5500 6542.0000 1.0000
38.5600 6563.0000 1.0000
38.5700 6348.0000 1.0000
38.5800 6076.0000 1.0000
38.5900 5890.0000 1.0000
38.6000 5636.0000 1.0000
38.6100 5425.0000 1.0000
38.6200 5214.0000 1.0000
38.6300 4823.0000 1.0000
38.6400 4608.0000 1.0000
38.6500 4309.0000 1.0000
38.6600 3940.0000 1.0000
38.6700 3707.0000 1.0000
38.6800 3483.0000 1.0000
38.6900 3308.0000 1.0000
38.7000 3116.0000 1.0000
38.7100 2965.0000 1.0000
38.7200 2734.0000 1.0000
38.7300 2551.0000 1.0000
38.7400 2383.0000 1.0000
38.7500 2366.0000 1.0000
38.7600 2094.0000 1.0000
38.7700 2107.0000 1.0000
38.7800 2015.0000 1.0000
38.7900 1889.0000 1.0000
38.8000 1862.0000 1.0000
38.8100 1699.0000 1.0000
38.8200 1726.0000 1.0000
38.8300 1589.0000 1.0000
38.8400 1578.0000 1.0000
38.8500 1614.0000 1.0000
38.8600 1489.0000 1.0000
38.8700 1436.0000 1.0000
38.8800 1444.0000 1.0000
38.8900 1408.0000 1.0000
38.9000 1331.0000 1.0000
38.9100 1323.0000 1.0000
38.9200 1329.0000 1.0000
38.9300 1314.0000 1.0000
38.9400 1281.0000 1.0000
38.9500 1281.0000 1.0000
38.9600 1284.0000 1.0000
38.9700 1193.0000 1.0000
38.9800 1263.0000 1.0000
38.9900 1293.0000 1.0000
39.0000 1211.0000 1.0000
39.0100 1208.0000 1.0000
39.0200 1172.0000 1.0000
39.0300 1152.0000 1.0000
39.0400 1187.0000 1.0000
39.0500 1147.0000 1.0000
39.0600 1104.0000 1.0000
39.0700 1099.0000 1.0000
39.0800 1133.0000 1.0000
39.0900 1109.0000 1.0000
39.1000 1076.0000 1.0000
39.1100 1114.0000 1.0000
39.1200 1086.0000 1.0000
39.1300 1070.0000 1.0000
39.1400 1065.0000 1.0000
39.1500 1105.0000 1.0000
39.1600 1070.0000 1.0000
39.1700 1062.0000 1.0000
39.1800 1139.0000 1.0000
39.1900 1069.0000 1.0000
39.2000 1077.0000 1.0000
39.2100 1097.0000 1.0000
39.2200 1063.0000 1.0000
39.2300 1074.0000 1.0000
39.2400 1058.0000 1.0000
39.2500 1037.0000 1.0000
39.2600 1047.0000 1.0000
39.2700 1083.0000 1.0000
39.2800 1021.0000 1.0000
39.2900 1074.0000 1.0000
39.3000 1088.0000 1.0000
39.3100 1036.0000 1.0000
39.3200 1018.0000 1.0000
39.3300 1083.0000 1.0000
39.3400 1055.0000 1.0000
39.3500 1007.0000 1.0000
39.3600 1062.0000 1.0000
39.3700 1103.0000 1.0000
39.3800 1027.0000 1.0000
39.3900 1048.0000 1.0000
39.4000 1003.0000 1.0000
39.4100 1087.0000 1.0000
39.4200 1101.0000 1.0000
39.4300 1075.0000 1.0000
39.4400 1072.0000 1.0000
39.4500 1056.0000 1.0000
39.4600 1030.0000 1.0000
39.4700 1054.0000 1.0000
39.4800 1076.0000 1.0000
39.4900 1030.0000 1.0000
39.5000 1102.0000 1.0000
39.5100 1150.0000 1.0000
39.5200 1111.0000 1.0000
39.5300 1074.0000 1.0000
39.5400 1116.0000 1.0000
39.5500 1125.0000 1.0000
39.5600 1131.0000 1.0000
39.5700 1049.0000 1.0000
39.5800 1076.0000 1.0000
39.5900 1047.0000 1.0000
39.6000 1097.0000 1.0000
39.6100 1073.0000 1.0000
39.6200 1104.0000 1.0000
39.6300 1079.0000 1.0000
39.6400 1043.0000 1.0000
39.6500 1003.0000 1.0000
39.6600 1074.0000 1.0000
39.6700 1035.0000 1.0000
39.6800 1033.0000 1.0000
39.6900 1020.0000 1.0000
39.7000 1044.0000 1.0000
39.7100 1064.0000 1.0000
39.7200 1029.0000 1.0000
39.7300 1044.0000 1.0000
39.7400 1056.0000 1.0000
39.7500 1016.0000 1.0000
39.7600 996.0000 1.0000
39.7700 952.0000 1.0000
39.7800 972.0000 1.0000
39.7900 1022.0000 1.0000
39.8000 1030.0000 1.0000
39.8100 996.0000 1.0000
39.8200 985.0000 1.0000
39.8300 1005.0000 1.0000
39.8400 1041.0000 1.0000
39.8500 1030.0000 1.0000
39.8600 1038.0000 1.0000
39.8700 968.0000 1.0000
39.8800 986.0000 1.0000
39.8900 1014.0000 1.0000
39.9000 1026.0000 1.0000
39.9100 992.0000 1.0000
39.9200 955.0000 1.0000
39.9300 976.0000 1.0000
39.9400 959.0000 1.0000
39.9500 1009.0000 1.0000
39.9600 958.0000 1.0000
39.9700 974.0000 1.0000
39.9800 1030.0000 1.0000
39.9900 1026.0000 1.0000
40.0000 987.0000 1.0000
40.0100 1043.0000 1.0000
40.0200 988.0000 1.0000
40.0300 956.0000 1.0000
40.0400 939.0000 1.0000
40.0500 987.0000 1.0000
40.0600 952.0000 1.0000
40.0700 1010.0000 1.0000
40.0800 940.0000 1.0000
40.0900 1051.0000 1.0000
40.1000 1002.0000 1.0000
40.1100 948.0000 1.0000
40.1200 951.0000 1.0000
40.1300 955.0000 1.0000
40.1400 913.0000 1.0000
40.1500 969.0000 1.0000
40.1600 991.0000 1.0000
40.1700 933.0000 1.0000
40.1800 956.0000 1.0000
40.1900 944.0000 1.0000
40.2000 950.0000 1.0000
40.2100 937.0000 1.0000
40.2200 955.0000 1.0000
40.2300 975.0000 1.0000
40.2400 998.0000 1.0000
40.2500 986.0000 1.0000
40.2600 960.0000 1.0000
40.2700 924.0000 1.0000
40.2800 944.0000 1.0000
40.2900 948.0000 1.0000
40.3000 968.0000 1.0000
40.3100 974.0000 1.0000
40.3200 972.0000 1.0000
40.3300 964.0000 1.0000
40.3400 938.0000 1.0000
40.3500 963.0000 1.0000
40.3600 1024.0000 1.0000
40.3700 917.0000 1.0000
40.3800 930.0000 1.0000
40.3900 943.0000 1.0000
40.4000 965.0000 1.0000
40.4100 969.0000 1.0000
40.4200 945.0000 1.0000
40.4300 944.0000 1.0000
40.4400 919.0000 1.0000
40.4500 891.0000 1.0000
40.4600 940.0000 1.0000
40.4700 948.0000 1.0000
40.4800 962.0000 1.0000
40.4900 941.0000 1.0000
40.5000 945.0000 1.0000
40.5100 951.0000 1.0000
40.5200 954.0000 1.0000
40.5300 913.0000 1.0000
40.5400 922.0000 1.0000
40.5500 925.0000 1.0000
40.5600 915.0000 1.0000
40.5700 995.0000 1.0000
40.5800 992.0000 1.0000
40.5900 932.0000 1.0000
40.6000 977.0000 1.0000
40.6100 955.0000 1.0000
40.6200 965.0000 1.0000
40.6300 977.0000 1.0000
40.6400 984.0000 1.0000
40.6500 955.0000 1.0000
40.6600 933.0000 1.0000
40.6700 921.0000 1.0000
40.6800 940.0000 1.0000
40.6900 953.0000 1.0000
40.7000 962.0000 1.0000
40.7100 1010.0000 1.0000
40.7200 954.0000 1.0000
40.7300 931.0000 1.0000
40.7400 913.0000 1.0000
40.7500 929.0000 1.0000
40.7600 918.0000 1.0000
40.7700 948.0000 1.0000
40.7800 941.0000 1.0000
40.7900 971.0000 1.0000
40.8000 955.0000 1.0000
40.8100 937.0000 1.0000
40.8200 971.0000 1.0000
40.8300 945.0000 1.0000
40.8400 926.0000 1.0000
40.8500 975.0000 1.0000
40.8600 957.0000 1.0000
40.8700 948.0000 1.0000
40.8800 902.0000 1.0000
40.8900 875.0000 1.0000
40.9000 917.0000 1.0000
40.9100 933.0000 1.0000
40.9200 951.0000 1.0000
40.9300 948.0000 1.0000
40.9400 910.0000 1.0000
40.9500 914.0000 1.0000
40.9600 932.0000 1.0000
40.9700 908.0000 1.0000
40.9800 886.0000 1.0000
40.9900 926.0000 1.0000
41.0000 897.0000 1.0000
41.0100 941.0000 1.0000
41.0200 922.0000 1.0000
41.0300 929.0000 1.0000
41.0400 955.0000 1.0000
41.0500 965.0000 1.0000
41.0600 943.0000 1.0000
41.0700 953.0000 1.0000
41.0800 972.0000 1.0000
41.0900 950.0000 1.0000
41.1000 916.0000 1.0000
41.1100 882.0000 1.0000
41.1200 952.0000 1.0000
41.1300 929.0000 1.0000
41.1400 928.0000 1.0000
41.1500 924.0000 1.0000
41.1600 911.0000 1.0000
41.1700 965.0000 1.0000
41.1800 936.0000 1.0000
41.1900 952.0000 1.0000
41.2000 947.0000 1.0000
41.2100 962.0000 1.0000
41.2200 949.0000 1.0000
41.2300 956.0000 1.0000
41.2400 946.0000 1.0000
41.2500 954.0000 1.0000
41.2600 958.0000 1.0000
41.2700 954.0000 1.0000
41.2800 915.0000 1.0000
41.2900 966.0000 1.0000
41.3000 918.0000 1.0000
41.3100 926.0000 1.0000
41.3200 939.0000 1.0000
41.3300 934.0000 1.0000
41.3400 959.0000 1.0000
41.3500 919.0000 1.0000
41.3600 929.0000 1.0000
41.3700 924.0000 1.0000
41.3800 913.0000 1.0000
41.3900 957.0000 1.0000
41.4000 948.0000 1.0000
41.4100 872.0000 1.0000
41.4200 924.0000 1.0000
41.4300 929.0000 1.0000
41.4400 964.0000 1.0000
41.4500 945.0000 1.0000
41.4600 981.0000 1.0000
41.4700 938.0000 1.0000
41.4800 941.0000 1.0000
41.4900 996.0000 1.0000
41.5000 904.0000 1.0000
41.5100 950.0000 1.0000
41.5200 940.0000 1.0000
41.5300 977.0000 1.0000
41.5400 969.0000 1.0000
41.5500 936.0000 1.0000
41.5600 955.0000 1.0000
41.5700 999.0000 1.0000
41.5800 911.0000 1.0000
41.5900 917.0000 1.0000
41.6000 893.0000 1.0000
41.6100 1010.0000 1.0000
41.6200 974.0000 1.0000
41.6300 981.0000 1.0000
41.6400 1024.0000 1.0000
41.6500 956.0000 1.0000
41.6600 941.0000 1.0000
41.6700 918.0000 1.0000
41.6800 909.0000 1.0000
41.6900 952.0000 1.0000
41.7000 952.0000 1.0000
41.7100 940.0000 1.0000
41.7200 937.0000 1.0000
41.7300 948.0000 1.0000
41.7400 954.0000 1.0000
41.7500 953.0000 1.0000
41.7600 965.0000 1.0000
41.7700 940.0000 1.0000
41.7800 943.0000 1.0000
41.7900 961.0000 1.0000
41.8000 987.0000 1.0000
41.8100 932.0000 1.0000
41.8200 861.0000 1.0000
41.8300 900.0000 1.0000
41.8400 936.0000 1.0000
41.8500 920.0000 1.0000
41.8600 927.0000 1.0000
41.8700 921.0000 1.0000
41.8800 938.0000 1.0000
41.8900 909.0000 1.0000
41.9000 976.0000 1.0000
41.9100 919.0000 1.0000
41.9200 879.0000 1.0000
41.9300 911.0000 1.0000
41.9400 943.0000 1.0000
41.9500 892.0000 1.0000
41.9600 956.0000 1.0000
41.9700 941.0000 1.0000
41.9800 944.0000 1.0000
41.9900 925.0000 1.0000
42.0000 927.0000 1.0000
42.0100 956.0000 1.0000
42.0200 928.0000 1.0000
42.0300 871.0000 1.0000
42.0400 924.0000 1.0000
42.0500 939.0000 1.0000
42.0600 902.0000 1.0000
42.0700 906.0000 1.0000
42.0800 911.0000 1.0000
42.0900 961.0000 1.0000
42.1000 892.0000 1.0000
42.1100 942.0000 1.0000
42.1200 877.0000 1.0000
42.1300 897.0000 1.0000
42.1400 927.0000 1.0000
42.1500 950.0000 1.0000
42.1600 916.0000 1.0000
42.1700 893.0000 1.0000
42.1800 967.0000 1.0000
42.1900 959.0000 1.0000
42.2000 915.0000 1.0000
42.2100 947.0000 1.0000
42.2200 905.0000 1.0000
42.2300 909.0000 1.0000
42.2400 898.0000 1.0000
42.2500 900.0000 1.0000
42.2600 913.0000 1.0000
42.2700 849.0000 1.0000
42.2800 900.0000 1.0000
42.2900 940.0000 1.0000
42.3000 882.0000 1.0000
42.3100 887.0000 1.0000
42.3200 903.0000 1.0000
42.3300 920.0000 1.0000
42.3400 915.0000 1.0000
42.3500 924.0000 1.0000
42.3600 854.0000 1.0000
42.3700 911.0000 1.0000
42.3800 906.0000 1.0000
42.3900 900.0000 1.0000
42.4000 946.0000 1.0000
42.4100 970.0000 1.0000
42.4200 946.0000 1.0000
42.4300 940.0000 1.0000
42.4400 915.0000 1.0000
42.4500 919.0000 1.0000
42.4600 881.0000 1.0000
42.4700 927.0000 1.0000
42.4800 914.0000 1.0000
42.4900 925.0000 1.0000
42.5000 929.0000 1.0000
42.5100 934.0000 1.0000
42.5200 920.0000 1.0000
42.5300 901.0000 1.0000
42.5400 883.0000 1.0000
42.5500 896.0000 1.0000
42.5600 920.0000 1.0000
42.5700 930.0000 1.0000
42.5800 888.0000 1.0000
42.5900 910.0000 1.0000
42.6000 919.0000 1.0000
42.6100 928.0000 1.0000
42.6200 903.0000 1.0000
42.6300 887.0000 1.0000
42.6400 919.0000 1.0000
42.6500 909.0000 1.0000
42.6600 882.0000 1.0000
42.6700 923.0000 1.0000
42.6800 895.0000 1.0000
42.6900 879.0000 1.0000
42.7000 879.0000 1.0000
42.7100 872.0000 1.0000
42.7200 922.0000 1.0000
42.7300 888.0000 1.0000
42.7400 940.0000 1.0000
42.7500 899.0000 1.0000
42.7600 908.0000 1.0000
42.7700 918.0000 1.0000
42.7800 897.0000 1.0000
42.7900 898.0000 1.0000
42.8000 909.0000 1.0000
42.8100 938.0000 1.0000
42.8200 937.0000 1.0000
42.8300 887.0000 1.0000
42.8400 947.0000 1.0000
42.8500 934.0000 1.0000
42.8600 893.0000 1.0000
42.8700 931.0000 1.0000
42.8800 903.0000 1.0000
42.8900 917.0000 1.0000
42.9000 905.0000 1.0000
42.9100 879.0000 1.0000
42.9200 925.0000 1.0000
42.9300 915.0000 1.0000
42.9400 904.0000 1.0000
42.9500 901.0000 1.0000
42.9600 902.0000 1.0000
42.9700 940.0000 1.0000
42.9800 948.0000 1.0000
42.9900 916.0000 1.0000
43.0000 891.0000 1.0000
43.0100 836.0000 1.0000
43.0200 942.0000 1.0000
43.0300 893.0000 1.0000
43.0400 953.0000 1.0000
43.0500 957.0000 1.0000
43.0600 995.0000 1.0000
43.0700 970.0000 1.0000
43.0800 907.0000 1.0000
43.0900 976.0000 1.0000
43.1000 980.0000 1.0000
43.1100 952.0000 1.0000
43.1200 968.0000 1.0000
43.1300 952.0000 1.0000
43.1400 1003.0000 1.0000
43.1500 1027.0000 1.0000
43.1600 1030.0000 1.0000
43.1700 982.0000 1.0000
43.1800 976.0000 1.0000
43.1900 1071.0000 1.0000
43.2000 1026.0000 1.0000
43.2100 948.0000 1.0000
43.2200 1014.0000 1.0000
43.2300 987.0000 1.0000
43.2400 962.0000 1.0000
43.2500 991.0000 1.0000
43.2600 971.0000 1.0000
43.2700 1020.0000 1.0000
43.2800 1031.0000 1.0000
43.2900 1004.0000 1.0000
43.3000 1003.0000 1.0000
43.3100 962.0000 1.0000
43.3200 981.0000 1.0000
43.3300 967.0000 1.0000
43.3400 939.0000 1.0000
43.3500 964.0000 1.0000
43.3600 948.0000 1.0000
43.3700 959.0000 1.0000
43.3800 953.0000 1.0000
43.3900 927.0000 1.0000
43.4000 942.0000 1.0000
43.4100 946.0000 1.0000
43.4200 929.0000 1.0000
43.4300 877.0000 1.0000
43.4400 949.0000 1.0000
43.4500 934.0000 1.0000
43.4600 945.0000 1.0000
43.4700 910.0000 1.0000
43.4800 933.0000 1.0000
43.4900 888.0000 1.0000
43.5000 885.0000 1.0000
43.5100 899.0000 1.0000
43.5200 926.0000 1.0000
43.5300 907.0000 1.0000
43.5400 951.0000 1.0000
43.5500 905.0000 1.0000
43.5600 887.0000 1.0000
43.5700 867.0000 1.0000
43.5800 899.0000 1.0000
43.5900 924.0000 1.0000
43.6000 863.0000 1.0000
43.6100 837.0000 1.0000
43.6200 888.0000 1.0000
43.6300 900.0000 1.0000
43.6400 925.0000 1.0000
43.6500 865.0000 1.0000
43.6600 870.0000 1.0000
43.6700 912.0000 1.0000
43.6800 891.0000 1.0000
43.6900 906.0000 1.0000
43.7000 904.0000 1.0000
43.7100 924.0000 1.0000
43.7200 888.0000 1.0000
43.7300 871.0000 1.0000
43.7400 867.0000 1.0000
43.7500 876.0000 1.0000
43.7600 919.0000 1.0000
43.7700 890.0000 1.0000
43.7800 862.0000 1.0000
43.7900 918.0000 1.0000
43.8000 909.0000 1.0000
43.8100 899.0000 1.0000
43.8200 920.0000 1.0000
43.8300 901.0000 1.0000
43.8400 907.0000 1.0000
43.8500 919.0000 1.0000
43.8600 880.0000 1.0000
43.8700 897.0000 1.0000
43.8800 935.0000 1.0000
43.8900 885.0000 1.0000
43.9000 892.0000 1.0000
43.9100 882.0000 1.0000
43.9200 893.0000 1.0000
43.9300 890.0000 1.0000
43.9400 884.0000 1.0000
43.9500 898.0000 1.0000
43.9600 904.0000 1.0000
43.9700 844.0000 1.0000
43.9800 877.0000 1.0000
43.9900 899.0000 1.0000
44.0000 916.0000 1.0000
44.0100 865.0000 1.0000
44.0200 863.0000 1.0000
44.0300 902.0000 1.0000
44.0400 933.0000 1.0000
44.0500 922.0000 1.0000
44.0600 937.0000 1.0000
44.0700 864.0000 1.0000
44.0800 880.0000 1.0000
44.0900 904.0000 1.0000
44.1000 844.0000 1.0000
44.1100 938.0000 1.0000
44.1200 869.0000 1.0000
44.1300 895.0000 1.0000
44.1400 892.0000 1.0000
44.1500 896.0000 1.0000
44.1600 886.0000 1.0000
44.1700 854.0000 1.0000
44.1800 858.0000 1.0000
44.1900 875.0000 1.0000
44.2000 877.0000 1.0000
44.2100 948.0000 1.0000
44.2200 897.0000 1.0000
44.2300 953.0000 1.0000
44.2400 933.0000 1.0000
44.2500 923.0000 1.0000
44.2600 884.0000 1.0000
44.2700 903.0000 1.0000
44.2800 896.0000 1.0000
44.2900 883.0000 1.0000
44.3000 908.0000 1.0000
44.3100 887.0000 1.0000
44.3200 957.0000 1.0000
44.3300 877.0000 1.0000
44.3400 893.0000 1.0000
44.3500 866.0000 1.0000
44.3600 934.0000 1.0000
44.3700 884.0000 1.0000
44.3800 923.0000 1.0000
44.3900 886.0000 1.0000
44.4000 889.0000 1.0000
44.4100 887.0000 1.0000
44.4200 885.0000 1.0000
44.4300 872.0000 1.0000
44.4400 933.0000 1.0000
44.4500 894.0000 1.0000
44.4600 905.0000 1.0000
44.4700 898.0000 1.0000
44.4800 855.0000 1.0000
44.4900 902.0000 1.0000
44.5000 859.0000 1.0000
44.5100 885.0000 1.0000
44.5200 861.0000 1.0000
44.5300 913.0000 1.0000
44.5400 910.0000 1.0000
44.5500 868.0000 1.0000
44.5600 850.0000 1.0000
44.5700 882.0000 1.0000
44.5800 902.0000 1.0000
44.5900 902.0000 1.0000
44.6000 940.0000 1.0000
44.6100 880.0000 1.0000
44.6200 890.0000 1.0000
44.6300 906.0000 1.0000
44.6400 849.0000 1.0000
44.6500 854.0000 1.0000
44.6600 910.0000 1.0000
44.6700 877.0000 1.0000
44.6800 893.0000 1.0000
44.6900 855.0000 1.0000
44.7000 853.0000 1.0000
44.7100 921.0000 1.0000
44.7200 928.0000 1.0000
44.7300 908.0000 1.0000
44.7400 888.0000 1.0000
44.7500 886.0000 1.0000
44.7600 869.0000 1.0000
44.7700 845.0000 1.0000
44.7800 903.0000 1.0000
44.7900 879.0000 1.0000
44.8000 902.0000 1.0000
44.8100 899.0000 1.0000
44.8200 838.0000 1.0000
44.8300 854.0000 1.0000
44.8400 897.0000 1.0000
44.8500 855.0000 1.0000
44.8600 883.0000 1.0000
44.8700 863.0000 1.0000
44.8800 867.0000 1.0000
44.8900 895.0000 1.0000
44.9000 854.0000 1.0000
44.9100 885.0000 1.0000
44.9200 862.0000 1.0000
44.9300 840.0000 1.0000
44.9400 852.0000 1.0000
44.9500 855.0000 1.0000
44.9600 894.0000 1.0000
44.9700 922.0000 1.0000
44.9800 891.0000 1.0000
44.9900 889.0000 1.0000
45.0000 898.0000 1.0000
45.0100 822.0000 1.0000
45.0200 886.0000 1.0000
45.0300 880.0000 1.0000
45.0400 843.0000 1.0000
45.0500 869.0000 1.0000
45.0600 852.0000 1.0000
45.0700 891.0000 1.0000
45.0800 828.0000 1.0000
45.0900 848.0000 1.0000
45.1000 865.0000 1.0000
45.1100 877.0000 1.0000
45.1200 928.0000 1.0000
45.1300 809.0000 1.0000
45.1400 844.0000 1.0000
45.1500 827.0000 1.0000
45.1600 813.0000 1.0000
45.1700 863.0000 1.0000
45.1800 907.0000 1.0000
45.1900 839.0000 1.0000
45.2000 868.0000 1.0000
45.2100 891.0000 1.0000
45.2200 872.0000 1.0000
45.2300 866.0000 1.0000
45.2400 851.0000 1.0000
45.2500 821.0000 1.0000
45.2600 898.0000 1.0000
45.2700 854.0000 1.0000
45.2800 823.0000 1.0000
45.2900 830.0000 1.0000
45.3000 846.0000 1.0000
45.3100 899.0000 1.0000
45.3200 874.0000 1.0000
45.3300 829.0000 1.0000
45.3400 835.0000 1.0000
45.3500 843.0000 1.0000
45.3600 877.0000 1.0000
45.3700 895.0000 1.0000
45.3800 880.0000 1.0000
45.3900 881.0000 1.0000
45.4000 832.0000 1.0000
45.4100 828.0000 1.0000
45.4200 848.0000 1.0000
45.4300 867.0000 1.0000
45.4400 849.0000 1.0000
45.4500 804.0000 1.0000
45.4600 841.0000 1.0000
45.4700 848.0000 1.0000
45.4800 867.0000 1.0000
45.4900 824.0000 1.0000
45.5000 851.0000 1.0000
45.5100 873.0000 1.0000
45.5200 850.0000 1.0000
45.5300 844.0000 1.0000
45.5400 874.0000 1.0000
45.5500 816.0000 1.0000
45.5600 839.0000 1.0000
45.5700 886.0000 1.0000
45.5800 839.0000 1.0000
45.5900 831.0000 1.0000
45.6000 861.0000 1.0000
45.6100 868.0000 1.0000
45.6200 854.0000 1.0000
45.6300 857.0000 1.0000
45.6400 837.0000 1.0000
45.6500 862.0000 1.0000
45.6600 794.0000 1.0000
45.6700 859.0000 1.0000
45.6800 842.0000 1.0000
45.6900 819.0000 1.0000
45.7000 851.0000 1.0000
45.7100 839.0000 1.0000
45.7200 873.0000 1.0000
45.7300 861.0000 1.0000
45.7400 861.0000 1.0000
45.7500 849.0000 1.0000
45.7600 872.0000 1.0000
45.7700 879.0000 1.0000
45.7800 820.0000 1.0000
45.7900 819.0000 1.0000
45.8000 825.0000 1.0000
45.8100 828.0000 1.0000
45.8200 825.0000 1.0000
45.8300 878.0000 1.0000
45.8400 821.0000 1.0000
45.8500 816.0000 1.0000
45.8600 830.0000 1.0000
45.8700 846.0000 1.0000
45.8800 866.0000 1.0000
45.8900 888.0000 1.0000
45.9000 855.0000 1.0000
45.9100 856.0000 1.0000
45.9200 848.0000 1.0000
45.9300 894.0000 1.0000
45.9400 830.0000 1.0000
45.9500 814.0000 1.0000
45.9600 843.0000 1.0000
45.9700 876.0000 1.0000
45.9800 824.0000 1.0000
45.9900 777.0000 1.0000
46.0000 835.0000 1.0000
46.0100 814.0000 1.0000
46.0200 884.0000 1.0000
46.0300 841.0000 1.0000
46.0400 840.0000 1.0000
46.0500 884.0000 1.0000
46.0600 814.0000 1.0000
46.0700 820.0000 1.0000
46.0800 851.0000 1.0000
46.0900 840.0000 1.0000
46.1000 821.0000 1.0000
46.1100 806.0000 1.0000
46.1200 848.0000 1.0000
46.1300 826.0000 1.0000
46.1400 803.0000 1.0000
46.1500 831.0000 1.0000
46.1600 851.0000 1.0000
46.1700 882.0000 1.0000
46.1800 832.0000 1.0000
46.1900 851.0000 1.0000
46.2000 845.0000 1.0000
46.2100 826.0000 1.0000
46.2200 821.0000 1.0000
46.2300 858.0000 1.0000
46.2400 804.0000 1.0000
46.2500 837.0000 1.0000
46.2600 802.0000 1.0000
46.2700 823.0000 1.0000
46.2800 851.0000 1.0000
46.2900 855.0000 1.0000
46.3000 862.0000 1.0000
46.3100 830.0000 1.0000
46.3200 863.0000 1.0000
46.3300 863.0000 1.0000
46.3400 850.0000 1.0000
46.3500 846.0000 1.0000
46.3600 818.0000 1.0000
46.3700 834.0000 1.0000
46.3800 840.0000 1.0000
46.3900 775.0000 1.0000
46.4000 818.0000 1.0000
46.4100 893.0000 1.0000
46.4200 845.0000 1.0000
46.4300 827.0000 1.0000
46.4400 790.0000 1.0000
46.4500 874.0000 1.0000
46.4600 864.0000 1.0000
46.4700 818.0000 1.0000
46.4800 826.0000 1.0000
46.4900 822.0000 1.0000
46.5000 781.0000 1.0000
46.5100 842.0000 1.0000
46.5200 823.0000 1.0000
46.5300 813.0000 1.0000
46.5400 820.0000 1.0000
46.5500 811.0000 1.0000
46.5600 809.0000 1.0000
46.5700 780.0000 1.0000
46.5800 815.0000 1.0000
46.5900 869.0000 1.0000
46.6000 856.0000 1.0000
46.6100 866.0000 1.0000
46.6200 792.0000 1.0000
46.6300 765.0000 1.0000
46.6400 851.0000 1.0000
46.6500 866.0000 1.0000
46.6600 884.0000 1.0000
46.6700 865.0000 1.0000
46.6800 850.0000 1.0000
46.6900 790.0000 1.0000
46.7000 871.0000 1.0000
46.7100 795.0000 1.0000
46.7200 820.0000 1.0000
46.7300 864.0000 1.0000
46.7400 877.0000 1.0000
46.7500 814.0000 1.0000
46.7600 831.0000 1.0000
46.7700 797.0000 1.0000
46.7800 791.0000 1.0000
46.7900 873.0000 1.0000
46.8000 858.0000 1.0000
46.8100 845.0000 1.0000
46.8200 811.0000 1.0000
46.8300 850.0000 1.0000
46.8400 838.0000 1.0000
46.8500 845.0000 1.0000
46.8600 838.0000 1.0000
46.8700 866.0000 1.0000
46.8800 822.0000 1.0000
46.8900 818.0000 1.0000
46.9000 832.0000 1.0000
46.9100 823.0000 1.0000
46.9200 829.0000 1.0000
46.9300 838.0000 1.0000
46.9400 865.0000 1.0000
46.9500 857.0000 1.0000
46.9600 791.0000 1.0000
46.9700 863.0000 1.0000
46.9800 895.0000 1.0000
46.9900 863.0000 1.0000
47.0000 881.0000 1.0000
47.0100 842.0000 1.0000
47.0200 793.0000 1.0000
47.0300 886.0000 1.0000
47.0400 874.0000 1.0000
47.0500 852.0000 1.0000
47.0600 860.0000 1.0000
47.0700 820.0000 1.0000
47.0800 820.0000 1.0000
47.0900 788.0000 1.0000
47.1000 825.0000 1.0000
47.1100 865.0000 1.0000
47.1200 876.0000 1.0000
47.1300 824.0000 1.0000
47.1400 807.0000 1.0000
47.1500 828.0000 1.0000
47.1600 841.0000 1.0000
47.1700 847.0000 1.0000
47.1800 826.0000 1.0000
47.1900 787.0000 1.0000
47.2000 833.0000 1.0000
47.2100 869.0000 1.0000
47.2200 851.0000 1.0000
47.2300 829.0000 1.0000
47.2400 800.0000 1.0000
47.2500 772.0000 1.0000
47.2600 817.0000 1.0000
47.2700 817.0000 1.0000
47.2800 851.0000 1.0000
47.2900 860.0000 1.0000
47.3000 852.0000 1.0000
47.3100 769.0000 1.0000
47.3200 825.0000 1.0000
47.3300 799.0000 1.0000
47.3400 863.0000 1.0000
47.3500 831.0000 1.0000
47.3600 817.0000 1.0000
47.3700 810.0000 1.0000
47.3800 840.0000 1.0000
47.3900 781.0000 1.0000
47.4000 828.0000 1.0000
47.4100 829.0000 1.0000
47.4200 774.0000 1.0000
47.4300 806.0000 1.0000
47.4400 813.0000 1.0000
47.4500 825.0000 1.0000
47.4600 825.0000 1.0000
47.4700 800.0000 1.0000
47.4800 833.0000 1.0000
47.4900 821.0000 1.0000
47.5000 784.0000 1.0000
47.5100 824.0000 1.0000
47.5200 800.0000 1.0000
47.5300 799.0000 1.0000
47.5400 790.0000 1.0000
47.5500 804.0000 1.0000
47.5600 832.0000 1.0000
47.5700 825.0000 1.0000
47.5800 799.0000 1.0000
47.5900 780.0000 1.0000
47.6000 789.0000 1.0000
47.6100 799.0000 1.0000
47.6200 787.0000 1.0000
47.6300 828.0000 1.0000
47.6400 825.0000 1.0000
47.6500 822.0000 1.0000
47.6600 796.0000 1.0000
47.6700 826.0000 1.0000
47.6800 799.0000 1.0000
47.6900 789.0000 1.0000
47.7000 810.0000 1.0000
47.7100 783.0000 1.0000
47.7200 841.0000 1.0000
47.7300 859.0000 1.0000
47.7400 827.0000 1.0000
47.7500 752.0000 1.0000
47.7600 776.0000 1.0000
47.7700 845.0000 1.0000
47.7800 779.0000 1.0000
47.7900 785.0000 1.0000
47.8000 794.0000 1.0000
47.8100 813.0000 1.0000
47.8200 810.0000 1.0000
47.8300 766.0000 1.0000
47.8400 840.0000 1.0000
47.8500 836.0000 1.0000
47.8600 833.0000 1.0000
47.8700 784.0000 1.0000
47.8800 786.0000 1.0000
47.8900 797.0000 1.0000
47.9000 834.0000 1.0000
47.9100 804.0000 1.0000
47.9200 778.0000 1.0000
47.9300 800.0000 1.0000
47.9400 797.0000 1.0000
47.9500 804.0000 1.0000
47.9600 797.0000 1.0000
47.9700 762.0000 1.0000
47.9800 781.0000 1.0000
47.9900 790.0000 1.0000
48.0000 758.0000 1.0000
48.0100 833.0000 1.0000
48.0200 830.0000 1.0000
48.0300 788.0000 1.0000
48.0400 791.0000 1.0000
48.0500 804.0000 1.0000
48.0600 822.0000 1.0000
48.0700 845.0000 1.0000
48.0800 769.0000 1.0000
48.0900 842.0000 1.0000
48.1000 783.0000 1.0000
48.1100 772.0000 1.0000
48.1200 815.0000 1.0000
48.1300 759.0000 1.0000
48.1400 788.0000 1.0000
48.1500 805.0000 1.0000
48.1600 785.0000 1.0000
48.1700 792.0000 1.0000
48.1800 769.0000 1.0000
48.1900 835.0000 1.0000
48.2000 828.0000 1.0000
48.2100 790.0000 1.0000
48.2200 810.0000 1.0000
48.2300 790.0000 1.0000
48.2400 785.0000 1.0000
48.2500 763.0000 1.0000
48.2600 827.0000 1.0000
48.2700 810.0000 1.0000
48.2800 788.0000 1.0000
48.2900 800.0000 1.0000
48.3000 760.0000 1.0000
48.3100 786.0000 1.0000
48.3200 815.0000 1.0000
48.3300 815.0000 1.0000
48.3400 814.0000 1.0000
48.3500 809.0000 1.0000
48.3600 788.0000 1.0000
48.3700 779.0000 1.0000
48.3800 786.0000 1.0000
48.3900 736.0000 1.0000
48.4000 831.0000 1.0000
48.4100 798.0000 1.0000
48.4200 793.0000 1.0000
48.4300 814.0000 1.0000
48.4400 784.0000 1.0000
48.4500 752.0000 1.0000
48.4600 773.0000 1.0000
48.4700 798.0000 1.0000
48.4800 795.0000 1.0000
48.4900 825.0000 1.0000
48.5000 792.0000 1.0000
48.5100 782.0000 1.0000
48.5200 790.0000 1.0000
48.5300 808.0000 1.0000
48.5400 797.0000 1.0000
48.5500 789.0000 1.0000
48.5600 767.0000 1.0000
48.5700 795.0000 1.0000
48.5800 794.0000 1.0000
48.5900 846.0000 1.0000
48.6000 776.0000 1.0000
48.6100 781.0000 1.0000
48.6200 781.0000 1.0000
48.6300 771.0000 1.0000
48.6400 814.0000 1.0000
48.6500 800.0000 1.0000
48.6600 807.0000 1.0000
48.6700 815.0000 1.0000
48.6800 800.0000 1.0000
48.6900 728.0000 1.0000
48.7000 805.0000 1.0000
48.7100 795.0000 1.0000
48.7200 809.0000 1.0000
48.7300 787.0000 1.0000
48.7400 802.0000 1.0000
48.7500 745.0000 1.0000
48.7600 791.0000 1.0000
48.7700 797.0000 1.0000
48.7800 790.0000 1.0000
48.7900 744.0000 1.0000
48.8000 777.0000 1.0000
48.8100 775.0000 1.0000
48.8200 812.0000 1.0000
48.8300 742.0000 1.0000
48.8400 737.0000 1.0000
48.8500 780.0000 1.0000
48.8600 833.0000 1.0000
48.8700 811.0000 1.0000
48.8800 779.0000 1.0000
48.8900 763.0000 1.0000
48.9000 844.0000 1.0000
48.9100 816.0000 1.0000
48.9200 803.0000 1.0000
48.9300 837.0000 1.0000
48.9400 822.0000 1.0000
48.9500 770.0000 1.0000
48.9600 791.0000 1.0000
48.9700 841.0000 1.0000
48.9800 801.0000 1.0000
48.9900 806.0000 1.0000
49.0000 822.0000 1.0000
49.0100 781.0000 1.0000
49.0200 761.0000 1.0000
49.0300 761.0000 1.0000
49.0400 791.0000 1.0000
49.0500 778.0000 1.0000
49.0600 823.0000 1.0000
49.0700 766.0000 1.0000
49.0800 766.0000 1.0000
49.0900 774.0000 1.0000
49.1000 795.0000 1.0000
49.1100 765.0000 1.0000
49.1200 810.0000 1.0000
49.1300 798.0000 1.0000
49.1400 815.0000 1.0000
49.1500 842.0000 1.0000
49.1600 795.0000 1.0000
49.1700 816.0000 1.0000
49.1800 744.0000 1.0000
49.1900 757.0000 1.0000
49.2000 774.0000 1.0000
49.2100 756.0000 1.0000
49.2200 745.0000 1.0000
49.2300 747.0000 1.0000
49.2400 771.0000 1.0000
49.2500 777.0000 1.0000
49.2600 775.0000 1.0000
49.2700 789.0000 1.0000
49.2800 812.0000 1.0000
49.2900 732.0000 1.0000
49.3000 802.0000 1.0000
49.3100 812.0000 1.0000
49.3200 843.0000 1.0000
49.3300 771.0000 1.0000
49.3400 788.0000 1.0000
49.3500 773.0000 1.0000
49.3600 741.0000 1.0000
49.3700 768.0000 1.0000
49.3800 855.0000 1.0000
49.3900 776.0000 1.0000
49.4000 777.0000 1.0000
49.4100 775.0000 1.0000
49.4200 753.0000 1.0000
49.4300 764.0000 1.0000
49.4400 810.0000 1.0000
49.4500 801.0000 1.0000
49.4600 725.0000 1.0000
49.4700 768.0000 1.0000
49.4800 764.0000 1.0000
49.4900 719.0000 1.0000
49.5000 770.0000 1.0000
49.5100 732.0000 1.0000
49.5200 775.0000 1.0000
49.5300 777.0000 1.0000
49.5400 764.0000 1.0000
49.5500 737.0000 1.0000
49.5600 773.0000 1.0000
49.5700 771.0000 1.0000
49.5800 799.0000 1.0000
49.5900 778.0000 1.0000
49.6000 781.0000 1.0000
49.6100 753.0000 1.0000
49.6200 747.0000 1.0000
49.6300 791.0000 1.0000
49.6400 815.0000 1.0000
49.6500 734.0000 1.0000
49.6600 753.0000 1.0000
49.6700 730.0000 1.0000
49.6800 722.0000 1.0000
49.6900 743.0000 1.0000
49.7000 738.0000 1.0000
49.7100 779.0000 1.0000
49.7200 795.0000 1.0000
49.7300 773.0000 1.0000
49.7400 812.0000 1.0000
49.7500 791.0000 1.0000
49.7600 803.0000 1.0000
49.7700 791.0000 1.0000
49.7800 810.0000 1.0000
49.7900 763.0000 1.0000
49.8000 791.0000 1.0000
49.8100 747.0000 1.0000
49.8200 788.0000 1.0000
49.8300 811.0000 1.0000
49.8400 765.0000 1.0000
49.8500 781.0000 1.0000
49.8600 809.0000 1.0000
49.8700 742.0000 1.0000
49.8800 738.0000 1.0000
49.8900 763.0000 1.0000
49.9000 758.0000 1.0000
49.9100 822.0000 1.0000
49.9200 776.0000 1.0000
49.9300 800.0000 1.0000
49.9400 763.0000 1.0000
49.9500 800.0000 1.0000
49.9600 736.0000 1.0000
49.9700 772.0000 1.0000
49.9800 790.0000 1.0000
49.9900 751.0000 1.0000
50.0000 790.0000 1.0000
50.0100 802.0000 1.0000
50.0200 763.0000 1.0000
50.0300 823.0000 1.0000
50.0400 797.0000 1.0000
50.0500 820.0000 1.0000
50.0600 763.0000 1.0000
50.0700 783.0000 1.0000
50.0800 797.0000 1.0000
50.0900 853.0000 1.0000
50.1000 814.0000 1.0000
50.1100 807.0000 1.0000
50.1200 796.0000 1.0000
50.1300 870.0000 1.0000
50.1400 859.0000 1.0000
50.1500 860.0000 1.0000
50.1600 861.0000 1.0000
50.1700 832.0000 1.0000
50.1800 846.0000 1.0000
50.1900 816.0000 1.0000
50.2000 829.0000 1.0000
50.2100 860.0000 1.0000
50.2200 822.0000 1.0000
50.2300 823.0000 1.0000
50.2400 835.0000 1.0000
50.2500 837.0000 1.0000
50.2600 810.0000 1.0000
50.2700 824.0000 1.0000
50.2800 809.0000 1.0000
50.2900 858.0000 1.0000
50.3000 831.0000 1.0000
50.3100 833.0000 1.0000
50.3200 821.0000 1.0000
50.3300 808.0000 1.0000
50.3400 765.0000 1.0000
50.3500 795.0000 1.0000
50.3600 773.0000 1.0000
50.3700 846.0000 1.0000
50.3800 826.0000 1.0000
50.3900 827.0000 1.0000
50.4000 830.0000 1.0000
50.4100 821.0000 1.0000
50.4200 778.0000 1.0000
50.4300 798.0000 1.0000
50.4400 803.0000 1.0000
50.4500 797.0000 1.0000
50.4600 803.0000 1.0000
50.4700 785.0000 1.0000
50.4800 807.0000 1.0000
50.4900 750.0000 1.0000
50.5000 801.0000 1.0000
50.5100 798.0000 1.0000
50.5200 733.0000 1.0000
50.5300 762.0000 1.0000
50.5400 779.0000 1.0000
50.5500 734.0000 1.0000
50.5600 790.0000 1.0000
50.5700 801.0000 1.0000
50.5800 773.0000 1.0000
50.5900 793.0000 1.0000
50.6000 792.0000 1.0000
50.6100 768.0000 1.0000
50.6200 807.0000 1.0000
50.6300 765.0000 1.0000
50.6400 827.0000 1.0000
50.6500 774.0000 1.0000
50.6600 758.0000 1.0000
50.6700 791.0000 1.0000
50.6800 804.0000 1.0000
50.6900 756.0000 1.0000
50.7000 794.0000 1.0000
50.7100 788.0000 1.0000
50.7200 793.0000 1.0000
50.7300 796.0000 1.0000
50.7400 787.0000 1.0000
50.7500 792.0000 1.0000
50.7600 807.0000 1.0000
50.7700 786.0000 1.0000
50.7800 785.0000 1.0000
50.7900 798.0000 1.0000
50.8000 789.0000 1.0000
50.8100 788.0000 1.0000
50.8200 827.0000 1.0000
50.8300 784.0000 1.0000
50.8400 791.0000 1.0000
50.8500 793.0000 1.0000
50.8600 788.0000 1.0000
50.8700 782.0000 1.0000
50.8800 784.0000 1.0000
50.8900 759.0000 1.0000
50.9000 751.0000 1.0000
50.9100 794.0000 1.0000
50.9200 813.0000 1.0000
50.9300 821.0000 1.0000
50.9400 797.0000 1.0000
50.9500 797.0000 1.0000
50.9600 785.0000 1.0000
50.9700 811.0000 1.0000
50.9800 789.0000 1.0000
50.9900 828.0000 1.0000
51.0000 831.0000 1.0000
51.0100 768.0000 1.0000
51.0200 833.0000 1.0000
51.0300 827.0000 1.0000
51.0400 780.0000 1.0000
51.0500 772.0000 1.0000
51.0600 787.0000 1.0000
51.0700 784.0000 1.0000
51.0800 778.0000 1.0000
51.0900 822.0000 1.0000
51.1000 763.0000 1.0000
51.1100 795.0000 1.0000
51.1200 817.0000 1.0000
51.1300 784.0000 1.0000
51.1400 799.0000 1.0000
51.1500 757.0000 1.0000
51.1600 809.0000 1.0000
51.1700 842.0000 1.0000
51.1800 820.0000 1.0000
51.1900 844.0000 1.0000
51.2000 832.0000 1.0000
51.2100 767.0000 1.0000
51.2200 765.0000 1.0000
51.2300 791.0000 1.0000
51.2400 807.0000 1.0000
51.2500 795.0000 1.0000
51.2600 738.0000 1.0000
51.2700 783.0000 1.0000
51.2800 754.0000 1.0000
51.2900 789.0000 1.0000
51.3000 800.0000 1.0000
51.3100 804.0000 1.0000
51.3200 785.0000 1.0000
51.3300 839.0000 1.0000
51.3400 790.0000 1.0000
51.3500 793.0000 1.0000
51.3600 793.0000 1.0000
51.3700 760.0000 1.0000
51.3800 807.0000 1.0000
51.3900 756.0000 1.0000
51.4000 816.0000 1.0000
51.4100 835.0000 1.0000
51.4200 849.0000 1.0000
51.4300 873.0000 1.0000
51.4400 817.0000 1.0000
51.4500 785.0000 1.0000
51.4600 811.0000 1.0000
51.4700 828.0000 1.0000
51.4800 789.0000 1.0000
51.4900 788.0000 1.0000
51.5000 796.0000 1.0000
51.5100 800.0000 1.0000
51.5200 807.0000 1.0000
51.5300 817.0000 1.0000
51.5400 822.0000 1.0000
51.5500 856.0000 1.0000
51.5600 814.0000 1.0000
51.5700 812.0000 1.0000
51.5800 799.0000 1.0000
51.5900 830.0000 1.0000
51.6000 780.0000 1.0000
51.6100 838.0000 1.0000
51.6200 818.0000 1.0000
51.6300 869.0000 1.0000
51.6400 837.0000 1.0000
51.6500 810.0000 1.0000
51.6600 846.0000 1.0000
51.6700 857.0000 1.0000
51.6800 858.0000 1.0000
51.6900 836.0000 1.0000
51.7000 830.0000 1.0000
51.7100 821.0000 1.0000
51.7200 869.0000 1.0000
51.7300 848.0000 1.0000
51.7400 855.0000 1.0000
51.7500 843.0000 1.0000
51.7600 865.0000 1.0000
51.7700 825.0000 1.0000
51.7800 885.0000 1.0000
51.7900 915.0000 1.0000
51.8000 906.0000 1.0000
51.8100 936.0000 1.0000
51.8200 961.0000 1.0000
51.8300 966.0000 1.0000
51.8400 905.0000 1.0000
51.8500 889.0000 1.0000
51.8600 968.0000 1.0000
51.8700 984.0000 1.0000
51.8800 955.0000 1.0000
51.8900 1055.0000 1.0000
51.9000 1048.0000 1.0000
51.9100 1056.0000 1.0000
51.9200 1097.0000 1.0000
51.9300 1147.0000 1.0000
51.9400 1082.0000 1.0000
51.9500 1177.0000 1.0000
51.9600 1176.0000 1.0000
51.9700 1189.0000 1.0000
51.9800 1234.0000 1.0000
51.9900 1328.0000 1.0000
52.0000 1340.0000 1.0000
52.0100 1371.0000 1.0000
52.0200 1463.0000 1.0000
52.0300 1519.0000 1.0000
52.0400 1562.0000 1.0000
52.0500 1675.0000 1.0000
52.0600 1729.0000 1.0000
52.0700 1897.0000 1.0000
52.0800 1935.0000 1.0000
52.0900 2141.0000 1.0000
52.1000 2259.0000 1.0000
52.1100 2459.0000 1.0000
52.1200 2552.0000 1.0000
52.1300 2768.0000 1.0000
52.1400 3052.0000 1.0000
52.1500 3378.0000 1.0000
52.1600 3625.0000 1.0000
52.1700 3999.0000 1.0000
52.1800 4352.0000 1.0000
52.1900 4530.0000 1.0000
52.2000 4920.0000 1.0000
52.2100 5237.0000 1.0000
52.2200 5543.0000 1.0000
52.2300 5590.0000 1.0000
52.2400 5822.0000 1.0000
52.2500 5926.0000 1.0000
52.2600 5875.0000 1.0000
52.2700 5550.0000 1.0000
52.2800 5634.0000 1.0000
52.2900 5565.0000 1.0000
52.3000 5298.0000 1.0000
52.3100 5082.0000 1.0000
52.3200 5105.0000 1.0000
52.3300 4908.0000 1.0000
52.3400 4661.0000 1.0000
52.3500 4620.0000 1.0000
52.3600 4543.0000 1.0000
52.3700 4397.0000 1.0000
52.3800 4308.0000 1.0000
52.3900 4102.0000 1.0000
52.4000 4015.0000 1.0000
52.4100 3856.0000 1.0000
52.4200 3524.0000 1.0000
52.4300 3301.0000 1.0000
52.4400 3064.0000 1.0000
52.4500 2887.0000 1.0000
52.4600 2712.0000 1.0000
52.4700 2483.0000 1.0000
52.4800 2326.0000 1.0000
52.4900 2109.0000 1.0000
52.5000 1971.0000 1.0000
52.5100 1840.0000 1.0000
52.5200 1865.0000 1.0000
52.5300 1712.0000 1.0000
52.5400 1571.0000 1.0000
52.5500 1550.0000 1.0000
52.5600 1566.0000 1.0000
52.5700 1446.0000 1.0000
52.5800 1381.0000 1.0000
52.5900 1366.0000 1.0000
52.6000 1260.0000 1.0000
52.6100 1174.0000 1.0000
52.6200 1240.0000 1.0000
52.6300 1247.0000 1.0000
52.6400 1158.0000 1.0000
52.6500 1082.0000 1.0000
52.6600 1090.0000 1.0000
52.6700 1104.0000 1.0000
52.6800 1074.0000 1.0000
52.6900 1017.0000 1.0000
52.7000 1007.0000 1.0000
52.7100 1032.0000 1.0000
52.7200 1015.0000 1.0000
52.7300 1004.0000 1.0000
52.7400 978.0000 1.0000
52.7500 939.0000 1.0000
52.7600 964.0000 1.0000
52.7700 944.0000 1.0000
52.7800 931.0000 1.0000
52.7900 956.0000 1.0000
52.8000 949.0000 1.0000
52.8100 925.0000 1.0000
52.8200 896.0000 1.0000
52.8300 864.0000 1.0000
52.8400 899.0000 1.0000
52.8500 909.0000 1.0000
52.8600 862.0000 1.0000
52.8700 899.0000 1.0000
52.8800 882.0000 1.0000
52.8900 896.0000 1.0000
52.9000 916.0000 1.0000
52.9100 868.0000 1.0000
52.9200 866.0000 1.0000
52.9300 891.0000 1.0000
52.9400 867.0000 1.0000
52.9500 877.0000 1.0000
52.9600 888.0000 1.0000
52.9700 856.0000 1.0000
52.9800 881.0000 1.0000
52.9900 909.0000 1.0000
53.0000 808.0000 1.0000
53.0100 890.0000 1.0000
53.0200 853.0000 1.0000
53.0300 846.0000 1.0000
53.0400 852.0000 1.0000
53.0500 847.0000 1.0000
53.0600 871.0000 1.0000
53.0700 843.0000 1.0000
53.0800 844.0000 1.0000
53.0900 857.0000 1.0000
53.1000 854.0000 1.0000
53.1100 807.0000 1.0000
53.1200 788.0000 1.0000
53.1300 815.0000 1.0000
53.1400 782.0000 1.0000
53.1500 839.0000 1.0000
53.1600 873.0000 1.0000
53.1700 828.0000 1.0000
53.1800 852.0000 1.0000
53.1900 830.0000 1.0000
53.2000 849.0000 1.0000
53.2100 810.0000 1.0000
53.2200 839.0000 1.0000
53.2300 808.0000 1.0000
53.2400 817.0000 1.0000
53.2500 832.0000 1.0000
53.2600 782.0000 1.0000
53.2700 766.0000 1.0000
53.2800 822.0000 1.0000
53.2900 808.0000 1.0000
53.3000 781.0000 1.0000
53.3100 770.0000 1.0000
53.3200 786.0000 1.0000
53.3300 775.0000 1.0000
53.3400 733.0000 1.0000
53.3500 801.0000 1.0000
53.3600 781.0000 1.0000
53.3700 800.0000 1.0000
53.3800 798.0000 1.0000
53.3900 789.0000 1.0000
53.4000 800.0000 1.0000
53.4100 790.0000 1.0000
53.4200 787.0000 1.0000
53.4300 765.0000 1.0000
53.4400 759.0000 1.0000
53.4500 797.0000 1.0000
53.4600 766.0000 1.0000
53.4700 793.0000 1.0000
53.4800 825.0000 1.0000
53.4900 762.0000 1.0000
53.5000 746.0000 1.0000
53.5100 801.0000 1.0000
53.5200 799.0000 1.0000
53.5300 763.0000 1.0000
53.5400 781.0000 1.0000
53.5500 780.0000 1.0000
53.5600 792.0000 1.0000
53.5700 786.0000 1.0000
53.5800 767.0000 1.0000
53.5900 797.0000 1.0000
53.6000 822.0000 1.0000
53.6100 805.0000 1.0000
53.6200 733.0000 1.0000
53.6300 713.0000 1.0000
53.6400 746.0000 1.0000
53.6500 768.0000 1.0000
53.6600 756.0000 1.0000
53.6700 772.0000 1.0000
53.6800 775.0000 1.0000
53.6900 752.0000 1.0000
53.7000 783.0000 1.0000
53.7100 761.0000 1.0000
53.7200 762.0000 1.0000
53.7300 785.0000 1.0000
53.7400 813.0000 1.0000
53.7500 763.0000 1.0000
53.7600 777.0000 1.0000
53.7700 787.0000 1.0000
53.7800 772.0000 1.0000
53.7900 765.0000 1.0000
53.8000 768.0000 1.0000
53.8100 765.0000 1.0000
53.8200 767.0000 1.0000
53.8300 766.0000 1.0000
53.8400 744.0000 1.0000
53.8500 782.0000 1.0000
53.8600 752.0000 1.0000
53.8700 802.0000 1.0000
53.8800 817.0000 1.0000
53.8900 763.0000 1.0000
53.9000 743.0000 1.0000
53.9100 718.0000 1.0000
53.9200 744.0000 1.0000
53.9300 728.0000 1.0000
53.9400 749.0000 1.0000
53.9500 724.0000 1.0000
53.9600 754.0000 1.0000
53.9700 735.0000 1.0000
53.9800 773.0000 1.0000
53.9900 762.0000 1.0000
54.0000 779.0000 1.0000
54.0100 763.0000 1.0000
54.0200 776.0000 1.0000
54.0300 708.0000 1.0000
54.0400 766.0000 1.0000
54.0500 764.0000 1.0000
54.0600 786.0000 1.0000
54.0700 778.0000 1.0000
54.0800 748.0000 1.0000
54.0900 776.0000 1.0000
54.1000 813.0000 1.0000
54.1100 775.0000 1.0000
54.1200 759.0000 1.0000
54.1300 784.0000 1.0000
54.1400 743.0000 1.0000
54.1500 775.0000 1.0000
54.1600 783.0000 1.0000
54.1700 744.0000 1.0000
54.1800 794.0000 1.0000
54.1900 734.0000 1.0000
54.2000 772.0000 1.0000
54.2100 766.0000 1.0000
54.2200 747.0000 1.0000
54.2300 791.0000 1.0000
54.2400 739.0000 1.0000
54.2500 752.0000 1.0000
54.2600 732.0000 1.0000
54.2700 722.0000 1.0000
54.2800 775.0000 1.0000
54.2900 744.0000 1.0000
54.3000 775.0000 1.0000
54.3100 822.0000 1.0000
54.3200 730.0000 1.0000
54.3300 716.0000 1.0000
54.3400 766.0000 1.0000
54.3500 787.0000 1.0000
54.3600 740.0000 1.0000
54.3700 795.0000 1.0000
54.3800 794.0000 1.0000
54.3900 767.0000 1.0000
54.4000 779.0000 1.0000
54.4100 738.0000 1.0000
54.4200 773.0000 1.0000
54.4300 767.0000 1.0000
54.4400 752.0000 1.0000
54.4500 799.0000 1.0000
54.4600 765.0000 1.0000
54.4700 753.0000 1.0000
54.4800 793.0000 1.0000
54.4900 782.0000 1.0000
54.5000 765.0000 1.0000
54.5100 762.0000 1.0000
54.5200 818.0000 1.0000
54.5300 781.0000 1.0000
54.5400 761.0000 1.0000
54.5500 791.0000 1.0000
54.5600 762.0000 1.0000
54.5700 793.0000 1.0000
54.5800 782.0000 1.0000
54.5900 746.0000 1.0000
54.6000 767.0000 1.0000
54.6100 772.0000 1.0000
54.6200 764.0000 1.0000
54.6300 784.0000 1.0000
54.6400 778.0000 1.0000
54.6500 834.0000 1.0000
54.6600 764.0000 1.0000
54.6700 794.0000 1.0000
54.6800 810.0000 1.0000
54.6900 799.0000 1.0000
54.7000 840.0000 1.0000
54.7100 827.0000 1.0000
54.7200 811.0000 1.0000
54.7300 803.0000 1.0000
54.7400 841.0000 1.0000
54.7500 845.0000 1.0000
54.7600 867.0000 1.0000
54.7700 798.0000 1.0000
54.7800 861.0000 1.0000
54.7900 838.0000 1.0000
54.8000 806.0000 1.0000
54.8100 836.0000 1.0000
54.8200 842.0000 1.0000
54.8300 842.0000 1.0000
54.8400 834.0000 1.0000
54.8500 849.0000 1.0000
54.8600 837.0000 1.0000
54.8700 832.0000 1.0000
54.8800 830.0000 1.0000
54.8900 814.0000 1.0000
54.9000 878.0000 1.0000
54.9100 854.0000 1.0000
54.9200 827.0000 1.0000
54.9300 800.0000 1.0000
54.9400 863.0000 1.0000
54.9500 840.0000 1.0000
54.9600 809.0000 1.0000
54.9700 849.0000 1.0000
54.9800 846.0000 1.0000
54.9900 919.0000 1.0000
55.0000 874.0000 1.0000
55.0100 845.0000 1.0000
55.0200 815.0000 1.0000
55.0300 857.0000 1.0000
55.0400 900.0000 1.0000
55.0500 850.0000 1.0000
55.0600 827.0000 1.0000
55.0700 890.0000 1.0000
55.0800 886.0000 1.0000
55.0900 891.0000 1.0000
55.1000 961.0000 1.0000
55.1100 965.0000 1.0000
55.1200 936.0000 1.0000
55.1300 918.0000 1.0000
55.1400 990.0000 1.0000
55.1500 997.0000 1.0000
55.1600 999.0000 1.0000
55.1700 1063.0000 1.0000
55.1800 1099.0000 1.0000
55.1900 1117.0000 1.0000
55.2000 998.0000 1.0000
55.2100 1201.0000 1.0000
55.2200 1185.0000 1.0000
55.2300 1154.0000 1.0000
55.2400 1125.0000 1.0000
55.2500 1137.0000 1.0000
55.2600 1148.0000 1.0000
55.2700 1186.0000 1.0000
55.2800 1131.0000 1.0000
55.2900 1176.0000 1.0000
55.3000 1127.0000 1.0000
55.3100 1140.0000 1.0000
55.3200 1130.0000 1.0000
55.3300 1166.0000 1.0000
55.3400 1160.0000 1.0000
55.3500 1129.0000 1.0000
55.3600 1066.0000 1.0000
55.3700 1129.0000 1.0000
55.3800 1110.0000 1.0000
55.3900 1097.0000 1.0000
55.4000 1176.0000 1.0000
55.4100 1074.0000 1.0000
55.4200 1022.0000 1.0000
55.4300 1014.0000 1.0000
55.4400 1011.0000 1.0000
55.4500 1012.0000 1.0000
55.4600 935.0000 1.0000
55.4700 1014.0000 1.0000
55.4800 977.0000 1.0000
55.4900 917.0000 1.0000
55.5000 940.0000 1.0000
55.5100 938.0000 1.0000
55.5200 925.0000 1.0000
55.5300 907.0000 1.0000
55.5400 895.0000 1.0000
55.5500 878.0000 1.0000
55.5600 908.0000 1.0000
55.5700 845.0000 1.0000
55.5800 838.0000 1.0000
55.5900 882.0000 1.0000
55.6000 857.0000 1.0000
55.6100 813.0000 1.0000
55.6200 820.0000 1.0000
55.6300 796.0000 1.0000
55.6400 811.0000 1.0000
55.6500 810.0000 1.0000
55.6600 853.0000 1.0000
55.6700 863.0000 1.0000
55.6800 777.0000 1.0000
55.6900 745.0000 1.0000
55.7000 793.0000 1.0000
55.7100 787.0000 1.0000
55.7200 787.0000 1.0000
55.7300 786.0000 1.0000
55.7400 809.0000 1.0000
55.7500 799.0000 1.0000
55.7600 766.0000 1.0000
55.7700 744.0000 1.0000
55.7800 779.0000 1.0000
55.7900 787.0000 1.0000
55.8000 783.0000 1.0000
55.8100 761.0000 1.0000
55.8200 721.0000 1.0000
55.8300 800.0000 1.0000
55.8400 786.0000 1.0000
55.8500 822.0000 1.0000
55.8600 779.0000 1.0000
55.8700 696.0000 1.0000
55.8800 709.0000 1.0000
55.8900 784.0000 1.0000
55.9000 774.0000 1.0000
55.9100 756.0000 1.0000
55.9200 786.0000 1.0000
55.9300 758.0000 1.0000
55.9400 744.0000 1.0000
55.9500 738.0000 1.0000
55.9600 768.0000 1.0000
55.9700 742.0000 1.0000
55.9800 757.0000 1.0000
55.9900 771.0000 1.0000
56.0000 743.0000 1.0000
56.0100 800.0000 1.0000
56.0200 774.0000 1.0000
56.0300 770.0000 1.0000
56.0400 792.0000 1.0000
56.0500 732.0000 1.0000
56.0600 757.0000 1.0000
56.0700 747.0000 1.0000
56.0800 720.0000 1.0000
56.0900 762.0000 1.0000
56.1000 756.0000 1.0000
56.1100 751.0000 1.0000
56.1200 745.0000 1.0000
56.1300 733.0000 1.0000
56.1400 748.0000 1.0000
56.1500 744.0000 1.0000
56.1600 752.0000 1.0000
56.1700 736.0000 1.0000
56.1800 724.0000 1.0000
56.1900 772.0000 1.0000
56.2000 703.0000 1.0000
56.2100 744.0000 1.0000
56.2200 745.0000 1.0000
56.2300 725.0000 1.0000
56.2400 738.0000 1.0000
56.2500 739.0000 1.0000
56.2600 765.0000 1.0000
56.2700 777.0000 1.0000
56.2800 761.0000 1.0000
56.2900 702.0000 1.0000
56.3000 782.0000 1.0000
56.3100 691.0000 1.0000
56.3200 701.0000 1.0000
56.3300 780.0000 1.0000
56.3400 754.0000 1.0000
56.3500 776.0000 1.0000
56.3600 758.0000 1.0000
56.3700 784.0000 1.0000
56.3800 759.0000 1.0000
56.3900 770.0000 1.0000
56.4000 739.0000 1.0000
56.4100 737.0000 1.0000
56.4200 705.0000 1.0000
56.4300 722.0000 1.0000
56.4400 716.0000 1.0000
56.4500 709.0000 1.0000
56.4600 755.0000 1.0000
56.4700 760.0000 1.0000
56.4800 753.0000 1.0000
56.4900 728.0000 1.0000
56.5000 741.0000 1.0000
56.5100 755.0000 1.0000
56.5200 752.0000 1.0000
56.5300 778.0000 1.0000
56.5400 714.0000 1.0000
56.5500 758.0000 1.0000
56.5600 741.0000 1.0000
56.5700 728.0000 1.0000
56.5800 782.0000 1.0000
56.5900 739.0000 1.0000
56.6000 735.0000 1.0000
56.6100 744.0000 1.0000
56.6200 726.0000 1.0000
56.6300 726.0000 1.0000
56.6400 710.0000 1.0000
56.6500 713.0000 1.0000
56.6600 712.0000 1.0000
56.6700 706.0000 1.0000
56.6800 676.0000 1.0000
56.6900 748.0000 1.0000
56.7000 752.0000 1.0000
56.7100 741.0000 1.0000
56.7200 757.0000 1.0000
56.7300 679.0000 1.0000
56.7400 758.0000 1.0000
56.7500 729.0000 1.0000
56.7600 733.0000 1.0000
56.7700 762.0000 1.0000
56.7800 711.0000 1.0000
56.7900 714.0000 1.0000
56.8000 756.0000 1.0000
56.8100 767.0000 1.0000
56.8200 760.0000 1.0000
56.8300 739.0000 1.0000
56.8400 761.0000 1.0000
56.8500 745.0000 1.0000
56.8600 755.0000 1.0000
56.8700 722.0000 1.0000
56.8800 722.0000 1.0000
56.8900 737.0000 1.0000
56.9000 774.0000 1.0000
56.9100 753.0000 1.0000
56.9200 730.0000 1.0000
56.9300 730.0000 1.0000
56.9400 741.0000 1.0000
56.9500 746.0000 1.0000
56.9600 724.0000 1.0000
56.9700 688.0000 1.0000
56.9800 708.0000 1.0000
56.9900 706.0000 1.0000
57.0000 734.0000 1.0000
57.0100 733.0000 1.0000
57.0200 771.0000 1.0000
57.0300 741.0000 1.0000
57.0400 739.0000 1.0000
57.0500 726.0000 1.0000
57.0600 731.0000 1.0000
57.0700 729.0000 1.0000
57.0800 764.0000 1.0000
57.0900 796.0000 1.0000
57.1000 723.0000 1.0000
57.1100 734.0000 1.0000
57.1200 729.0000 1.0000
57.1300 735.0000 1.0000
57.1400 766.0000 1.0000
57.1500 692.0000 1.0000
57.1600 710.0000 1.0000
57.1700 717.0000 1.0000
57.1800 743.0000 1.0000
57.1900 719.0000 1.0000
57.2000 733.0000 1.0000
57.2100 742.0000 1.0000
57.2200 714.0000 1.0000
57.2300 745.0000 1.0000
57.2400 767.0000 1.0000
57.2500 747.0000 1.0000
57.2600 758.0000 1.0000
57.2700 743.0000 1.0000
57.2800 700.0000 1.0000
57.2900 766.0000 1.0000
57.3000 738.0000 1.0000
57.3100 727.0000 1.0000
57.3200 775.0000 1.0000
57.3300 728.0000 1.0000
57.3400 748.0000 1.0000
57.3500 746.0000 1.0000
57.3600 723.0000 1.0000
57.3700 714.0000 1.0000
57.3800 744.0000 1.0000
57.3900 786.0000 1.0000
57.4000 666.0000 1.0000
57.4100 738.0000 1.0000
57.4200 742.0000 1.0000
57.4300 763.0000 1.0000
57.4400 733.0000 1.0000
57.4500 738.0000 1.0000
57.4600 775.0000 1.0000
57.4700 775.0000 1.0000
57.4800 738.0000 1.0000
57.4900 729.0000 1.0000
57.5000 717.0000 1.0000
57.5100 712.0000 1.0000
57.5200 718.0000 1.0000
57.5300 710.0000 1.0000
57.5400 728.0000 1.0000
57.5500 753.0000 1.0000
57.5600 756.0000 1.0000
57.5700 726.0000 1.0000
57.5800 718.0000 1.0000
57.5900 721.0000 1.0000
57.6000 774.0000 1.0000
57.6100 759.0000 1.0000
57.6200 761.0000 1.0000
57.6300 778.0000 1.0000
57.6400 745.0000 1.0000
57.6500 776.0000 1.0000
57.6600 755.0000 1.0000
57.6700 772.0000 1.0000
57.6800 742.0000 1.0000
57.6900 746.0000 1.0000
57.7000 682.0000 1.0000
57.7100 729.0000 1.0000
57.7200 748.0000 1.0000
57.7300 782.0000 1.0000
57.7400 723.0000 1.0000
57.7500 734.0000 1.0000
57.7600 675.0000 1.0000
57.7700 745.0000 1.0000
57.7800 707.0000 1.0000
57.7900 745.0000 1.0000
57.8000 710.0000 1.0000
57.8100 733.0000 1.0000
57.8200 741.0000 1.0000
57.8300 735.0000 1.0000
57.8400 714.0000 1.0000
57.8500 741.0000 1.0000
57.8600 781.0000 1.0000
57.8700 806.0000 1.0000
57.8800 731.0000 1.0000
57.8900 740.0000 1.0000
57.9000 737.0000 1.0000
57.9100 751.0000 1.0000
57.9200 742.0000 1.0000
57.9300 728.0000 1.0000
57.9400 703.0000 1.0000
57.9500 703.0000 1.0000
57.9600 776.0000 1.0000
57.9700 722.0000 1.0000
57.9800 718.0000 1.0000
57.9900 715.0000 1.0000
58.0000 744.0000 1.0000
58.0100 701.0000 1.0000
58.0200 685.0000 1.0000
58.0300 708.0000 1.0000
58.0400 743.0000 1.0000
58.0500 786.0000 1.0000
58.0600 775.0000 1.0000
58.0700 760.0000 1.0000
58.0800 743.0000 1.0000
58.0900 767.0000 1.0000
58.1000 783.0000 1.0000
58.1100 782.0000 1.0000
58.1200 739.0000 1.0000
58.1300 743.0000 1.0000
58.1400 803.0000 1.0000
58.1500 779.0000 1.0000
58.1600 721.0000 1.0000
58.1700 705.0000 1.0000
58.1800 728.0000 1.0000
58.1900 772.0000 1.0000
58.2000 795.0000 1.0000
58.2100 788.0000 1.0000
58.2200 794.0000 1.0000
58.2300 751.0000 1.0000
58.2400 758.0000 1.0000
58.2500 758.0000 1.0000
58.2600 760.0000 1.0000
58.2700 757.0000 1.0000
58.2800 731.0000 1.0000
58.2900 732.0000 1.0000
58.3000 773.0000 1.0000
58.3100 745.0000 1.0000
58.3200 762.0000 1.0000
58.3300 743.0000 1.0000
58.3400 758.0000 1.0000
58.3500 718.0000 1.0000
58.3600 728.0000 1.0000
58.3700 715.0000 1.0000
58.3800 803.0000 1.0000
58.3900 747.0000 1.0000
58.4000 733.0000 1.0000
58.4100 710.0000 1.0000
58.4200 739.0000 1.0000
58.4300 726.0000 1.0000
58.4400 765.0000 1.0000
58.4500 722.0000 1.0000
58.4600 764.0000 1.0000
58.4700 730.0000 1.0000
58.4800 728.0000 1.0000
58.4900 710.0000 1.0000
58.5000 736.0000 1.0000
58.5100 741.0000 1.0000
58.5200 737.0000 1.0000
58.5300 716.0000 1.0000
58.5400 734.0000 1.0000
58.5500 720.0000 1.0000
58.5600 701.0000 1.0000
58.5700 754.0000 1.0000
58.5800 756.0000 1.0000
58.5900 734.0000 1.0000
58.6000 747.0000 1.0000
58.6100 707.0000 1.0000
58.6200 694.0000 1.0000
58.6300 689.0000 1.0000
58.6400 742.0000 1.0000
58.6500 744.0000 1.0000
58.6600 780.0000 1.0000
58.6700 694.0000 1.0000
58.6800 733.0000 1.0000
58.6900 721.0000 1.0000
58.7000 682.0000 1.0000
58.7100 722.0000 1.0000
58.7200 713.0000 1.0000
58.7300 745.0000 1.0000
58.7400 753.0000 1.0000
58.7500 723.0000 1.0000
58.7600 752.0000 1.0000
58.7700 741.0000 1.0000
58.7800 727.0000 1.0000
58.7900 750.0000 1.0000
58.8000 728.0000 1.0000
58.8100 715.0000 1.0000
58.8200 742.0000 1.0000
58.8300 747.0000 1.0000
58.8400 772.0000 1.0000
58.8500 726.0000 1.0000
58.8600 714.0000 1.0000
58.8700 749.0000 1.0000
58.8800 700.0000 1.0000
58.8900 706.0000 1.0000
58.9000 720.0000 1.0000
58.9100 747.0000 1.0000
58.9200 707.0000 1.0000
58.9300 724.0000 1.0000
58.9400 729.0000 1.0000
58.9500 744.0000 1.0000
58.9600 757.0000 1.0000
58.9700 720.0000 1.0000
58.9800 695.0000 1.0000
58.9900 726.0000 1.0000
59.0000 755.0000 1.0000
59.0100 730.0000 1.0000
59.0200 735.0000 1.0000
59.0300 740.0000 1.0000
59.0400 756.0000 1.0000
59.0500 735.0000 1.0000
59.0600 745.0000 1.0000
59.0700 741.0000 1.0000
59.0800 748.0000 1.0000
59.0900 731.0000 1.0000
59.1000 678.0000 1.0000
59.1100 741.0000 1.0000
59.1200 703.0000 1.0000
59.1300 736.0000 1.0000
59.1400 759.0000 1.0000
59.1500 780.0000 1.0000
59.1600 736.0000 1.0000
59.1700 783.0000 1.0000
59.1800 730.0000 1.0000
59.1900 738.0000 1.0000
59.2000 752.0000 1.0000
59.2100 757.0000 1.0000
59.2200 755.0000 1.0000
59.2300 789.0000 1.0000
59.2400 786.0000 1.0000
59.2500 760.0000 1.0000
59.2600 735.0000 1.0000
59.2700 769.0000 1.0000
59.2800 708.0000 1.0000
59.2900 736.0000 1.0000
59.3000 754.0000 1.0000
59.3100 744.0000 1.0000
59.3200 701.0000 1.0000
59.3300 724.0000 1.0000
59.3400 744.0000 1.0000
59.3500 735.0000 1.0000
59.3600 712.0000 1.0000
59.3700 685.0000 1.0000
59.3800 765.0000 1.0000
59.3900 733.0000 1.0000
59.4000 743.0000 1.0000
59.4100 732.0000 1.0000
59.4200 734.0000 1.0000
59.4300 747.0000 1.0000
59.4400 760.0000 1.0000
59.4500 733.0000 1.0000
59.4600 717.0000 1.0000
59.4700 706.0000 1.0000
59.4800 705.0000 1.0000
59.4900 721.0000 1.0000
59.5000 721.0000 1.0000
59.5100 742.0000 1.0000
59.5200 705.0000 1.0000
59.5300 727.0000 1.0000
59.5400 759.0000 1.0000
59.5500 700.0000 1.0000
59.5600 712.0000 1.0000
59.5700 749.0000 1.0000
59.5800 736.0000 1.0000
59.5900 714.0000 1.0000
59.6000 738.0000 1.0000
59.6100 721.0000 1.0000
59.6200 721.0000 1.0000
59.6300 685.0000 1.0000
59.6400 748.0000 1.0000
59.6500 757.0000 1.0000
59.6600 755.0000 1.0000
59.6700 743.0000 1.0000
59.6800 732.0000 1.0000
59.6900 691.0000 1.0000
59.7000 728.0000 1.0000
59.7100 713.0000 1.0000
59.7200 716.0000 1.0000
59.7300 737.0000 1.0000
59.7400 717.0000 1.0000
59.7500 698.0000 1.0000
59.7600 732.0000 1.0000
59.7700 718.0000 1.0000
59.7800 743.0000 1.0000
59.7900 713.0000 1.0000
59.8000 724.0000 1.0000
59.8100 767.0000 1.0000
59.8200 720.0000 1.0000
59.8300 781.0000 1.0000
59.8400 751.0000 1.0000
59.8500 719.0000 1.0000
59.8600 722.0000 1.0000
59.8700 752.0000 1.0000
59.8800 713.0000 1.0000
59.8900 693.0000 1.0000
59.9000 716.0000 1.0000
59.9100 744.0000 1.0000
59.9200 735.0000 1.0000
59.9300 737.0000 1.0000
59.9400 729.0000 1.0000
59.9500 729.0000 1.0000
59.9600 730.0000 1.0000
59.9700 763.0000 1.0000
59.9800 695.0000 1.0000
59.9900 709.0000 1.0000
60.0000 750.0000 1.0000
60.0100 747.0000 1.0000
60.0200 678.0000 1.0000
60.0300 720.0000 1.0000
60.0400 718.0000 1.0000
60.0500 716.0000 1.0000
60.0600 699.0000 1.0000
60.0700 723.0000 1.0000
60.0800 784.0000 1.0000
60.0900 719.0000 1.0000
60.1000 758.0000 1.0000
60.1100 733.0000 1.0000
60.1200 708.0000 1.0000
60.1300 737.0000 1.0000
60.1400 754.0000 1.0000
60.1500 776.0000 1.0000
60.1600 755.0000 1.0000
60.1700 733.0000 1.0000
60.1800 724.0000 1.0000
60.1900 731.0000 1.0000
60.2000 711.0000 1.0000
60.2100 787.0000 1.0000
60.2200 753.0000 1.0000
60.2300 742.0000 1.0000
60.2400 740.0000 1.0000
60.2500 683.0000 1.0000
60.2600 725.0000 1.0000
60.2700 740.0000 1.0000
60.2800 703.0000 1.0000
60.2900 750.0000 1.0000
60.3000 737.0000 1.0000
60.3100 772.0000 1.0000
60.3200 710.0000 1.0000
60.3300 721.0000 1.0000
60.3400 728.0000 1.0000
60.3500 740.0000 1.0000
60.3600 685.0000 1.0000
60.3700 707.0000 1.0000
60.3800 724.0000 1.0000
60.3900 727.0000 1.0000
60.4000 743.0000 1.0000
60.4100 734.0000 1.0000
60.4200 730.0000 1.0000
60.4300 738.0000 1.0000
60.4400 736.0000 1.0000
60.4500 748.0000 1.0000
60.4600 722.0000 1.0000
60.4700 731.0000 1.0000
60.4800 707.0000 1.0000
60.4900 762.0000 1.0000
60.5000 692.0000 1.0000
60.5100 719.0000 1.0000
60.5200 747.0000 1.0000
60.5300 741.0000 1.0000
60.5400 736.0000 1.0000
60.5500 737.0000 1.0000
60.5600 686.0000 1.0000
60.5700 751.0000 1.0000
60.5800 725.0000 1.0000
60.5900 669.0000 1.0000
60.6000 740.0000 1.0000
60.6100 745.0000 1.0000
60.6200 724.0000 1.0000
60.6300 717.0000 1.0000
60.6400 728.0000 1.0000
60.6500 657.0000 1.0000
60.6600 690.0000 1.0000
60.6700 702.0000 1.0000
60.6800 749.0000 1.0000
60.6900 744.0000 1.0000
60.7000 727.0000 1.0000
60.7100 722.0000 1.0000
60.7200 765.0000 1.0000
60.7300 725.0000 1.0000
60.7400 710.0000 1.0000
60.7500 698.0000 1.0000
60.7600 705.0000 1.0000
60.7700 675.0000 1.0000
60.7800 700.0000 1.0000
60.7900 740.0000 1.0000
60.8000 729.0000 1.0000
60.8100 690.0000 1.0000
60.8200 714.0000 1.0000
60.8300 746.0000 1.0000
60.8400 659.0000 1.0000
60.8500 698.0000 1.0000
60.8600 722.0000 1.0000
60.8700 780.0000 1.0000
60.8800 732.0000 1.0000
60.8900 717.0000 1.0000
60.9000 692.0000 1.0000
60.9100 731.0000 1.0000
60.9200 713.0000 1.0000
60.9300 743.0000 1.0000
60.9400 695.0000 1.0000
60.9500 726.0000 1.0000
60.9600 688.0000 1.0000
60.9700 707.0000 1.0000
60.9800 696.0000 1.0000
60.9900 745.0000 1.0000
61.0000 728.0000 1.0000
61.0100 764.0000 1.0000
61.0200 747.0000 1.0000
61.0300 724.0000 1.0000
61.0400 740.0000 1.0000
61.0500 719.0000 1.0000
61.0600 736.0000 1.0000
61.0700 721.0000 1.0000
61.0800 708.0000 1.0000
61.0900 662.0000 1.0000
61.1000 728.0000 1.0000
61.1100 724.0000 1.0000
61.1200 715.0000 1.0000
61.1300 710.0000 1.0000
61.1400 685.0000 1.0000
61.1500 690.0000 1.0000
61.1600 744.0000 1.0000
61.1700 729.0000 1.0000
61.1800 726.0000 1.0000
61.1900 711.0000 1.0000
61.2000 693.0000 1.0000
61.2100 718.0000 1.0000
61.2200 736.0000 1.0000
61.2300 723.0000 1.0000
61.2400 722.0000 1.0000
61.2500 769.0000 1.0000
61.2600 755.0000 1.0000
61.2700 746.0000 1.0000
61.2800 698.0000 1.0000
61.2900 751.0000 1.0000
61.3000 730.0000 1.0000
61.3100 744.0000 1.0000
61.3200 734.0000 1.0000
61.3300 718.0000 1.0000
61.3400 716.0000 1.0000
61.3500 729.0000 1.0000
61.3600 729.0000 1.0000
61.3700 755.0000 1.0000
61.3800 744.0000 1.0000
61.3900 771.0000 1.0000
61.4000 728.0000 1.0000
61.4100 714.0000 1.0000
61.4200 761.0000 1.0000
61.4300 775.0000 1.0000
61.4400 710.0000 1.0000
61.4500 751.0000 1.0000
61.4600 774.0000 1.0000
61.4700 748.0000 1.0000
61.4800 718.0000 1.0000
61.4900 771.0000 1.0000
61.5000 725.0000 1.0000
61.5100 697.0000 1.0000
61.5200 767.0000 1.0000
61.5300 743.0000 1.0000
61.5400 775.0000 1.0000
61.5500 717.0000 1.0000
61.5600 701.0000 1.0000
61.5700 742.0000 1.0000
61.5800 756.0000 1.0000
61.5900 748.0000 1.0000
61.6000 750.0000 1.0000
61.6100 743.0000 1.0000
61.6200 723.0000 1.0000
61.6300 727.0000 1.0000
61.6400 788.0000 1.0000
61.6500 762.0000 1.0000
61.6600 774.0000 1.0000
61.6700 743.0000 1.0000
61.6800 790.0000 1.0000
61.6900 782.0000 1.0000
61.7000 746.0000 1.0000
61.7100 764.0000 1.0000
61.7200 737.0000 1.0000
61.7300 757.0000 1.0000
61.7400 746.0000 1.0000
61.7500 775.0000 1.0000
61.7600 777.0000 1.0000
61.7700 782.0000 1.0000
61.7800 780.0000 1.0000
61.7900 740.0000 1.0000
61.8000 749.0000 1.0000
61.8100 793.0000 1.0000
61.8200 806.0000 1.0000
61.8300 791.0000 1.0000
61.8400 826.0000 1.0000
61.8500 828.0000 1.0000
61.8600 820.0000 1.0000
61.8700 829.0000 1.0000
61.8800 763.0000 1.0000
61.8900 806.0000 1.0000
61.9000 821.0000 1.0000
61.9100 855.0000 1.0000
61.9200 817.0000 1.0000
61.9300 843.0000 1.0000
61.9400 883.0000 1.0000
61.9500 853.0000 1.0000
61.9600 841.0000 1.0000
61.9700 937.0000 1.0000
61.9800 933.0000 1.0000
61.9900 942.0000 1.0000
62.0000 925.0000 1.0000
62.0100 961.0000 1.0000
62.0200 990.0000 1.0000
62.0300 1031.0000 1.0000
62.0400 1045.0000 1.0000
62.0500 1059.0000 1.0000
62.0600 1046.0000 1.0000
62.0700 1112.0000 1.0000
62.0800 1146.0000 1.0000
62.0900 1163.0000 1.0000
62.1000 1195.0000 1.0000
62.1100 1250.0000 1.0000
62.1200 1220.0000 1.0000
62.1300 1267.0000 1.0000
62.1400 1391.0000 1.0000
62.1500 1318.0000 1.0000
62.1600 1440.0000 1.0000
62.1700 1476.0000 1.0000
62.1800 1411.0000 1.0000
62.1900 1464.0000 1.0000
62.2000 1559.0000 1.0000
62.2100 1562.0000 1.0000
62.2200 1549.0000 1.0000
62.2300 1622.0000 1.0000
62.2400 1717.0000 1.0000
62.2500 1658.0000 1.0000
62.2600 1621.0000 1.0000
62.2700 1604.0000 1.0000
62.2800 1607.0000 1.0000
62.2900 1701.0000 1.0000
62.3000 1613.0000 1.0000
62.3100 1634.0000 1.0000
62.3200 1617.0000 1.0000
62.3300 1565.0000 1.0000
62.3400 1591.0000 1.0000
62.3500 1618.0000 1.0000
62.3600 1562.0000 1.0000
62.3700 1542.0000 1.0000
62.3800 1472.0000 1.0000
62.3900 1568.0000 1.0000
62.4000 1532.0000 1.0000
62.4100 1417.0000 1.0000
62.4200 1428.0000 1.0000
62.4300 1388.0000 1.0000
62.4400 1426.0000 1.0000
62.4500 1343.0000 1.0000
62.4600 1371.0000 1.0000
62.4700 1367.0000 1.0000
62.4800 1359.0000 1.0000
62.4900 1322.0000 1.0000
62.5000 1315.0000 1.0000
62.5100 1219.0000 1.0000
62.5200 1184.0000 1.0000
62.5300 1168.0000 1.0000
62.5400 1170.0000 1.0000
62.5500 1145.0000 1.0000
62.5600 1121.0000 1.0000
62.5700 1057.0000 1.0000
62.5800 1065.0000 1.0000
62.5900 1010.0000 1.0000
62.6000 966.0000 1.0000
62.6100 988.0000 1.0000
62.6200 1001.0000 1.0000
62.6300 1063.0000 1.0000
62.6400 995.0000 1.0000
62.6500 936.0000 1.0000
62.6600 984.0000 1.0000
62.6700 943.0000 1.0000
62.6800 879.0000 1.0000
62.6900 941.0000 1.0000
62.7000 924.0000 1.0000
62.7100 865.0000 1.0000
62.7200 826.0000 1.0000
62.7300 866.0000 1.0000
62.7400 841.0000 1.0000
62.7500 851.0000 1.0000
62.7600 807.0000 1.0000
62.7700 815.0000 1.0000
62.7800 819.0000 1.0000
62.7900 836.0000 1.0000
62.8000 851.0000 1.0000
62.8100 847.0000 1.0000
62.8200 829.0000 1.0000
62.8300 778.0000 1.0000
62.8400 774.0000 1.0000
62.8500 820.0000 1.0000
62.8600 809.0000 1.0000
62.8700 822.0000 1.0000
62.8800 798.0000 1.0000
62.8900 828.0000 1.0000
62.9000 816.0000 1.0000
62.9100 815.0000 1.0000
62.9200 794.0000 1.0000
62.9300 804.0000 1.0000
62.9400 791.0000 1.0000
62.9500 786.0000 1.0000
62.9600 842.0000 1.0000
62.9700 777.0000 1.0000
62.9800 819.0000 1.0000
62.9900 824.0000 1.0000
63.0000 792.0000 1.0000
63.0100 786.0000 1.0000
63.0200 849.0000 1.0000
63.0300 784.0000 1.0000
63.0400 803.0000 1.0000
63.0500 785.0000 1.0000
63.0600 784.0000 1.0000
63.0700 799.0000 1.0000
63.0800 817.0000 1.0000
63.0900 831.0000 1.0000
63.1000 813.0000 1.0000
63.1100 798.0000 1.0000
63.1200 793.0000 1.0000
63.1300 789.0000 1.0000
63.1400 789.0000 1.0000
63.1500 797.0000 1.0000
63.1600 739.0000 1.0000
63.1700 762.0000 1.0000
63.1800 805.0000 1.0000
63.1900 795.0000 1.0000
63.2000 804.0000 1.0000
63.2100 792.0000 1.0000
63.2200 777.0000 1.0000
63.2300 775.0000 1.0000
63.2400 800.0000 1.0000
63.2500 764.0000 1.0000
63.2600 766.0000 1.0000
63.2700 765.0000 1.0000
63.2800 764.0000 1.0000
63.2900 782.0000 1.0000
63.3000 763.0000 1.0000
63.3100 769.0000 1.0000
63.3200 788.0000 1.0000
63.3300 798.0000 1.0000
63.3400 778.0000 1.0000
63.3500 742.0000 1.0000
63.3600 753.0000 1.0000
63.3700 725.0000 1.0000
63.3800 768.0000 1.0000
63.3900 740.0000 1.0000
63.4000 715.0000 1.0000
63.4100 722.0000 1.0000
63.4200 752.0000 1.0000
63.4300 754.0000 1.0000
63.4400 783.0000 1.0000
63.4500 746.0000 1.0000
63.4600 783.0000 1.0000
63.4700 704.0000 1.0000
63.4800 724.0000 1.0000
63.4900 746.0000 1.0000
63.5000 753.0000 1.0000
63.5100 728.0000 1.0000
63.5200 720.0000 1.0000
63.5300 681.0000 1.0000
63.5400 755.0000 1.0000
63.5500 737.0000 1.0000
63.5600 722.0000 1.0000
63.5700 717.0000 1.0000
63.5800 759.0000 1.0000
63.5900 722.0000 1.0000
63.6000 742.0000 1.0000
63.6100 733.0000 1.0000
63.6200 718.0000 1.0000
63.6300 715.0000 1.0000
63.6400 747.0000 1.0000
63.6500 781.0000 1.0000
63.6600 705.0000 1.0000
63.6700 698.0000 1.0000
63.6800 757.0000 1.0000
63.6900 697.0000 1.0000
63.7000 707.0000 1.0000
63.7100 738.0000 1.0000
63.7200 739.0000 1.0000
63.7300 764.0000 1.0000
63.7400 690.0000 1.0000
63.7500 691.0000 1.0000
63.7600 715.0000 1.0000
63.7700 712.0000 1.0000
63.7800 762.0000 1.0000
63.7900 720.0000 1.0000
63.8000 739.0000 1.0000
63.8100 772.0000 1.0000
63.8200 730.0000 1.0000
63.8300 693.0000 1.0000
63.8400 712.0000 1.0000
63.8500 759.0000 1.0000
63.8600 778.0000 1.0000
63.8700 740.0000 1.0000
63.8800 747.0000 1.0000
63.8900 724.0000 1.0000
63.9000 755.0000 1.0000
63.9100 743.0000 1.0000
63.9200 712.0000 1.0000
63.9300 708.0000 1.0000
63.9400 759.0000 1.0000
63.9500 708.0000 1.0000
63.9600 751.0000 1.0000
63.9700 747.0000 1.0000
63.9800 729.0000 1.0000
63.9900 709.0000 1.0000
64.0000 730.0000 1.0000
64.0100 726.0000 1.0000
64.0200 745.0000 1.0000
64.0300 699.0000 1.0000
64.0400 750.0000 1.0000
64.0500 726.0000 1.0000
64.0600 769.0000 1.0000
64.0700 738.0000 1.0000
64.0800 722.0000 1.0000
64.0900 692.0000 1.0000
64.1000 735.0000 1.0000
64.1100 744.0000 1.0000
64.1200 758.0000 1.0000
64.1300 702.0000 1.0000
64.1400 759.0000 1.0000
64.1500 727.0000 1.0000
64.1600 741.0000 1.0000
64.1700 688.0000 1.0000
64.1800 715.0000 1.0000
64.1900 704.0000 1.0000
64.2000 751.0000 1.0000
64.2100 749.0000 1.0000
64.2200 734.0000 1.0000
64.2300 707.0000 1.0000
64.2400 726.0000 1.0000
64.2500 716.0000 1.0000
64.2600 752.0000 1.0000
64.2700 726.0000 1.0000
64.2800 722.0000 1.0000
64.2900 703.0000 1.0000
64.3000 715.0000 1.0000
64.3100 766.0000 1.0000
64.3200 764.0000 1.0000
64.3300 732.0000 1.0000
64.3400 756.0000 1.0000
64.3500 744.0000 1.0000
64.3600 714.0000 1.0000
64.3700 740.0000 1.0000
64.3800 767.0000 1.0000
64.3900 734.0000 1.0000
64.4000 729.0000 1.0000
64.4100 725.0000 1.0000
64.4200 744.0000 1.0000
64.4300 819.0000 1.0000
64.4400 800.0000 1.0000
64.4500 826.0000 1.0000
64.4600 782.0000 1.0000
64.4700 756.0000 1.0000
64.4800 765.0000 1.0000
64.4900 791.0000 1.0000
64.5000 764.0000 1.0000
64.5100 785.0000 1.0000
64.5200 803.0000 1.0000
64.5300 850.0000 1.0000
64.5400 851.0000 1.0000
64.5500 839.0000 1.0000
64.5600 844.0000 1.0000
64.5700 843.0000 1.0000
64.5800 902.0000 1.0000
64.5900 917.0000 1.0000
64.6000 960.0000 1.0000
64.6100 959.0000 1.0000
64.6200 963.0000 1.0000
64.6300 1011.0000 1.0000
64.6400 981.0000 1.0000
64.6500 1035.0000 1.0000
64.6600 1042.0000 1.0000
64.6700 1020.0000 1.0000
64.6800 963.0000 1.0000
64.6900 985.0000 1.0000
64.7000 960.0000 1.0000
64.7100 968.0000 1.0000
64.7200 1017.0000 1.0000
64.7300 959.0000 1.0000
64.7400 952.0000 1.0000
64.7500 916.0000 1.0000
64.7600 943.0000 1.0000
64.7700 888.0000 1.0000
64.7800 956.0000 1.0000
64.7900 972.0000 1.0000
64.8000 917.0000 1.0000
64.8100 909.0000 1.0000
64.8200 898.0000 1.0000
64.8300 889.0000 1.0000
64.8400 891.0000 1.0000
64.8500 888.0000 1.0000
64.8600 889.0000 1.0000
64.8700 898.0000 1.0000
64.8800 859.0000 1.0000
64.8900 893.0000 1.0000
64.9000 856.0000 1.0000
64.9100 832.0000 1.0000
64.9200 829.0000 1.0000
64.9300 834.0000 1.0000
64.9400 830.0000 1.0000
64.9500 801.0000 1.0000
64.9600 800.0000 1.0000
64.9700 813.0000 1.0000
64.9800 826.0000 1.0000
64.9900 811.0000 1.0000
65.0000 771.0000 1.0000
65.0100 781.0000 1.0000
65.0200 802.0000 1.0000
65.0300 786.0000 1.0000
65.0400 758.0000 1.0000
65.0500 771.0000 1.0000
65.0600 761.0000 1.0000
65.0700 750.0000 1.0000
65.0800 795.0000 1.0000
65.0900 766.0000 1.0000
65.1000 769.0000 1.0000
65.1100 755.0000 1.0000
65.1200 805.0000 1.0000
65.1300 731.0000 1.0000
65.1400 758.0000 1.0000
65.1500 803.0000 1.0000
65.1600 769.0000 1.0000
65.1700 765.0000 1.0000
65.1800 737.0000 1.0000
65.1900 737.0000 1.0000
65.2000 797.0000 1.0000
65.2100 740.0000 1.0000
65.2200 786.0000 1.0000
65.2300 780.0000 1.0000
65.2400 721.0000 1.0000
65.2500 789.0000 1.0000
65.2600 766.0000 1.0000
65.2700 754.0000 1.0000
65.2800 766.0000 1.0000
65.2900 734.0000 1.0000
65.3000 814.0000 1.0000
65.3100 761.0000 1.0000
65.3200 767.0000 1.0000
65.3300 759.0000 1.0000
65.3400 762.0000 1.0000
65.3500 764.0000 1.0000
65.3600 775.0000 1.0000
65.3700 760.0000 1.0000
65.3800 760.0000 1.0000
65.3900 718.0000 1.0000
65.4000 749.0000 1.0000
65.4100 729.0000 1.0000
65.4200 748.0000 1.0000
65.4300 786.0000 1.0000
65.4400 748.0000 1.0000
65.4500 746.0000 1.0000
65.4600 766.0000 1.0000
65.4700 758.0000 1.0000
65.4800 749.0000 1.0000
65.4900 765.0000 1.0000
65.5000 769.0000 1.0000
65.5100 795.0000 1.0000
65.5200 771.0000 1.0000
65.5300 799.0000 1.0000
65.5400 730.0000 1.0000
65.5500 752.0000 1.0000
65.5600 747.0000 1.0000
65.5700 772.0000 1.0000
65.5800 721.0000 1.0000
65.5900 774.0000 1.0000
65.6000 774.0000 1.0000
65.6100 790.0000 1.0000
65.6200 808.0000 1.0000
65.6300 777.0000 1.0000
65.6400 792.0000 1.0000
65.6500 798.0000 1.0000
65.6600 776.0000 1.0000
65.6700 792.0000 1.0000
65.6800 808.0000 1.0000
65.6900 769.0000 1.0000
65.7000 811.0000 1.0000
65.7100 751.0000 1.0000
65.7200 742.0000 1.0000
65.7300 813.0000 1.0000
65.7400 803.0000 1.0000
65.7500 812.0000 1.0000
65.7600 816.0000 1.0000
65.7700 829.0000 1.0000
65.7800 800.0000 1.0000
65.7900 825.0000 1.0000
65.8000 834.0000 1.0000
65.8100 837.0000 1.0000
65.8200 809.0000 1.0000
65.8300 877.0000 1.0000
65.8400 895.0000 1.0000
65.8500 885.0000 1.0000
65.8600 920.0000 1.0000
65.8700 954.0000 1.0000
65.8800 907.0000 1.0000
65.8900 952.0000 1.0000
65.9000 929.0000 1.0000
65.9100 968.0000 1.0000
65.9200 1003.0000 1.0000
65.9300 1030.0000 1.0000
65.9400 1033.0000 1.0000
65.9500 1064.0000 1.0000
65.9600 1086.0000 1.0000
65.9700 1073.0000 1.0000
65.9800 1118.0000 1.0000
65.9900 1074.0000 1.0000
66.0000 1124.0000 1.0000
66.0100 1221.0000 1.0000
66.0200 1238.0000 1.0000
66.0300 1299.0000 1.0000
66.0400 1342.0000 1.0000
66.0500 1391.0000 1.0000
66.0600 1404.0000 1.0000
66.0700 1529.0000 1.0000
66.0800 1529.0000 1.0000
66.0900 1665.0000 1.0000
66.1000 1710.0000 1.0000
66.1100 1865.0000 1.0000
66.1200 1984.0000 1.0000
66.1300 2034.0000 1.0000
66.1400 2159.0000 1.0000
66.1500 2237.0000 1.0000
66.1600 2312.0000 1.0000
66.1700 2458.0000 1.0000
66.1800 2524.0000 1.0000
66.1900 2659.0000 1.0000
66.2000 2751.0000 1.0000
66.2100 2863.0000 1.0000
66.2200 2837.0000 1.0000
66.2300 2992.0000 1.0000
66.2400 3060.0000 1.0000
66.2500 3059.0000 1.0000
66.2600 3056.0000 1.0000
66.2700 2972.0000 1.0000
66.2800 2850.0000 1.0000
66.2900 2782.0000 1.0000
66.3000 2814.0000 1.0000
66.3100 2794.0000 1.0000
66.3200 2706.0000 1.0000
66.3300 2518.0000 1.0000
66.3400 2532.0000 1.0000
66.3500 2462.0000 1.0000
66.3600 2501.0000 1.0000
66.3700 2492.0000 1.0000
66.3800 2349.0000 1.0000
66.3900 2426.0000 1.0000
66.4000 2394.0000 1.0000
66.4100 2284.0000 1.0000
66.4200 2265.0000 1.0000
66.4300 2233.0000 1.0000
66.4400 2231.0000 1.0000
66.4500 2142.0000 1.0000
66.4600 2050.0000 1.0000
66.4700 2011.0000 1.0000
66.4800 1945.0000 1.0000
66.4900 1823.0000 1.0000
66.5000 1686.0000 1.0000
66.5100 1658.0000 1.0000
66.5200 1656.0000 1.0000
66.5300 1513.0000 1.0000
66.5400 1466.0000 1.0000
66.5500 1425.0000 1.0000
66.5600 1382.0000 1.0000
66.5700 1334.0000 1.0000
66.5800 1302.0000 1.0000
66.5900 1250.0000 1.0000
66.6000 1238.0000 1.0000
66.6100 1188.0000 1.0000
66.6200 1144.0000 1.0000
66.6300 1150.0000 1.0000
66.6400 1132.0000 1.0000
66.6500 1036.0000 1.0000
66.6600 1028.0000 1.0000
66.6700 1016.0000 1.0000
66.6800 1037.0000 1.0000
66.6900 983.0000 1.0000
66.7000 938.0000 1.0000
66.7100 961.0000 1.0000
66.7200 920.0000 1.0000
66.7300 911.0000 1.0000
66.7400 925.0000 1.0000
66.7500 952.0000 1.0000
66.7600 936.0000 1.0000
66.7700 878.0000 1.0000
66.7800 886.0000 1.0000
66.7900 883.0000 1.0000
66.8000 863.0000 1.0000
66.8100 838.0000 1.0000
66.8200 808.0000 1.0000
66.8300 831.0000 1.0000
66.8400 846.0000 1.0000
66.8500 855.0000 1.0000
66.8600 744.0000 1.0000
66.8700 761.0000 1.0000
66.8800 775.0000 1.0000
66.8900 758.0000 1.0000
66.9000 782.0000 1.0000
66.9100 789.0000 1.0000
66.9200 726.0000 1.0000
66.9300 745.0000 1.0000
66.9400 763.0000 1.0000
66.9500 764.0000 1.0000
66.9600 752.0000 1.0000
66.9700 762.0000 1.0000
66.9800 808.0000 1.0000
66.9900 754.0000 1.0000
67.0000 745.0000 1.0000
67.0100 742.0000 1.0000
67.0200 731.0000 1.0000
67.0300 765.0000 1.0000
67.0400 741.0000 1.0000
67.0500 728.0000 1.0000
67.0600 747.0000 1.0000
67.0700 757.0000 1.0000
67.0800 722.0000 1.0000
67.0900 730.0000 1.0000
67.1000 741.0000 1.0000
67.1100 705.0000 1.0000
67.1200 707.0000 1.0000
67.1300 698.0000 1.0000
67.1400 719.0000 1.0000
67.1500 681.0000 1.0000
67.1600 739.0000 1.0000
67.1700 704.0000 1.0000
67.1800 713.0000 1.0000
67.1900 761.0000 1.0000
67.2000 738.0000 1.0000
67.2100 717.0000 1.0000
67.2200 708.0000 1.0000
67.2300 725.0000 1.0000
67.2400 747.0000 1.0000
67.2500 680.0000 1.0000
67.2600 743.0000 1.0000
67.2700 706.0000 1.0000
67.2800 711.0000 1.0000
67.2900 733.0000 1.0000
67.3000 744.0000 1.0000
67.3100 710.0000 1.0000
67.3200 683.0000 1.0000
67.3300 680.0000 1.0000
67.3400 688.0000 1.0000
67.3500 713.0000 1.0000
67.3600 746.0000 1.0000
67.3700 690.0000 1.0000
67.3800 743.0000 1.0000
67.3900 711.0000 1.0000
67.4000 671.0000 1.0000
67.4100 727.0000 1.0000
67.4200 728.0000 1.0000
67.4300 687.0000 1.0000
67.4400 616.0000 1.0000
67.4500 701.0000 1.0000
67.4600 683.0000 1.0000
67.4700 684.0000 1.0000
67.4800 691.0000 1.0000
67.4900 703.0000 1.0000
67.5000 683.0000 1.0000
67.5100 694.0000 1.0000
67.5200 684.0000 1.0000
67.5300 658.0000 1.0000
67.5400 653.0000 1.0000
67.5500 665.0000 1.0000
67.5600 687.0000 1.0000
67.5700 670.0000 1.0000
67.5800 691.0000 1.0000
67.5900 701.0000 1.0000
67.6000 707.0000 1.0000
67.6100 657.0000 1.0000
67.6200 669.0000 1.0000
67.6300 652.0000 1.0000
67.6400 681.0000 1.0000
67.6500 729.0000 1.0000
67.6600 726.0000 1.0000
67.6700 677.0000 1.0000
67.6800 630.0000 1.0000
67.6900 679.0000 1.0000
67.7000 650.0000 1.0000
67.7100 720.0000 1.0000
67.7200 647.0000 1.0000
67.7300 675.0000 1.0000
67.7400 631.0000 1.0000
67.7500 646.0000 1.0000
67.7600 645.0000 1.0000
67.7700 678.0000 1.0000
67.7800 688.0000 1.0000
67.7900 640.0000 1.0000
67.8000 662.0000 1.0000
67.8100 664.0000 1.0000
67.8200 675.0000 1.0000
67.8300 716.0000 1.0000
67.8400 697.0000 1.0000
67.8500 670.0000 1.0000
67.8600 657.0000 1.0000
67.8700 684.0000 1.0000
67.8800 671.0000 1.0000
67.8900 690.0000 1.0000
67.9000 697.0000 1.0000
67.9100 645.0000 1.0000
67.9200 662.0000 1.0000
67.9300 649.0000 1.0000
67.9400 681.0000 1.0000
67.9500 643.0000 1.0000
67.9600 658.0000 1.0000
67.9700 693.0000 1.0000
67.9800 659.0000 1.0000
67.9900 706.0000 1.0000
68.0000 686.0000 1.0000
68.0100 663.0000 1.0000
68.0200 628.0000 1.0000
68.0300 665.0000 1.0000
68.0400 677.0000 1.0000
68.0500 679.0000 1.0000
68.0600 638.0000 1.0000
68.0700 643.0000 1.0000
68.0800 687.0000 1.0000
68.0900 631.0000 1.0000
68.1000 683.0000 1.0000
68.1100 687.0000 1.0000
68.1200 663.0000 1.0000
68.1300 683.0000 1.0000
68.1400 678.0000 1.0000
68.1500 688.0000 1.0000
68.1600 664.0000 1.0000
68.1700 653.0000 1.0000
68.1800 664.0000 1.0000
68.1900 635.0000 1.0000
68.2000 673.0000 1.0000
68.2100 682.0000 1.0000
68.2200 656.0000 1.0000
68.2300 659.0000 1.0000
68.2400 667.0000 1.0000
68.2500 699.0000 1.0000
68.2600 679.0000 1.0000
68.2700 687.0000 1.0000
68.2800 662.0000 1.0000
68.2900 629.0000 1.0000
68.3000 678.0000 1.0000
68.3100 649.0000 1.0000
68.3200 675.0000 1.0000
68.3300 674.0000 1.0000
68.3400 624.0000 1.0000
68.3500 683.0000 1.0000
68.3600 661.0000 1.0000
68.3700 674.0000 1.0000
68.3800 669.0000 1.0000
68.3900 678.0000 1.0000
68.4000 667.0000 1.0000
68.4100 706.0000 1.0000
68.4200 663.0000 1.0000
68.4300 656.0000 1.0000
68.4400 631.0000 1.0000
68.4500 655.0000 1.0000
68.4600 679.0000 1.0000
68.4700 706.0000 1.0000
68.4800 653.0000 1.0000
68.4900 643.0000 1.0000
68.5000 607.0000 1.0000
68.5100 656.0000 1.0000
68.5200 666.0000 1.0000
68.5300 648.0000 1.0000
68.5400 698.0000 1.0000
68.5500 645.0000 1.0000
68.5600 636.0000 1.0000
68.5700 643.0000 1.0000
68.5800 658.0000 1.0000
68.5900 640.0000 1.0000
68.6000 652.0000 1.0000
68.6100 666.0000 1.0000
68.6200 686.0000 1.0000
68.6300 676.0000 1.0000
68.6400 657.0000 1.0000
68.6500 657.0000 1.0000
68.6600 665.0000 1.0000
68.6700 688.0000 1.0000
68.6800 680.0000 1.0000
68.6900 648.0000 1.0000
68.7000 633.0000 1.0000
68.7100 667.0000 1.0000
68.7200 684.0000 1.0000
68.7300 650.0000 1.0000
68.7400 612.0000 1.0000
68.7500 658.0000 1.0000
68.7600 653.0000 1.0000
68.7700 678.0000 1.0000
68.7800 661.0000 1.0000
68.7900 627.0000 1.0000
68.8000 589.0000 1.0000
68.8100 676.0000 1.0000
68.8200 643.0000 1.0000
68.8300 630.0000 1.0000
68.8400 630.0000 1.0000
68.8500 662.0000 1.0000
68.8600 671.0000 1.0000
68.8700 662.0000 1.0000
68.8800 690.0000 1.0000
68.8900 648.0000 1.0000
68.9000 662.0000 1.0000
68.9100 675.0000 1.0000
68.9200 668.0000 1.0000
68.9300 654.0000 1.0000
68.9400 652.0000 1.0000
68.9500 643.0000 1.0000
68.9600 646.0000 1.0000
68.9700 654.0000 1.0000
68.9800 651.0000 1.0000
68.9900 669.0000 1.0000
69.0000 661.0000 1.0000
69.0100 662.0000 1.0000
69.0200 668.0000 1.0000
69.0300 650.0000 1.0000
69.0400 658.0000 1.0000
69.0500 678.0000 1.0000
69.0600 650.0000 1.0000
69.0700 630.0000 1.0000
69.0800 652.0000 1.0000
69.0900 644.0000 1.0000
69.1000 639.0000 1.0000
69.1100 665.0000 1.0000
69.1200 672.0000 1.0000
69.1300 652.0000 1.0000
69.1400 624.0000 1.0000
69.1500 657.0000 1.0000
69.1600 607.0000 1.0000
69.1700 636.0000 1.0000
69.1800 638.0000 1.0000
69.1900 638.0000 1.0000
69.2000 656.0000 1.0000
69.2100 674.0000 1.0000
69.2200 644.0000 1.0000
69.2300 661.0000 1.0000
69.2400 670.0000 1.0000
69.2500 690.0000 1.0000
69.2600 639.0000 1.0000
69.2700 640.0000 1.0000
69.2800 661.0000 1.0000
69.2900 687.0000 1.0000
69.3000 647.0000 1.0000
69.3100 634.0000 1.0000
69.3200 642.0000 1.0000
69.3300 637.0000 1.0000
69.3400 633.0000 1.0000
69.3500 657.0000 1.0000
69.3600 628.0000 1.0000
69.3700 639.0000 1.0000
69.3800 638.0000 1.0000
69.3900 652.0000 1.0000
69.4000 619.0000 1.0000
69.4100 667.0000 1.0000
69.4200 645.0000 1.0000
69.4300 619.0000 1.0000
69.4400 658.0000 1.0000
69.4500 623.0000 1.0000
69.4600 643.0000 1.0000
69.4700 603.0000 1.0000
69.4800 693.0000 1.0000
69.4900 647.0000 1.0000
69.5000 687.0000 1.0000
69.5100 679.0000 1.0000
69.5200 622.0000 1.0000
69.5300 644.0000 1.0000
69.5400 657.0000 1.0000
69.5500 690.0000 1.0000
69.5600 645.0000 1.0000
69.5700 652.0000 1.0000
69.5800 676.0000 1.0000
69.5900 702.0000 1.0000
69.6000 674.0000 1.0000
69.6100 689.0000 1.0000
69.6200 670.0000 1.0000
69.6300 662.0000 1.0000
69.6400 664.0000 1.0000
69.6500 635.0000 1.0000
69.6600 656.0000 1.0000
69.6700 677.0000 1.0000
69.6800 604.0000 1.0000
69.6900 656.0000 1.0000
69.7000 662.0000 1.0000
69.7100 642.0000 1.0000
69.7200 655.0000 1.0000
69.7300 649.0000 1.0000
69.7400 662.0000 1.0000
69.7500 592.0000 1.0000
69.7600 686.0000 1.0000
69.7700 663.0000 1.0000
69.7800 636.0000 1.0000
69.7900 638.0000 1.0000
69.8000 616.0000 1.0000
69.8100 638.0000 1.0000
69.8200 658.0000 1.0000
69.8300 640.0000 1.0000
69.8400 600.0000 1.0000
69.8500 617.0000 1.0000
69.8600 646.0000 1.0000
69.8700 624.0000 1.0000
69.8800 648.0000 1.0000
69.8900 651.0000 1.0000
69.9000 630.0000 1.0000
69.9100 644.0000 1.0000
69.9200 615.0000 1.0000
69.9300 622.0000 1.0000
69.9400 631.0000 1.0000
69.9500 610.0000 1.0000
69.9600 619.0000 1.0000
69.9700 632.0000 1.0000
69.9800 641.0000 1.0000
69.9900 653.0000 1.0000
70.0000 629.0000 1.0000
*RAS_INT_END
*RAS_TEMPERATURE_START
*RAS_TEMPERATURE_END
*RAS_DATA_END
