*RAS_DATA_START
*RAS_HEADER_START
*DISP_FMT_X "%.2f"
*DISP_FMT_Y "%.0f"
*DISP_FULLSCALE "15325.0000000000"
*DISP_LINE_COLOR "255.0000000000"
*DISP_LINE_STYLE "0.0000000000"
*DISP_LINE_WIDTH "0.2500000000"
*DISP_NOTE "測定データ-6"
*DISP_OFFSET_Y "0.0000000000"
*DISP_PEAKSEARCH_UNIT_Y "cps"
*DISP_RANGE_BOTTOM "0.0000000000"
*DISP_RANGE_LEFT "20.0000000000"
*DISP_RANGE_LOGCUTOFF "0.0100000000"
*DISP_RANGE_RIGHT "70.0000000000"
*DISP_RANGE_TOP "15325.0000000000"
*DISP_SCALE_MODE_Y "0.0000000000"
*DISP_TAB_NAME "2θ/θ"
*DISP_TITLE_Y "強度"
*DISP_UNIT_Y "cps"
*DISP_WINDOW_NAME "MSG_MACROENGINE"
*FILE_COMMENT " "
*FILE_MD5 ""
*FILE_MEMO " "
*FILE_OPERATOR "Administrator"
*FILE_SAMPLE " "
*FILE_TYPE "RAS_RAW"
*FILE_USERGROUP "システムマネージャ"
*FILE_VERSION "1.0000000000"
*HW_ATTACHMENT_ID "ATT0025"
*HW_ATTACHMENT_NAME "標準|Standard"
*HW_COUNTER_ID-0 "CUT0025"
*HW_COUNTER_ID-1 "CUT0020"
*HW_COUNTER_ID-2 "CUT0020"
*HW_COUNTER_ID-3 "CSL0021"
*HW_COUNTER_ID-4 "CMC0021"
*HW_COUNTER_NAME-0 "D/teX Ultra|D/teX Ultra"
*HW_COUNTER_NAME-1 "None|None"
*HW_COUNTER_NAME-2 "None|None"
*HW_COUNTER_NAME-3 "BBM|BBM"
*HW_COUNTER_NAME-4 "検出器モノクロメータ|Detector monochromator"
*HW_COUNTER_SELECT_NAME "D/teX Ultra|D/teX Ultra"
*HW_GONIOMETER_ID "GON0023"
*HW_GONIOMETER_NAME "SmartLab|SmartLab"
*HW_GONIOMETER_RADIUS-0 "90.0"
*HW_GONIOMETER_RADIUS-1 "114.0"
*HW_GONIOMETER_RADIUS-2 "190.0"
*HW_GONIOMETER_RADIUS-3 "300.0"
*HW_GONIOMETER_RADIUS-4 "187.0"
*HW_GONIOMETER_RADIUS-5 "300.0"
*HW_GONIOMETER_RADIUS-6 "113.0"
*HW_GONIOMETER_RADIUS-7 "331.0"
*HW_I_OPT_ID-0 "CBO0021"
*HW_I_OPT_ID-1 "ICR0023"
*HW_I_OPT_ID-2 "ISL0021"
*HW_I_OPT_ID-3 "ISO0021"
*HW_I_OPT_ID-4 "IAD0021"
*HW_I_OPT_ID-5 "IPR0001"
*HW_I_OPT_NAME-0 "CBOユニット|CBO unit"
*HW_I_OPT_NAME-1 "標準入射光学ユニット|Standard incident optical unit"
*HW_I_OPT_NAME-2 "標準入射スリットボックス|Standard incident slit box"
*HW_I_OPT_NAME-3 "入射平行スリット|Incident parallel slit"
*HW_I_OPT_NAME-4 "長手制限スリット|Length limiting slit"
*HW_I_OPT_NAME-5 "None|None"
*HW_R_ATTENUATER_AUTOMODE "0"
*HW_R_OPT_ID-0 "RSS0021"
*HW_R_OPT_ID-1 "RCR0023"
*HW_R_OPT_ID-2 "RSO0021"
*HW_R_OPT_ID-3 "RRS0021"
*HW_R_OPT_ID-4 "ATN0021"
*HW_R_OPT_ID-5 "RFL0021"
*HW_R_OPT_ID-6 "RAD0021"
*HW_R_OPT_NAME-0 "標準受光スリットボックス1|Standard receiving slit box # 1"
*HW_R_OPT_NAME-1 "標準受光光学ユニット1|Standard receiving unit # 1"
*HW_R_OPT_NAME-2 "標準受光光学ユニット2|Standard receiving optical unit # 2"
*HW_R_OPT_NAME-3 "標準受光スリットボックス2|Standard receiving slit box # 2"
*HW_R_OPT_NAME-4 "標準アッテネータ|Standard Attenuator"
*HW_R_OPT_NAME-5 "Cu Kβ|Cu K-beta"
*HW_R_OPT_NAME-6 "調整用受光スリット|Alignment receiving slit"
*HW_SAMPLE_HOLDER_ID "SMP0023"
*HW_SAMPLE_HOLDER_NAME "標準Zステージ|Standard Z stage"
*HW_XG_CURRENT_MAX "50"
*HW_XG_CURRENT_MIN "2"
*HW_XG_CURRENT_RESOLUTION "1"
*HW_XG_CURRENT_UNIT "mA"
*HW_XG_FOCUS "1mm x 10mm"
*HW_XG_FOCUS_TYPE "Normal"
*HW_XG_ID ""
*HW_XG_NAME "3kW 封入管(ID:1200)|3kW Sealed tube(ID:1200)"
*HW_XG_TARGET_ATOMIC_NUMBER "29.0000000000"
*HW_XG_TARGET_NAME "Cu"
*HW_XG_TYPE "Hermetic"
*HW_XG_VOLTAGE_MAX "60"
*HW_XG_VOLTAGE_MIN "20"
*HW_XG_VOLTAGE_RESOLUTION "1"
*HW_XG_VOLTAGE_UNIT "kV"
*HW_XG_WATT_MAX "1.500"
*HW_XG_WATT_UNIT "kW"
*HW_XG_WAVE_LENGTH_ALPHA1 "1.540593"
*HW_XG_WAVE_LENGTH_ALPHA2 "1.544414"
*HW_XG_WAVE_LENGTH_BETA "1.392250"
*MEAS_COND_AXIS_NAME-0 "2θ/θ"
*MEAS_COND_AXIS_NAME-1 "2θ"
*MEAS_COND_AXIS_NAME-2 "ω"
*MEAS_COND_AXIS_NAME-3 "Z"
*MEAS_COND_AXIS_NAME-4 "2θ/ω"
*MEAS_COND_AXIS_NAME-5 "θs"
*MEAS_COND_AXIS_NAME-6 "θd"
*MEAS_COND_AXIS_NAME-7 "Ts"
*MEAS_COND_AXIS_NAME-8 "CBO選択スリット"
*MEAS_COND_AXIS_NAME-9 "M"
*MEAS_COND_AXIS_NAME-10 "入射平行スリット"
*MEAS_COND_AXIS_NAME-11 "入射スリット"
*MEAS_COND_AXIS_NAME-12 ""
*MEAS_COND_AXIS_NAME-13 "Zs"
*MEAS_COND_AXIS_NAME-14 "入射光学素子"
*MEAS_COND_AXIS_NAME-15 "長手制限スリット"
*MEAS_COND_AXIS_NAME-16 "センタースリット"
*MEAS_COND_AXIS_NAME-17 "フィルター"
*MEAS_COND_AXIS_NAME-18 "受光スリット1"
*MEAS_COND_AXIS_NAME-19 "受光スリット2"
*MEAS_COND_AXIS_NAME-20 "受光光学素子"
*MEAS_COND_AXIS_NAME-21 "受光平行スリット"
*MEAS_COND_AXIS_NAME-22 "調整用受光スリット"
*MEAS_COND_AXIS_NAME-23 ""
*MEAS_COND_AXIS_NAME-24 ""
*MEAS_COND_AXIS_NAME-25 "Zd"
*MEAS_COND_AXIS_NAME-26 "アッテネータ"
*MEAS_COND_AXIS_NAME-27 "検出器モノクロメータ"
*MEAS_COND_AXIS_NAME-28 "モノクロメータスリット"
*MEAS_COND_AXIS_NAME-29 "プライマリビーム"
*MEAS_COND_AXIS_NAME-30 "PHA"
*MEAS_COND_AXIS_NAME_INTERNAL-0 "TwoThetaTheta"
*MEAS_COND_AXIS_NAME_INTERNAL-1 "TwoTheta"
*MEAS_COND_AXIS_NAME_INTERNAL-2 "Omega"
*MEAS_COND_AXIS_NAME_INTERNAL-3 "Z"
*MEAS_COND_AXIS_NAME_INTERNAL-4 "TwoThetaOmega"
*MEAS_COND_AXIS_NAME_INTERNAL-5 "ThetaS"
*MEAS_COND_AXIS_NAME_INTERNAL-6 "ThetaD"
*MEAS_COND_AXIS_NAME_INTERNAL-7 "Ts"
*MEAS_COND_AXIS_NAME_INTERNAL-8 "CBO"
*MEAS_COND_AXIS_NAME_INTERNAL-9 "CBO-M"
*MEAS_COND_AXIS_NAME_INTERNAL-10 "IncidentSollerSlit"
*MEAS_COND_AXIS_NAME_INTERNAL-11 "IncidentSlitBox"
*MEAS_COND_AXIS_NAME_INTERNAL-12 "IncidentSlitBox-_Axis"
*MEAS_COND_AXIS_NAME_INTERNAL-13 "Zs"
*MEAS_COND_AXIS_NAME_INTERNAL-14 "IncidentMonochromator"
*MEAS_COND_AXIS_NAME_INTERNAL-15 "IncidentAxdSlit"
*MEAS_COND_AXIS_NAME_INTERNAL-16 "CenterSlit"
*MEAS_COND_AXIS_NAME_INTERNAL-17 "Filter"
*MEAS_COND_AXIS_NAME_INTERNAL-18 "ReceivingSlitBox1"
*MEAS_COND_AXIS_NAME_INTERNAL-19 "ReceivingSlitBox2"
*MEAS_COND_AXIS_NAME_INTERNAL-20 "ReceivingOptics"
*MEAS_COND_AXIS_NAME_INTERNAL-21 "ReceivingSollerSlit"
*MEAS_COND_AXIS_NAME_INTERNAL-22 "ReceivingAxdSlit"
*MEAS_COND_AXIS_NAME_INTERNAL-23 "ReceivingSlitBox1-_Axis"
*MEAS_COND_AXIS_NAME_INTERNAL-24 "ReceivingSlitBox2-_Axis"
*MEAS_COND_AXIS_NAME_INTERNAL-25 "ReceivingSlitBox2-Zd"
*MEAS_COND_AXIS_NAME_INTERNAL-26 "Attenuator"
*MEAS_COND_AXIS_NAME_INTERNAL-27 "CounterMonochromator"
*MEAS_COND_AXIS_NAME_INTERNAL-28 "CounterSlit"
*MEAS_COND_AXIS_NAME_INTERNAL-29 "IncidentPrimary"
*MEAS_COND_AXIS_NAME_INTERNAL-30 "PHA"
*MEAS_COND_AXIS_NAME_MAGICNO-0 "83951616.0000000000"
*MEAS_COND_AXIS_NAME_MAGICNO-1 "268632064.0000000000"
*MEAS_COND_AXIS_NAME_MAGICNO-2 "268500992.0000000000"
*MEAS_COND_AXIS_NAME_MAGICNO-3 "285278208.0000000000"
*MEAS_COND_AXIS_NAME_MAGICNO-4 "83951616.0000000000"
*MEAS_COND_AXIS_NAME_MAGICNO-5 "131072.0000000000"
*MEAS_COND_AXIS_NAME_MAGICNO-6 "131072.0000000000"
*MEAS_COND_AXIS_NAME_MAGICNO-7 "318898176.0000000000"
*MEAS_COND_AXIS_NAME_MAGICNO-8 "20971521.0000000000"
*MEAS_COND_AXIS_NAME_MAGICNO-9 "285343744.0000000000"
*MEAS_COND_AXIS_NAME_MAGICNO-10 "20971521.0000000000"
*MEAS_COND_AXIS_NAME_MAGICNO-11 "22020097.0000000000"
*MEAS_COND_AXIS_NAME_MAGICNO-12 "25165824.0000000000"
*MEAS_COND_AXIS_NAME_MAGICNO-13 "318898176.0000000000"
*MEAS_COND_AXIS_NAME_MAGICNO-14 "1.0000000000"
*MEAS_COND_AXIS_NAME_MAGICNO-15 "20971521.0000000000"
*MEAS_COND_AXIS_NAME_MAGICNO-16 "20971521.0000000000"
*MEAS_COND_AXIS_NAME_MAGICNO-17 "20971521.0000000000"
*MEAS_COND_AXIS_NAME_MAGICNO-18 "23068673.0000000000"
*MEAS_COND_AXIS_NAME_MAGICNO-19 "23068673.0000000000"
*MEAS_COND_AXIS_NAME_MAGICNO-20 "20971521.0000000000"
*MEAS_COND_AXIS_NAME_MAGICNO-21 "20971521.0000000000"
*MEAS_COND_AXIS_NAME_MAGICNO-22 "20971521.0000000000"
*MEAS_COND_AXIS_NAME_MAGICNO-23 "25165824.0000000000"
*MEAS_COND_AXIS_NAME_MAGICNO-24 "25165824.0000000000"
*MEAS_COND_AXIS_NAME_MAGICNO-25 "285343744.0000000000"
*MEAS_COND_AXIS_NAME_MAGICNO-26 "17301505.0000000000"
*MEAS_COND_AXIS_NAME_MAGICNO-27 "20971521.0000000000"
*MEAS_COND_AXIS_NAME_MAGICNO-28 "20971521.0000000000"
*MEAS_COND_AXIS_NAME_MAGICNO-29 "20971521.0000000000"
*MEAS_COND_AXIS_NAME_MAGICNO-30 "0.0000000000"
*MEAS_COND_AXIS_OFFSET-0 "-"
*MEAS_COND_AXIS_OFFSET-1 "-0.0801000000"
*MEAS_COND_AXIS_OFFSET-2 "-0.1703000000"
*MEAS_COND_AXIS_OFFSET-3 "-"
*MEAS_COND_AXIS_OFFSET-4 "-"
*MEAS_COND_AXIS_OFFSET-5 "-0.1703000000"
*MEAS_COND_AXIS_OFFSET-6 "0.0902000000"
*MEAS_COND_AXIS_OFFSET-7 "-"
*MEAS_COND_AXIS_OFFSET-8 "-"
*MEAS_COND_AXIS_OFFSET-9 "-"
*MEAS_COND_AXIS_OFFSET-10 "-"
*MEAS_COND_AXIS_OFFSET-11 "-"
*MEAS_COND_AXIS_OFFSET-12 "-"
*MEAS_COND_AXIS_OFFSET-13 "-"
*MEAS_COND_AXIS_OFFSET-14 "-"
*MEAS_COND_AXIS_OFFSET-15 "-"
*MEAS_COND_AXIS_OFFSET-16 "-"
*MEAS_COND_AXIS_OFFSET-17 "-"
*MEAS_COND_AXIS_OFFSET-18 "-"
*MEAS_COND_AXIS_OFFSET-19 "-"
*MEAS_COND_AXIS_OFFSET-20 "-"
*MEAS_COND_AXIS_OFFSET-21 "-"
*MEAS_COND_AXIS_OFFSET-22 "-"
*MEAS_COND_AXIS_OFFSET-23 "-"
*MEAS_COND_AXIS_OFFSET-24 "-"
*MEAS_COND_AXIS_OFFSET-25 "-"
*MEAS_COND_AXIS_OFFSET-26 "-"
*MEAS_COND_AXIS_OFFSET-27 "-"
*MEAS_COND_AXIS_OFFSET-28 "-"
*MEAS_COND_AXIS_OFFSET-29 "-"
*MEAS_COND_AXIS_OFFSET-30 "-"
*MEAS_COND_AXIS_POSITION-0 "0.0000000000"
*MEAS_COND_AXIS_POSITION-1 "0.0000000000"
*MEAS_COND_AXIS_POSITION-2 "0.0000000000"
*MEAS_COND_AXIS_POSITION-3 "-2.8463000000"
*MEAS_COND_AXIS_POSITION-4 "0.0000000000"
*MEAS_COND_AXIS_POSITION-5 "0.0000000000"
*MEAS_COND_AXIS_POSITION-6 "0.0000000000"
*MEAS_COND_AXIS_POSITION-7 "-0.4278800000"
*MEAS_COND_AXIS_POSITION-8 "BB"
*MEAS_COND_AXIS_POSITION-9 "0.0000000000"
*MEAS_COND_AXIS_POSITION-10 "Soller_slit_5.0deg"
*MEAS_COND_AXIS_POSITION-11 "2/3deg"
*MEAS_COND_AXIS_POSITION-12 "2.2088000000"
*MEAS_COND_AXIS_POSITION-13 "-1.0609400000"
*MEAS_COND_AXIS_POSITION-14 "0.0000000000"
*MEAS_COND_AXIS_POSITION-15 "10.0mm"
*MEAS_COND_AXIS_POSITION-16 "None"
*MEAS_COND_AXIS_POSITION-17 "Cu_K-beta"
*MEAS_COND_AXIS_POSITION-18 "13.000mm"
*MEAS_COND_AXIS_POSITION-19 "13.000mm"
*MEAS_COND_AXIS_POSITION-20 "No_unit"
*MEAS_COND_AXIS_POSITION-21 "Soller_slit_5.0deg"
*MEAS_COND_AXIS_POSITION-22 "None"
*MEAS_COND_AXIS_POSITION-23 "13.0000000000"
*MEAS_COND_AXIS_POSITION-24 "13.0000000000"
*MEAS_COND_AXIS_POSITION-25 "0.0081300000"
*MEAS_COND_AXIS_POSITION-26 "Open"
*MEAS_COND_AXIS_POSITION-27 "None"
*MEAS_COND_AXIS_POSITION-28 "None"
*MEAS_COND_AXIS_POSITION-29 "None"
*MEAS_COND_AXIS_POSITION-30 "38.0000000000"
*MEAS_COND_AXIS_UNIT-0 "deg"
*MEAS_COND_AXIS_UNIT-1 "deg"
*MEAS_COND_AXIS_UNIT-2 "deg"
*MEAS_COND_AXIS_UNIT-3 "mm"
*MEAS_COND_AXIS_UNIT-4 "deg"
*MEAS_COND_AXIS_UNIT-5 "deg"
*MEAS_COND_AXIS_UNIT-6 "deg"
*MEAS_COND_AXIS_UNIT-7 "mm"
*MEAS_COND_AXIS_UNIT-8 ""
*MEAS_COND_AXIS_UNIT-9 "pulse"
*MEAS_COND_AXIS_UNIT-10 ""
*MEAS_COND_AXIS_UNIT-11 ""
*MEAS_COND_AXIS_UNIT-12 "mm"
*MEAS_COND_AXIS_UNIT-13 "mm"
*MEAS_COND_AXIS_UNIT-14 ""
*MEAS_COND_AXIS_UNIT-15 ""
*MEAS_COND_AXIS_UNIT-16 ""
*MEAS_COND_AXIS_UNIT-17 ""
*MEAS_COND_AXIS_UNIT-18 ""
*MEAS_COND_AXIS_UNIT-19 ""
*MEAS_COND_AXIS_UNIT-20 ""
*MEAS_COND_AXIS_UNIT-21 ""
*MEAS_COND_AXIS_UNIT-22 ""
*MEAS_COND_AXIS_UNIT-23 "mm"
*MEAS_COND_AXIS_UNIT-24 "mm"
*MEAS_COND_AXIS_UNIT-25 "mm"
*MEAS_COND_AXIS_UNIT-26 ""
*MEAS_COND_AXIS_UNIT-27 ""
*MEAS_COND_AXIS_UNIT-28 ""
*MEAS_COND_AXIS_UNIT-29 ""
*MEAS_COND_AXIS_UNIT-30 "div"
*MEAS_COND_COUNTER_CNTLOSS_CORR "0.0000000000"
*MEAS_COND_COUNTER_PHABASE "38.0000000000"
*MEAS_COND_COUNTER_PHAWINDOW "16.0000000000"
*MEAS_COND_COUNTER_PHA_UNIT "div"
*MEAS_COND_COUNTER_TAUDIFF "30.0000000000"
*MEAS_COND_COUNTER_TAUINT "0.0000000000"
*MEAS_COND_IRRADIATION_MODE "OFF"
*MEAS_COND_IRRADIATION_WIDTH ""
*MEAS_COND_OPT_ATTR "集中法"
*MEAS_COND_OPT_NAME "@集中法"
*MEAS_COND_UNSYMMETRIC_MODE "OFF"
*MEAS_COND_XG_CURRENT "30.0000000000"
*MEAS_COND_XG_VOLTAGE "40.0000000000"
*MEAS_COND_XG_WAVE_TYPE "Ka"
*MEAS_DATA_COUNT "5001.0000000000"
*MEAS_SCAN_AXIS_X "2θ/θ"
*MEAS_SCAN_AXIS_X_INTERNAL "TwoThetaTheta"
*MEAS_SCAN_END_TIME "07/02/22 16:40:53"
*MEAS_SCAN_MODE "CONTINUOUS"
*MEAS_SCAN_MONITOR "0"
*MEAS_SCAN_RESOLUTION_X "0.0002"
*MEAS_SCAN_SPEED "2.5"
*MEAS_SCAN_SPEED_UNIT "deg/min"
*MEAS_SCAN_START "20.0000000000"
*MEAS_SCAN_START_TIME "07/02/22 16:19:29"
*MEAS_SCAN_STEP "0.0100000000"
*MEAS_SCAN_STOP "70.0000000000"
*MEAS_SCAN_UNIT_X "deg"
*MEAS_SCAN_UNIT_Y "counts"
*RAS_HEADER_END
*RAS_INT_START
20.0000 817.0000 1.0000
20.0100 860.0000 1.0000
20.0200 813.0000 1.0000
20.0300 843.0000 1.0000
20.0400 850.0000 1.0000
20.0500 845.0000 1.0000
20.0600 819.0000 1.0000
20.0700 886.0000 1.0000
20.0800 796.0000 1.0000
20.0900 826.0000 1.0000
20.1000 771.0000 1.0000
20.1100 849.0000 1.0000
20.1200 852.0000 1.0000
20.1300 831.0000 1.0000
20.1400 817.0000 1.0000
20.1500 801.0000 1.0000
20.1600 827.0000 1.0000
20.1700 844.0000 1.0000
20.1800 800.0000 1.0000
20.1900 841.0000 1.0000
20.2000 859.0000 1.0000
20.2100 865.0000 1.0000
20.2200 828.0000 1.0000
20.2300 822.0000 1.0000
20.2400 837.0000 1.0000
20.2500 830.0000 1.0000
20.2600 873.0000 1.0000
20.2700 824.0000 1.0000
20.2800 863.0000 1.0000
20.2900 816.0000 1.0000
20.3000 842.0000 1.0000
20.3100 790.0000 1.0000
20.3200 896.0000 1.0000
20.3300 845.0000 1.0000
20.3400 873.0000 1.0000
20.3500 859.0000 1.0000
20.3600 843.0000 1.0000
20.3700 828.0000 1.0000
20.3800 845.0000 1.0000
20.3900 822.0000 1.0000
20.4000 939.0000 1.0000
20.4100 877.0000 1.0000
20.4200 855.0000 1.0000
20.4300 846.0000 1.0000
20.4400 870.0000 1.0000
20.4500 846.0000 1.0000
20.4600 839.0000 1.0000
20.4700 776.0000 1.0000
20.4800 825.0000 1.0000
20.4900 841.0000 1.0000
20.5000 869.0000 1.0000
20.5100 875.0000 1.0000
20.5200 854.0000 1.0000
20.5300 876.0000 1.0000
20.5400 867.0000 1.0000
20.5500 880.0000 1.0000
20.5600 821.0000 1.0000
20.5700 862.0000 1.0000
20.5800 842.0000 1.0000
20.5900 853.0000 1.0000
20.6000 814.0000 1.0000
20.6100 843.0000 1.0000
20.6200 812.0000 1.0000
20.6300 866.0000 1.0000
20.6400 809.0000 1.0000
20.6500 840.0000 1.0000
20.6600 858.0000 1.0000
20.6700 864.0000 1.0000
20.6800 827.0000 1.0000
20.6900 857.0000 1.0000
20.7000 842.0000 1.0000
20.7100 805.0000 1.0000
20.7200 832.0000 1.0000
20.7300 837.0000 1.0000
20.7400 830.0000 1.0000
20.7500 857.0000 1.0000
20.7600 836.0000 1.0000
20.7700 783.0000 1.0000
20.7800 796.0000 1.0000
20.7900 785.0000 1.0000
20.8000 831.0000 1.0000
20.8100 894.0000 1.0000
20.8200 869.0000 1.0000
20.8300 845.0000 1.0000
20.8400 850.0000 1.0000
20.8500 844.0000 1.0000
20.8600 875.0000 1.0000
20.8700 834.0000 1.0000
20.8800 895.0000 1.0000
20.8900 827.0000 1.0000
20.9000 832.0000 1.0000
20.9100 844.0000 1.0000
20.9200 825.0000 1.0000
20.9300 833.0000 1.0000
20.9400 861.0000 1.0000
20.9500 847.0000 1.0000
20.9600 817.0000 1.0000
20.9700 802.0000 1.0000
20.9800 840.0000 1.0000
20.9900 827.0000 1.0000
21.0000 812.0000 1.0000
21.0100 862.0000 1.0000
21.0200 829.0000 1.0000
21.0300 818.0000 1.0000
21.0400 840.0000 1.0000
21.0500 870.0000 1.0000
21.0600 805.0000 1.0000
21.0700 863.0000 1.0000
21.0800 832.0000 1.0000
21.0900 817.0000 1.0000
21.1000 851.0000 1.0000
21.1100 793.0000 1.0000
21.1200 875.0000 1.0000
21.1300 887.0000 1.0000
21.1400 814.0000 1.0000
21.1500 839.0000 1.0000
21.1600 848.0000 1.0000
21.1700 830.0000 1.0000
21.1800 829.0000 1.0000
21.1900 866.0000 1.0000
21.2000 894.0000 1.0000
21.2100 890.0000 1.0000
21.2200 866.0000 1.0000
21.2300 875.0000 1.0000
21.2400 808.0000 1.0000
21.2500 804.0000 1.0000
21.2600 852.0000 1.0000
21.2700 836.0000 1.0000
21.2800 841.0000 1.0000
21.2900 857.0000 1.0000
21.3000 812.0000 1.0000
21.3100 839.0000 1.0000
21.3200 807.0000 1.0000
21.3300 853.0000 1.0000
21.3400 851.0000 1.0000
21.3500 811.0000 1.0000
21.3600 812.0000 1.0000
21.3700 847.0000 1.0000
21.3800 859.0000 1.0000
21.3900 829.0000 1.0000
21.4000 808.0000 1.0000
21.4100 829.0000 1.0000
21.4200 830.0000 1.0000
21.4300 837.0000 1.0000
21.4400 798.0000 1.0000
21.4500 822.0000 1.0000
21.4600 844.0000 1.0000
21.4700 861.0000 1.0000
21.4800 853.0000 1.0000
21.4900 792.0000 1.0000
21.5000 821.0000 1.0000
21.5100 824.0000 1.0000
21.5200 851.0000 1.0000
21.5300 802.0000 1.0000
21.5400 855.0000 1.0000
21.5500 828.0000 1.0000
21.5600 808.0000 1.0000
21.5700 845.0000 1.0000
21.5800 829.0000 1.0000
21.5900 836.0000 1.0000
21.6000 840.0000 1.0000
21.6100 828.0000 1.0000
21.6200 798.0000 1.0000
21.6300 836.0000 1.0000
21.6400 825.0000 1.0000
21.6500 836.0000 1.0000
21.6600 800.0000 1.0000
21.6700 791.0000 1.0000
21.6800 885.0000 1.0000
21.6900 821.0000 1.0000
21.7000 872.0000 1.0000
21.7100 852.0000 1.0000
21.7200 862.0000 1.0000
21.7300 849.0000 1.0000
21.7400 830.0000 1.0000
21.7500 879.0000 1.0000
21.7600 862.0000 1.0000
21.7700 863.0000 1.0000
21.7800 850.0000 1.0000
21.7900 802.0000 1.0000
21.8000 810.0000 1.0000
21.8100 824.0000 1.0000
21.8200 856.0000 1.0000
21.8300 788.0000 1.0000
21.8400 819.0000 1.0000
21.8500 840.0000 1.0000
21.8600 849.0000 1.0000
21.8700 805.0000 1.0000
21.8800 827.0000 1.0000
21.8900 763.0000 1.0000
21.9000 792.0000 1.0000
21.9100 872.0000 1.0000
21.9200 827.0000 1.0000
21.9300 827.0000 1.0000
21.9400 850.0000 1.0000
21.9500 838.0000 1.0000
21.9600 837.0000 1.0000
21.9700 807.0000 1.0000
21.9800 807.0000 1.0000
21.9900 814.0000 1.0000
22.0000 800.0000 1.0000
22.0100 783.0000 1.0000
22.0200 820.0000 1.0000
22.0300 842.0000 1.0000
22.0400 831.0000 1.0000
22.0500 809.0000 1.0000
22.0600 861.0000 1.0000
22.0700 822.0000 1.0000
22.0800 818.0000 1.0000
22.0900 837.0000 1.0000
22.1000 816.0000 1.0000
22.1100 800.0000 1.0000
22.1200 828.0000 1.0000
22.1300 799.0000 1.0000
22.1400 848.0000 1.0000
22.1500 830.0000 1.0000
22.1600 844.0000 1.0000
22.1700 770.0000 1.0000
22.1800 767.0000 1.0000
22.1900 842.0000 1.0000
22.2000 818.0000 1.0000
22.2100 828.0000 1.0000
22.2200 847.0000 1.0000
22.2300 819.0000 1.0000
22.2400 865.0000 1.0000
22.2500 789.0000 1.0000
22.2600 816.0000 1.0000
22.2700 821.0000 1.0000
22.2800 803.0000 1.0000
22.2900 808.0000 1.0000
22.3000 821.0000 1.0000
22.3100 840.0000 1.0000
22.3200 861.0000 1.0000
22.3300 844.0000 1.0000
22.3400 854.0000 1.0000
22.3500 825.0000 1.0000
22.3600 824.0000 1.0000
22.3700 850.0000 1.0000
22.3800 806.0000 1.0000
22.3900 838.0000 1.0000
22.4000 828.0000 1.0000
22.4100 823.0000 1.0000
22.4200 844.0000 1.0000
22.4300 806.0000 1.0000
22.4400 804.0000 1.0000
22.4500 806.0000 1.0000
22.4600 771.0000 1.0000
22.4700 796.0000 1.0000
22.4800 797.0000 1.0000
22.4900 822.0000 1.0000
22.5000 833.0000 1.0000
22.5100 853.0000 1.0000
22.5200 852.0000 1.0000
22.5300 839.0000 1.0000
22.5400 782.0000 1.0000
22.5500 825.0000 1.0000
22.5600 836.0000 1.0000
22.5700 834.0000 1.0000
22.5800 825.0000 1.0000
22.5900 824.0000 1.0000
22.6000 821.0000 1.0000
22.6100 774.0000 1.0000
22.6200 822.0000 1.0000
22.6300 852.0000 1.0000
22.6400 812.0000 1.0000
22.6500 800.0000 1.0000
22.6600 802.0000 1.0000
22.6700 819.0000 1.0000
22.6800 857.0000 1.0000
22.6900 818.0000 1.0000
22.7000 808.0000 1.0000
22.7100 843.0000 1.0000
22.7200 815.0000 1.0000
22.7300 838.0000 1.0000
22.7400 816.0000 1.0000
22.7500 862.0000 1.0000
22.7600 817.0000 1.0000
22.7700 841.0000 1.0000
22.7800 896.0000 1.0000
22.7900 789.0000 1.0000
22.8000 857.0000 1.0000
22.8100 821.0000 1.0000
22.8200 879.0000 1.0000
22.8300 810.0000 1.0000
22.8400 804.0000 1.0000
22.8500 797.0000 1.0000
22.8600 822.0000 1.0000
22.8700 817.0000 1.0000
22.8800 893.0000 1.0000
22.8900 845.0000 1.0000
22.9000 813.0000 1.0000
22.9100 773.0000 1.0000
22.9200 749.0000 1.0000
22.9300 792.0000 1.0000
22.9400 845.0000 1.0000
22.9500 826.0000 1.0000
22.9600 789.0000 1.0000
22.9700 796.0000 1.0000
22.9800 854.0000 1.0000
22.9900 828.0000 1.0000
23.0000 864.0000 1.0000
23.0100 831.0000 1.0000
23.0200 832.0000 1.0000
23.0300 822.0000 1.0000
23.0400 804.0000 1.0000
23.0500 838.0000 1.0000
23.0600 841.0000 1.0000
23.0700 807.0000 1.0000
23.0800 834.0000 1.0000
23.0900 794.0000 1.0000
23.1000 855.0000 1.0000
23.1100 849.0000 1.0000
23.1200 835.0000 1.0000
23.1300 835.0000 1.0000
23.1400 777.0000 1.0000
23.1500 778.0000 1.0000
23.1600 772.0000 1.0000
23.1700 830.0000 1.0000
23.1800 793.0000 1.0000
23.1900 763.0000 1.0000
23.2000 843.0000 1.0000
23.2100 826.0000 1.0000
23.2200 838.0000 1.0000
23.2300 836.0000 1.0000
23.2400 840.0000 1.0000
23.2500 839.0000 1.0000
23.2600 816.0000 1.0000
23.2700 839.0000 1.0000
23.2800 822.0000 1.0000
23.2900 830.0000 1.0000
23.3000 848.0000 1.0000
23.3100 853.0000 1.0000
23.3200 820.0000 1.0000
23.3300 796.0000 1.0000
23.3400 772.0000 1.0000
23.3500 773.0000 1.0000
23.3600 829.0000 1.0000
23.3700 844.0000 1.0000
23.3800 841.0000 1.0000
23.3900 828.0000 1.0000
23.4000 867.0000 1.0000
23.4100 818.0000 1.0000
23.4200 817.0000 1.0000
23.4300 860.0000 1.0000
23.4400 806.0000 1.0000
23.4500 815.0000 1.0000
23.4600 825.0000 1.0000
23.4700 808.0000 1.0000
23.4800 828.0000 1.0000
23.4900 810.0000 1.0000
23.5000 824.0000 1.0000
23.5100 780.0000 1.0000
23.5200 794.0000 1.0000
23.5300 784.0000 1.0000
23.5400 842.0000 1.0000
23.5500 850.0000 1.0000
23.5600 848.0000 1.0000
23.5700 823.0000 1.0000
23.5800 798.0000 1.0000
23.5900 820.0000 1.0000
23.6000 783.0000 1.0000
23.6100 760.0000 1.0000
23.6200 799.0000 1.0000
23.6300 850.0000 1.0000
23.6400 809.0000 1.0000
23.6500 824.0000 1.0000
23.6600 778.0000 1.0000
23.6700 801.0000 1.0000
23.6800 821.0000 1.0000
23.6900 793.0000 1.0000
23.7000 796.0000 1.0000
23.7100 905.0000 1.0000
23.7200 844.0000 1.0000
23.7300 821.0000 1.0000
23.7400 830.0000 1.0000
23.7500 848.0000 1.0000
23.7600 846.0000 1.0000
23.7700 824.0000 1.0000
23.7800 794.0000 1.0000
23.7900 844.0000 1.0000
23.8000 847.0000 1.0000
23.8100 860.0000 1.0000
23.8200 792.0000 1.0000
23.8300 811.0000 1.0000
23.8400 837.0000 1.0000
23.8500 840.0000 1.0000
23.8600 835.0000 1.0000
23.8700 825.0000 1.0000
23.8800 848.0000 1.0000
23.8900 850.0000 1.0000
23.9000 790.0000 1.0000
23.9100 805.0000 1.0000
23.9200 856.0000 1.0000
23.9300 820.0000 1.0000
23.9400 807.0000 1.0000
23.9500 876.0000 1.0000
23.9600 859.0000 1.0000
23.9700 804.0000 1.0000
23.9800 841.0000 1.0000
23.9900 855.0000 1.0000
24.0000 865.0000 1.0000
24.0100 899.0000 1.0000
24.0200 862.0000 1.0000
24.0300 876.0000 1.0000
24.0400 898.0000 1.0000
24.0500 871.0000 1.0000
24.0600 902.0000 1.0000
24.0700 885.0000 1.0000
24.0800 890.0000 1.0000
24.0900 917.0000 1.0000
24.1000 893.0000 1.0000
24.1100 876.0000 1.0000
24.1200 874.0000 1.0000
24.1300 919.0000 1.0000
24.1400 884.0000 1.0000
24.1500 900.0000 1.0000
24.1600 833.0000 1.0000
24.1700 859.0000 1.0000
24.1800 855.0000 1.0000
24.1900 866.0000 1.0000
24.2000 907.0000 1.0000
24.2100 808.0000 1.0000
24.2200 796.0000 1.0000
24.2300 824.0000 1.0000
24.2400 814.0000 1.0000
24.2500 825.0000 1.0000
24.2600 861.0000 1.0000
24.2700 819.0000 1.0000
24.2800 815.0000 1.0000
24.2900 843.0000 1.0000
24.3000 826.0000 1.0000
24.3100 846.0000 1.0000
24.3200 829.0000 1.0000
24.3300 862.0000 1.0000
24.3400 868.0000 1.0000
24.3500 848.0000 1.0000
24.3600 851.0000 1.0000
24.3700 814.0000 1.0000
24.3800 814.0000 1.0000
24.3900 817.0000 1.0000
24.4000 831.0000 1.0000
24.4100 818.0000 1.0000
24.4200 815.0000 1.0000
24.4300 811.0000 1.0000
24.4400 855.0000 1.0000
24.4500 841.0000 1.0000
24.4600 798.0000 1.0000
24.4700 808.0000 1.0000
24.4800 809.0000 1.0000
24.4900 808.0000 1.0000
24.5000 895.0000 1.0000
24.5100 838.0000 1.0000
24.5200 801.0000 1.0000
24.5300 811.0000 1.0000
24.5400 782.0000 1.0000
24.5500 799.0000 1.0000
24.5600 793.0000 1.0000
24.5700 783.0000 1.0000
24.5800 786.0000 1.0000
24.5900 775.0000 1.0000
24.6000 831.0000 1.0000
24.6100 811.0000 1.0000
24.6200 812.0000 1.0000
24.6300 814.0000 1.0000
24.6400 820.0000 1.0000
24.6500 788.0000 1.0000
24.6600 841.0000 1.0000
24.6700 785.0000 1.0000
24.6800 796.0000 1.0000
24.6900 833.0000 1.0000
24.7000 848.0000 1.0000
24.7100 808.0000 1.0000
24.7200 823.0000 1.0000
24.7300 801.0000 1.0000
24.7400 813.0000 1.0000
24.7500 808.0000 1.0000
24.7600 809.0000 1.0000
24.7700 794.0000 1.0000
24.7800 852.0000 1.0000
24.7900 817.0000 1.0000
24.8000 769.0000 1.0000
24.8100 811.0000 1.0000
24.8200 787.0000 1.0000
24.8300 775.0000 1.0000
24.8400 799.0000 1.0000
24.8500 816.0000 1.0000
24.8600 840.0000 1.0000
24.8700 795.0000 1.0000
24.8800 775.0000 1.0000
24.8900 797.0000 1.0000
24.9000 775.0000 1.0000
24.9100 802.0000 1.0000
24.9200 757.0000 1.0000
24.9300 760.0000 1.0000
24.9400 772.0000 1.0000
24.9500 792.0000 1.0000
24.9600 831.0000 1.0000
24.9700 771.0000 1.0000
24.9800 799.0000 1.0000
24.9900 811.0000 1.0000
25.0000 779.0000 1.0000
25.0100 810.0000 1.0000
25.0200 794.0000 1.0000
25.0300 811.0000 1.0000
25.0400 827.0000 1.0000
25.0500 773.0000 1.0000
25.0600 769.0000 1.0000
25.0700 816.0000 1.0000
25.0800 799.0000 1.0000
25.0900 790.0000 1.0000
25.1000 791.0000 1.0000
25.1100 794.0000 1.0000
25.1200 792.0000 1.0000
25.1300 790.0000 1.0000
25.1400 767.0000 1.0000
25.1500 804.0000 1.0000
25.1600 771.0000 1.0000
25.1700 849.0000 1.0000
25.1800 787.0000 1.0000
25.1900 840.0000 1.0000
25.2000 784.0000 1.0000
25.2100 781.0000 1.0000
25.2200 833.0000 1.0000
25.2300 788.0000 1.0000
25.2400 785.0000 1.0000
25.2500 787.0000 1.0000
25.2600 816.0000 1.0000
25.2700 758.0000 1.0000
25.2800 755.0000 1.0000
25.2900 828.0000 1.0000
25.3000 781.0000 1.0000
25.3100 826.0000 1.0000
25.3200 831.0000 1.0000
25.3300 779.0000 1.0000
25.3400 812.0000 1.0000
25.3500 791.0000 1.0000
25.3600 845.0000 1.0000
25.3700 771.0000 1.0000
25.3800 773.0000 1.0000
25.3900 796.0000 1.0000
25.4000 791.0000 1.0000
25.4100 820.0000 1.0000
25.4200 757.0000 1.0000
25.4300 823.0000 1.0000
25.4400 827.0000 1.0000
25.4500 787.0000 1.0000
25.4600 788.0000 1.0000
25.4700 792.0000 1.0000
25.4800 821.0000 1.0000
25.4900 801.0000 1.0000
25.5000 811.0000 1.0000
25.5100 753.0000 1.0000
25.5200 784.0000 1.0000
25.5300 797.0000 1.0000
25.5400 836.0000 1.0000
25.5500 785.0000 1.0000
25.5600 793.0000 1.0000
25.5700 832.0000 1.0000
25.5800 794.0000 1.0000
25.5900 834.0000 1.0000
25.6000 816.0000 1.0000
25.6100 826.0000 1.0000
25.6200 801.0000 1.0000
25.6300 790.0000 1.0000
25.6400 823.0000 1.0000
25.6500 803.0000 1.0000
25.6600 864.0000 1.0000
25.6700 833.0000 1.0000
25.6800 847.0000 1.0000
25.6900 802.0000 1.0000
25.7000 837.0000 1.0000
25.7100 851.0000 1.0000
25.7200 842.0000 1.0000
25.7300 832.0000 1.0000
25.7400 848.0000 1.0000
25.7500 817.0000 1.0000
25.7600 792.0000 1.0000
25.7700 800.0000 1.0000
25.7800 813.0000 1.0000
25.7900 837.0000 1.0000
25.8000 831.0000 1.0000
25.8100 805.0000 1.0000
25.8200 808.0000 1.0000
25.8300 878.0000 1.0000
25.8400 884.0000 1.0000
25.8500 875.0000 1.0000
25.8600 826.0000 1.0000
25.8700 866.0000 1.0000
25.8800 844.0000 1.0000
25.8900 774.0000 1.0000
25.9000 861.0000 1.0000
25.9100 855.0000 1.0000
25.9200 848.0000 1.0000
25.9300 834.0000 1.0000
25.9400 860.0000 1.0000
25.9500 913.0000 1.0000
25.9600 819.0000 1.0000
25.9700 847.0000 1.0000
25.9800 879.0000 1.0000
25.9900 884.0000 1.0000
26.0000 876.0000 1.0000
26.0100 896.0000 1.0000
26.0200 895.0000 1.0000
26.0300 885.0000 1.0000
26.0400 861.0000 1.0000
26.0500 875.0000 1.0000
26.0600 881.0000 1.0000
26.0700 881.0000 1.0000
26.0800 917.0000 1.0000
26.0900 936.0000 1.0000
26.1000 896.0000 1.0000
26.1100 937.0000 1.0000
26.1200 994.0000 1.0000
26.1300 998.0000 1.0000
26.1400 968.0000 1.0000
26.1500 974.0000 1.0000
26.1600 999.0000 1.0000
26.1700 1053.0000 1.0000
26.1800 1061.0000 1.0000
26.1900 1084.0000 1.0000
26.2000 1098.0000 1.0000
26.2100 1118.0000 1.0000
26.2200 1180.0000 1.0000
26.2300 1220.0000 1.0000
26.2400 1255.0000 1.0000
26.2500 1302.0000 1.0000
26.2600 1348.0000 1.0000
26.2700 1321.0000 1.0000
26.2800 1395.0000 1.0000
26.2900 1466.0000 1.0000
26.3000 1464.0000 1.0000
26.3100 1566.0000 1.0000
26.3200 1568.0000 1.0000
26.3300 1662.0000 1.0000
26.3400 1815.0000 1.0000
26.3500 1886.0000 1.0000
26.3600 1997.0000 1.0000
26.3700 2141.0000 1.0000
26.3800 2185.0000 1.0000
26.3900 2395.0000 1.0000
26.4000 2468.0000 1.0000
26.4100 2506.0000 1.0000
26.4200 2664.0000 1.0000
26.4300 2826.0000 1.0000
26.4400 2844.0000 1.0000
26.4500 2931.0000 1.0000
26.4600 3065.0000 1.0000
26.4700 3028.0000 1.0000
26.4800 2900.0000 1.0000
26.4900 2797.0000 1.0000
26.5000 2841.0000 1.0000
26.5100 2611.0000 1.0000
26.5200 2542.0000 1.0000
26.5300 2504.0000 1.0000
26.5400 2367.0000 1.0000
26.5500 2195.0000 1.0000
26.5600 2074.0000 1.0000
26.5700 2038.0000 1.0000
26.5800 1866.0000 1.0000
26.5900 1750.0000 1.0000
26.6000 1646.0000 1.0000
26.6100 1555.0000 1.0000
26.6200 1409.0000 1.0000
26.6300 1454.0000 1.0000
26.6400 1389.0000 1.0000
26.6500 1413.0000 1.0000
26.6600 1288.0000 1.0000
26.6700 1219.0000 1.0000
26.6800 1190.0000 1.0000
26.6900 1186.0000 1.0000
26.7000 1126.0000 1.0000
26.7100 1093.0000 1.0000
26.7200 1142.0000 1.0000
26.7300 1057.0000 1.0000
26.7400 1073.0000 1.0000
26.7500 1060.0000 1.0000
26.7600 1021.0000 1.0000
26.7700 996.0000 1.0000
26.7800 936.0000 1.0000
26.7900 934.0000 1.0000
26.8000 945.0000 1.0000
26.8100 910.0000 1.0000
26.8200 912.0000 1.0000
26.8300 897.0000 1.0000
26.8400 924.0000 1.0000
26.8500 888.0000 1.0000
26.8600 901.0000 1.0000
26.8700 929.0000 1.0000
26.8800 860.0000 1.0000
26.8900 853.0000 1.0000
26.9000 826.0000 1.0000
26.9100 852.0000 1.0000
26.9200 839.0000 1.0000
26.9300 791.0000 1.0000
26.9400 833.0000 1.0000
26.9500 795.0000 1.0000
26.9600 824.0000 1.0000
26.9700 819.0000 1.0000
26.9800 838.0000 1.0000
26.9900 810.0000 1.0000
27.0000 804.0000 1.0000
27.0100 822.0000 1.0000
27.0200 814.0000 1.0000
27.0300 799.0000 1.0000
27.0400 806.0000 1.0000
27.0500 805.0000 1.0000
27.0600 829.0000 1.0000
27.0700 802.0000 1.0000
27.0800 789.0000 1.0000
27.0900 811.0000 1.0000
27.1000 786.0000 1.0000
27.1100 789.0000 1.0000
27.1200 703.0000 1.0000
27.1300 770.0000 1.0000
27.1400 802.0000 1.0000
27.1500 743.0000 1.0000
27.1600 787.0000 1.0000
27.1700 801.0000 1.0000
27.1800 782.0000 1.0000
27.1900 812.0000 1.0000
27.2000 807.0000 1.0000
27.2100 725.0000 1.0000
27.2200 766.0000 1.0000
27.2300 749.0000 1.0000
27.2400 775.0000 1.0000
27.2500 792.0000 1.0000
27.2600 782.0000 1.0000
27.2700 742.0000 1.0000
27.2800 749.0000 1.0000
27.2900 711.0000 1.0000
27.3000 749.0000 1.0000
27.3100 760.0000 1.0000
27.3200 775.0000 1.0000
27.3300 711.0000 1.0000
27.3400 770.0000 1.0000
27.3500 717.0000 1.0000
27.3600 777.0000 1.0000
27.3700 756.0000 1.0000
27.3800 743.0000 1.0000
27.3900 744.0000 1.0000
27.4000 761.0000 1.0000
27.4100 729.0000 1.0000
27.4200 773.0000 1.0000
27.4300 736.0000 1.0000
27.4400 725.0000 1.0000
27.4500 722.0000 1.0000
27.4600 725.0000 1.0000
27.4700 734.0000 1.0000
27.4800 722.0000 1.0000
27.4900 712.0000 1.0000
27.5000 766.0000 1.0000
27.5100 745.0000 1.0000
27.5200 793.0000 1.0000
27.5300 765.0000 1.0000
27.5400 728.0000 1.0000
27.5500 735.0000 1.0000
27.5600 765.0000 1.0000
27.5700 712.0000 1.0000
27.5800 750.0000 1.0000
27.5900 749.0000 1.0000
27.6000 690.0000 1.0000
27.6100 756.0000 1.0000
27.6200 708.0000 1.0000
27.6300 728.0000 1.0000
27.6400 741.0000 1.0000
27.6500 772.0000 1.0000
27.6600 735.0000 1.0000
27.6700 739.0000 1.0000
27.6800 751.0000 1.0000
27.6900 731.0000 1.0000
27.7000 726.0000 1.0000
27.7100 731.0000 1.0000
27.7200 755.0000 1.0000
27.7300 711.0000 1.0000
27.7400 742.0000 1.0000
27.7500 735.0000 1.0000
27.7600 730.0000 1.0000
27.7700 715.0000 1.0000
27.7800 691.0000 1.0000
27.7900 740.0000 1.0000
27.8000 721.0000 1.0000
27.8100 754.0000 1.0000
27.8200 699.0000 1.0000
27.8300 691.0000 1.0000
27.8400 687.0000 1.0000
27.8500 658.0000 1.0000
27.8600 734.0000 1.0000
27.8700 743.0000 1.0000
27.8800 731.0000 1.0000
27.8900 718.0000 1.0000
27.9000 720.0000 1.0000
27.9100 726.0000 1.0000
27.9200 711.0000 1.0000
27.9300 698.0000 1.0000
27.9400 683.0000 1.0000
27.9500 699.0000 1.0000
27.9600 742.0000 1.0000
27.9700 692.0000 1.0000
27.9800 691.0000 1.0000
27.9900 697.0000 1.0000
28.0000 713.0000 1.0000
28.0100 738.0000 1.0000
28.0200 705.0000 1.0000
28.0300 748.0000 1.0000
28.0400 690.0000 1.0000
28.0500 692.0000 1.0000
28.0600 738.0000 1.0000
28.0700 730.0000 1.0000
28.0800 725.0000 1.0000
28.0900 703.0000 1.0000
28.1000 737.0000 1.0000
28.1100 715.0000 1.0000
28.1200 691.0000 1.0000
28.1300 694.0000 1.0000
28.1400 693.0000 1.0000
28.1500 709.0000 1.0000
28.1600 704.0000 1.0000
28.1700 699.0000 1.0000
28.1800 730.0000 1.0000
28.1900 708.0000 1.0000
28.2000 724.0000 1.0000
28.2100 741.0000 1.0000
28.2200 717.0000 1.0000
28.2300 725.0000 1.0000
28.2400 675.0000 1.0000
28.2500 727.0000 1.0000
28.2600 704.0000 1.0000
28.2700 674.0000 1.0000
28.2800 732.0000 1.0000
28.2900 712.0000 1.0000
28.3000 715.0000 1.0000
28.3100 684.0000 1.0000
28.3200 687.0000 1.0000
28.3300 704.0000 1.0000
28.3400 714.0000 1.0000
28.3500 725.0000 1.0000
28.3600 702.0000 1.0000
28.3700 730.0000 1.0000
28.3800 695.0000 1.0000
28.3900 711.0000 1.0000
28.4000 705.0000 1.0000
28.4100 722.0000 1.0000
28.4200 697.0000 1.0000
28.4300 696.0000 1.0000
28.4400 727.0000 1.0000
28.4500 708.0000 1.0000
28.4600 702.0000 1.0000
28.4700 686.0000 1.0000
28.4800 743.0000 1.0000
28.4900 706.0000 1.0000
28.5000 691.0000 1.0000
28.5100 673.0000 1.0000
28.5200 670.0000 1.0000
28.5300 719.0000 1.0000
28.5400 693.0000 1.0000
28.5500 692.0000 1.0000
28.5600 680.0000 1.0000
28.5700 691.0000 1.0000
28.5800 666.0000 1.0000
28.5900 690.0000 1.0000
28.6000 677.0000 1.0000
28.6100 697.0000 1.0000
28.6200 689.0000 1.0000
28.6300 707.0000 1.0000
28.6400 653.0000 1.0000
28.6500 683.0000 1.0000
28.6600 668.0000 1.0000
28.6700 708.0000 1.0000
28.6800 712.0000 1.0000
28.6900 719.0000 1.0000
28.7000 663.0000 1.0000
28.7100 670.0000 1.0000
28.7200 662.0000 1.0000
28.7300 693.0000 1.0000
28.7400 697.0000 1.0000
28.7500 705.0000 1.0000
28.7600 671.0000 1.0000
28.7700 669.0000 1.0000
28.7800 696.0000 1.0000
28.7900 683.0000 1.0000
28.8000 651.0000 1.0000
28.8100 680.0000 1.0000
28.8200 705.0000 1.0000
28.8300 620.0000 1.0000
28.8400 650.0000 1.0000
28.8500 674.0000 1.0000
28.8600 694.0000 1.0000
28.8700 659.0000 1.0000
28.8800 711.0000 1.0000
28.8900 733.0000 1.0000
28.9000 659.0000 1.0000
28.9100 679.0000 1.0000
28.9200 672.0000 1.0000
28.9300 654.0000 1.0000
28.9400 692.0000 1.0000
28.9500 642.0000 1.0000
28.9600 663.0000 1.0000
28.9700 629.0000 1.0000
28.9800 673.0000 1.0000
28.9900 659.0000 1.0000
29.0000 676.0000 1.0000
29.0100 694.0000 1.0000
29.0200 673.0000 1.0000
29.0300 686.0000 1.0000
29.0400 630.0000 1.0000
29.0500 649.0000 1.0000
29.0600 674.0000 1.0000
29.0700 690.0000 1.0000
29.0800 695.0000 1.0000
29.0900 670.0000 1.0000
29.1000 662.0000 1.0000
29.1100 687.0000 1.0000
29.1200 699.0000 1.0000
29.1300 679.0000 1.0000
29.1400 670.0000 1.0000
29.1500 674.0000 1.0000
29.1600 664.0000 1.0000
29.1700 638.0000 1.0000
29.1800 674.0000 1.0000
29.1900 665.0000 1.0000
29.2000 662.0000 1.0000
29.2100 674.0000 1.0000
29.2200 645.0000 1.0000
29.2300 668.0000 1.0000
29.2400 667.0000 1.0000
29.2500 670.0000 1.0000
29.2600 692.0000 1.0000
29.2700 664.0000 1.0000
29.2800 675.0000 1.0000
29.2900 649.0000 1.0000
29.3000 636.0000 1.0000
29.3100 646.0000 1.0000
29.3200 674.0000 1.0000
29.3300 634.0000 1.0000
29.3400 657.0000 1.0000
29.3500 673.0000 1.0000
29.3600 654.0000 1.0000
29.3700 622.0000 1.0000
29.3800 703.0000 1.0000
29.3900 661.0000 1.0000
29.4000 677.0000 1.0000
29.4100 680.0000 1.0000
29.4200 665.0000 1.0000
29.4300 676.0000 1.0000
29.4400 673.0000 1.0000
29.4500 660.0000 1.0000
29.4600 638.0000 1.0000
29.4700 705.0000 1.0000
29.4800 720.0000 1.0000
29.4900 633.0000 1.0000
29.5000 660.0000 1.0000
29.5100 690.0000 1.0000
29.5200 625.0000 1.0000
29.5300 655.0000 1.0000
29.5400 662.0000 1.0000
29.5500 655.0000 1.0000
29.5600 644.0000 1.0000
29.5700 621.0000 1.0000
29.5800 661.0000 1.0000
29.5900 635.0000 1.0000
29.6000 686.0000 1.0000
29.6100 680.0000 1.0000
29.6200 658.0000 1.0000
29.6300 633.0000 1.0000
29.6400 666.0000 1.0000
29.6500 664.0000 1.0000
29.6600 668.0000 1.0000
29.6700 599.0000 1.0000
29.6800 704.0000 1.0000
29.6900 664.0000 1.0000
29.7000 660.0000 1.0000
29.7100 653.0000 1.0000
29.7200 651.0000 1.0000
29.7300 677.0000 1.0000
29.7400 653.0000 1.0000
29.7500 641.0000 1.0000
29.7600 664.0000 1.0000
29.7700 677.0000 1.0000
29.7800 610.0000 1.0000
29.7900 624.0000 1.0000
29.8000 612.0000 1.0000
29.8100 700.0000 1.0000
29.8200 657.0000 1.0000
29.8300 653.0000 1.0000
29.8400 647.0000 1.0000
29.8500 668.0000 1.0000
29.8600 659.0000 1.0000
29.8700 630.0000 1.0000
29.8800 648.0000 1.0000
29.8900 616.0000 1.0000
29.9000 622.0000 1.0000
29.9100 635.0000 1.0000
29.9200 634.0000 1.0000
29.9300 685.0000 1.0000
29.9400 618.0000 1.0000
29.9500 636.0000 1.0000
29.9600 609.0000 1.0000
29.9700 629.0000 1.0000
29.9800 652.0000 1.0000
29.9900 662.0000 1.0000
30.0000 669.0000 1.0000
30.0100 663.0000 1.0000
30.0200 610.0000 1.0000
30.0300 624.0000 1.0000
30.0400 654.0000 1.0000
30.0500 631.0000 1.0000
30.0600 622.0000 1.0000
30.0700 662.0000 1.0000
30.0800 608.0000 1.0000
30.0900 646.0000 1.0000
30.1000 680.0000 1.0000
30.1100 629.0000 1.0000
30.1200 658.0000 1.0000
30.1300 665.0000 1.0000
30.1400 615.0000 1.0000
30.1500 639.0000 1.0000
30.1600 613.0000 1.0000
30.1700 636.0000 1.0000
30.1800 622.0000 1.0000
30.1900 663.0000 1.0000
30.2000 630.0000 1.0000
30.2100 644.0000 1.0000
30.2200 658.0000 1.0000
30.2300 647.0000 1.0000
30.2400 636.0000 1.0000
30.2500 625.0000 1.0000
30.2600 661.0000 1.0000
30.2700 697.0000 1.0000
30.2800 700.0000 1.0000
30.2900 636.0000 1.0000
30.3000 652.0000 1.0000
30.3100 637.0000 1.0000
30.3200 662.0000 1.0000
30.3300 621.0000 1.0000
30.3400 620.0000 1.0000
30.3500 610.0000 1.0000
30.3600 623.0000 1.0000
30.3700 633.0000 1.0000
30.3800 632.0000 1.0000
30.3900 653.0000 1.0000
30.4000 670.0000 1.0000
30.4100 660.0000 1.0000
30.4200 636.0000 1.0000
30.4300 582.0000 1.0000
30.4400 652.0000 1.0000
30.4500 644.0000 1.0000
30.4600 674.0000 1.0000
30.4700 631.0000 1.0000
30.4800 611.0000 1.0000
30.4900 606.0000 1.0000
30.5000 616.0000 1.0000
30.5100 626.0000 1.0000
30.5200 632.0000 1.0000
30.5300 616.0000 1.0000
30.5400 618.0000 1.0000
30.5500 649.0000 1.0000
30.5600 644.0000 1.0000
30.5700 652.0000 1.0000
30.5800 636.0000 1.0000
30.5900 655.0000 1.0000
30.6000 652.0000 1.0000
30.6100 638.0000 1.0000
30.6200 593.0000 1.0000
30.6300 611.0000 1.0000
30.6400 672.0000 1.0000
30.6500 609.0000 1.0000
30.6600 622.0000 1.0000
30.6700 642.0000 1.0000
30.6800 632.0000 1.0000
30.6900 650.0000 1.0000
30.7000 589.0000 1.0000
30.7100 597.0000 1.0000
30.7200 614.0000 1.0000
30.7300 645.0000 1.0000
30.7400 594.0000 1.0000
30.7500 654.0000 1.0000
30.7600 665.0000 1.0000
30.7700 667.0000 1.0000
30.7800 626.0000 1.0000
30.7900 626.0000 1.0000
30.8000 572.0000 1.0000
30.8100 583.0000 1.0000
30.8200 602.0000 1.0000
30.8300 604.0000 1.0000
30.8400 615.0000 1.0000
30.8500 662.0000 1.0000
30.8600 684.0000 1.0000
30.8700 640.0000 1.0000
30.8800 609.0000 1.0000
30.8900 605.0000 1.0000
30.9000 602.0000 1.0000
30.9100 592.0000 1.0000
30.9200 597.0000 1.0000
30.9300 625.0000 1.0000
30.9400 622.0000 1.0000
30.9500 637.0000 1.0000
30.9600 646.0000 1.0000
30.9700 609.0000 1.0000
30.9800 653.0000 1.0000
30.9900 669.0000 1.0000
31.0000 644.0000 1.0000
31.0100 640.0000 1.0000
31.0200 585.0000 1.0000
31.0300 598.0000 1.0000
31.0400 592.0000 1.0000
31.0500 643.0000 1.0000
31.0600 571.0000 1.0000
31.0700 623.0000 1.0000
31.0800 614.0000 1.0000
31.0900 622.0000 1.0000
31.1000 640.0000 1.0000
31.1100 629.0000 1.0000
31.1200 612.0000 1.0000
31.1300 636.0000 1.0000
31.1400 645.0000 1.0000
31.1500 644.0000 1.0000
31.1600 672.0000 1.0000
31.1700 648.0000 1.0000
31.1800 642.0000 1.0000
31.1900 637.0000 1.0000
31.2000 604.0000 1.0000
31.2100 611.0000 1.0000
31.2200 637.0000 1.0000
31.2300 614.0000 1.0000
31.2400 592.0000 1.0000
31.2500 642.0000 1.0000
31.2600 619.0000 1.0000
31.2700 617.0000 1.0000
31.2800 634.0000 1.0000
31.2900 627.0000 1.0000
31.3000 646.0000 1.0000
31.3100 584.0000 1.0000
31.3200 575.0000 1.0000
31.3300 618.0000 1.0000
31.3400 617.0000 1.0000
31.3500 625.0000 1.0000
31.3600 595.0000 1.0000
31.3700 618.0000 1.0000
31.3800 608.0000 1.0000
31.3900 603.0000 1.0000
31.4000 599.0000 1.0000
31.4100 612.0000 1.0000
31.4200 648.0000 1.0000
31.4300 571.0000 1.0000
31.4400 595.0000 1.0000
31.4500 556.0000 1.0000
31.4600 623.0000 1.0000
31.4700 585.0000 1.0000
31.4800 614.0000 1.0000
31.4900 560.0000 1.0000
31.5000 571.0000 1.0000
31.5100 606.0000 1.0000
31.5200 653.0000 1.0000
31.5300 642.0000 1.0000
31.5400 609.0000 1.0000
31.5500 612.0000 1.0000
31.5600 622.0000 1.0000
31.5700 618.0000 1.0000
31.5800 592.0000 1.0000
31.5900 589.0000 1.0000
31.6000 583.0000 1.0000
31.6100 597.0000 1.0000
31.6200 598.0000 1.0000
31.6300 620.0000 1.0000
31.6400 627.0000 1.0000
31.6500 618.0000 1.0000
31.6600 613.0000 1.0000
31.6700 618.0000 1.0000
31.6800 590.0000 1.0000
31.6900 591.0000 1.0000
31.7000 564.0000 1.0000
31.7100 576.0000 1.0000
31.7200 586.0000 1.0000
31.7300 578.0000 1.0000
31.7400 595.0000 1.0000
31.7500 583.0000 1.0000
31.7600 623.0000 1.0000
31.7700 595.0000 1.0000
31.7800 612.0000 1.0000
31.7900 632.0000 1.0000
31.8000 607.0000 1.0000
31.8100 573.0000 1.0000
31.8200 550.0000 1.0000
31.8300 582.0000 1.0000
31.8400 631.0000 1.0000
31.8500 626.0000 1.0000
31.8600 576.0000 1.0000
31.8700 610.0000 1.0000
31.8800 601.0000 1.0000
31.8900 626.0000 1.0000
31.9000 645.0000 1.0000
31.9100 623.0000 1.0000
31.9200 594.0000 1.0000
31.9300 601.0000 1.0000
31.9400 564.0000 1.0000
31.9500 592.0000 1.0000
31.9600 599.0000 1.0000
31.9700 615.0000 1.0000
31.9800 593.0000 1.0000
31.9900 600.0000 1.0000
32.0000 592.0000 1.0000
32.0100 573.0000 1.0000
32.0200 558.0000 1.0000
32.0300 635.0000 1.0000
32.0400 589.0000 1.0000
32.0500 627.0000 1.0000
32.0600 595.0000 1.0000
32.0700 591.0000 1.0000
32.0800 581.0000 1.0000
32.0900 562.0000 1.0000
32.1000 594.0000 1.0000
32.1100 609.0000 1.0000
32.1200 602.0000 1.0000
32.1300 563.0000 1.0000
32.1400 593.0000 1.0000
32.1500 580.0000 1.0000
32.1600 573.0000 1.0000
32.1700 583.0000 1.0000
32.1800 538.0000 1.0000
32.1900 541.0000 1.0000
32.2000 523.0000 1.0000
32.2100 628.0000 1.0000
32.2200 622.0000 1.0000
32.2300 590.0000 1.0000
32.2400 579.0000 1.0000
32.2500 590.0000 1.0000
32.2600 591.0000 1.0000
32.2700 608.0000 1.0000
32.2800 584.0000 1.0000
32.2900 602.0000 1.0000
32.3000 587.0000 1.0000
32.3100 569.0000 1.0000
32.3200 561.0000 1.0000
32.3300 575.0000 1.0000
32.3400 579.0000 1.0000
32.3500 622.0000 1.0000
32.3600 564.0000 1.0000
32.3700 584.0000 1.0000
32.3800 601.0000 1.0000
32.3900 561.0000 1.0000
32.4000 583.0000 1.0000
32.4100 565.0000 1.0000
32.4200 613.0000 1.0000
32.4300 596.0000 1.0000
32.4400 588.0000 1.0000
32.4500 588.0000 1.0000
32.4600 588.0000 1.0000
32.4700 580.0000 1.0000
32.4800 594.0000 1.0000
32.4900 589.0000 1.0000
32.5000 562.0000 1.0000
32.5100 567.0000 1.0000
32.5200 582.0000 1.0000
32.5300 596.0000 1.0000
32.5400 607.0000 1.0000
32.5500 576.0000 1.0000
32.5600 598.0000 1.0000
32.5700 553.0000 1.0000
32.5800 594.0000 1.0000
32.5900 622.0000 1.0000
32.6000 610.0000 1.0000
32.6100 546.0000 1.0000
32.6200 574.0000 1.0000
32.6300 553.0000 1.0000
32.6400 551.0000 1.0000
32.6500 601.0000 1.0000
32.6600 603.0000 1.0000
32.6700 610.0000 1.0000
32.6800 628.0000 1.0000
32.6900 528.0000 1.0000
32.7000 602.0000 1.0000
32.7100 582.0000 1.0000
32.7200 597.0000 1.0000
32.7300 593.0000 1.0000
32.7400 614.0000 1.0000
32.7500 608.0000 1.0000
32.7600 600.0000 1.0000
32.7700 563.0000 1.0000
32.7800 591.0000 1.0000
32.7900 594.0000 1.0000
32.8000 588.0000 1.0000
32.8100 585.0000 1.0000
32.8200 561.0000 1.0000
32.8300 611.0000 1.0000
32.8400 616.0000 1.0000
32.8500 622.0000 1.0000
32.8600 551.0000 1.0000
32.8700 595.0000 1.0000
32.8800 579.0000 1.0000
32.8900 611.0000 1.0000
32.9000 636.0000 1.0000
32.9100 629.0000 1.0000
32.9200 625.0000 1.0000
32.9300 596.0000 1.0000
32.9400 608.0000 1.0000
32.9500 656.0000 1.0000
32.9600 650.0000 1.0000
32.9700 647.0000 1.0000
32.9800 648.0000 1.0000
32.9900 593.0000 1.0000
33.0000 622.0000 1.0000
33.0100 608.0000 1.0000
33.0200 613.0000 1.0000
33.0300 651.0000 1.0000
33.0400 705.0000 1.0000
33.0500 711.0000 1.0000
33.0600 694.0000 1.0000
33.0700 665.0000 1.0000
33.0800 708.0000 1.0000
33.0900 732.0000 1.0000
33.1000 677.0000 1.0000
33.1100 686.0000 1.0000
33.1200 708.0000 1.0000
33.1300 718.0000 1.0000
33.1400 721.0000 1.0000
33.1500 714.0000 1.0000
33.1600 717.0000 1.0000
33.1700 670.0000 1.0000
33.1800 700.0000 1.0000
33.1900 664.0000 1.0000
33.2000 695.0000 1.0000
33.2100 666.0000 1.0000
33.2200 644.0000 1.0000
33.2300 672.0000 1.0000
33.2400 695.0000 1.0000
33.2500 676.0000 1.0000
33.2600 693.0000 1.0000
33.2700 643.0000 1.0000
33.2800 679.0000 1.0000
33.2900 643.0000 1.0000
33.3000 691.0000 1.0000
33.3100 610.0000 1.0000
33.3200 689.0000 1.0000
33.3300 669.0000 1.0000
33.3400 683.0000 1.0000
33.3500 665.0000 1.0000
33.3600 672.0000 1.0000
33.3700 680.0000 1.0000
33.3800 691.0000 1.0000
33.3900 683.0000 1.0000
33.4000 716.0000 1.0000
33.4100 724.0000 1.0000
33.4200 650.0000 1.0000
33.4300 719.0000 1.0000
33.4400 753.0000 1.0000
33.4500 744.0000 1.0000
33.4600 778.0000 1.0000
33.4700 819.0000 1.0000
33.4800 803.0000 1.0000
33.4900 811.0000 1.0000
33.5000 871.0000 1.0000
33.5100 895.0000 1.0000
33.5200 946.0000 1.0000
33.5300 893.0000 1.0000
33.5400 978.0000 1.0000
33.5500 978.0000 1.0000
33.5600 1041.0000 1.0000
33.5700 1078.0000 1.0000
33.5800 1167.0000 1.0000
33.5900 1219.0000 1.0000
33.6000 1183.0000 1.0000
33.6100 1333.0000 1.0000
33.6200 1427.0000 1.0000
33.6300 1466.0000 1.0000
33.6400 1459.0000 1.0000
33.6500 1522.0000 1.0000
33.6600 1552.0000 1.0000
33.6700 1526.0000 1.0000
33.6800 1517.0000 1.0000
33.6900 1462.0000 1.0000
33.7000 1480.0000 1.0000
33.7100 1484.0000 1.0000
33.7200 1445.0000 1.0000
33.7300 1301.0000 1.0000
33.7400 1330.0000 1.0000
33.7500 1299.0000 1.0000
33.7600 1291.0000 1.0000
33.7700 1162.0000 1.0000
33.7800 1107.0000 1.0000
33.7900 1068.0000 1.0000
33.8000 1050.0000 1.0000
33.8100 988.0000 1.0000
33.8200 993.0000 1.0000
33.8300 887.0000 1.0000
33.8400 869.0000 1.0000
33.8500 856.0000 1.0000
33.8600 844.0000 1.0000
33.8700 773.0000 1.0000
33.8800 764.0000 1.0000
33.8900 771.0000 1.0000
33.9000 775.0000 1.0000
33.9100 773.0000 1.0000
33.9200 749.0000 1.0000
33.9300 703.0000 1.0000
33.9400 697.0000 1.0000
33.9500 663.0000 1.0000
33.9600 682.0000 1.0000
33.9700 693.0000 1.0000
33.9800 677.0000 1.0000
33.9900 642.0000 1.0000
34.0000 632.0000 1.0000
34.0100 649.0000 1.0000
34.0200 626.0000 1.0000
34.0300 641.0000 1.0000
34.0400 658.0000 1.0000
34.0500 623.0000 1.0000
34.0600 624.0000 1.0000
34.0700 618.0000 1.0000
34.0800 587.0000 1.0000
34.0900 617.0000 1.0000
34.1000 587.0000 1.0000
34.1100 605.0000 1.0000
34.1200 588.0000 1.0000
34.1300 569.0000 1.0000
34.1400 599.0000 1.0000
34.1500 578.0000 1.0000
34.1600 583.0000 1.0000
34.1700 596.0000 1.0000
34.1800 602.0000 1.0000
34.1900 544.0000 1.0000
34.2000 526.0000 1.0000
34.2100 568.0000 1.0000
34.2200 578.0000 1.0000
34.2300 533.0000 1.0000
34.2400 548.0000 1.0000
34.2500 598.0000 1.0000
34.2600 577.0000 1.0000
34.2700 560.0000 1.0000
34.2800 531.0000 1.0000
34.2900 546.0000 1.0000
34.3000 560.0000 1.0000
34.3100 552.0000 1.0000
34.3200 547.0000 1.0000
34.3300 578.0000 1.0000
34.3400 564.0000 1.0000
34.3500 563.0000 1.0000
34.3600 504.0000 1.0000
34.3700 517.0000 1.0000
34.3800 553.0000 1.0000
34.3900 525.0000 1.0000
34.4000 531.0000 1.0000
34.4100 537.0000 1.0000
34.4200 519.0000 1.0000
34.4300 531.0000 1.0000
34.4400 547.0000 1.0000
34.4500 516.0000 1.0000
34.4600 538.0000 1.0000
34.4700 530.0000 1.0000
34.4800 523.0000 1.0000
34.4900 505.0000 1.0000
34.5000 506.0000 1.0000
34.5100 534.0000 1.0000
34.5200 500.0000 1.0000
34.5300 517.0000 1.0000
34.5400 509.0000 1.0000
34.5500 526.0000 1.0000
34.5600 504.0000 1.0000
34.5700 501.0000 1.0000
34.5800 540.0000 1.0000
34.5900 553.0000 1.0000
34.6000 526.0000 1.0000
34.6100 508.0000 1.0000
34.6200 538.0000 1.0000
34.6300 558.0000 1.0000
34.6400 518.0000 1.0000
34.6500 544.0000 1.0000
34.6600 491.0000 1.0000
34.6700 515.0000 1.0000
34.6800 528.0000 1.0000
34.6900 499.0000 1.0000
34.7000 496.0000 1.0000
34.7100 520.0000 1.0000
34.7200 504.0000 1.0000
34.7300 494.0000 1.0000
34.7400 521.0000 1.0000
34.7500 489.0000 1.0000
34.7600 493.0000 1.0000
34.7700 495.0000 1.0000
34.7800 550.0000 1.0000
34.7900 517.0000 1.0000
34.8000 535.0000 1.0000
34.8100 504.0000 1.0000
34.8200 483.0000 1.0000
34.8300 475.0000 1.0000
34.8400 513.0000 1.0000
34.8500 493.0000 1.0000
34.8600 504.0000 1.0000
34.8700 519.0000 1.0000
34.8800 513.0000 1.0000
34.8900 517.0000 1.0000
34.9000 513.0000 1.0000
34.9100 510.0000 1.0000
34.9200 515.0000 1.0000
34.9300 498.0000 1.0000
34.9400 510.0000 1.0000
34.9500 499.0000 1.0000
34.9600 503.0000 1.0000
34.9700 495.0000 1.0000
34.9800 489.0000 1.0000
34.9900 508.0000 1.0000
35.0000 499.0000 1.0000
35.0100 528.0000 1.0000
35.0200 528.0000 1.0000
35.0300 521.0000 1.0000
35.0400 487.0000 1.0000
35.0500 530.0000 1.0000
35.0600 486.0000 1.0000
35.0700 502.0000 1.0000
35.0800 507.0000 1.0000
35.0900 475.0000 1.0000
35.1000 522.0000 1.0000
35.1100 484.0000 1.0000
35.1200 475.0000 1.0000
35.1300 459.0000 1.0000
35.1400 504.0000 1.0000
35.1500 519.0000 1.0000
35.1600 489.0000 1.0000
35.1700 462.0000 1.0000
35.1800 495.0000 1.0000
35.1900 480.0000 1.0000
35.2000 516.0000 1.0000
35.2100 493.0000 1.0000
35.2200 497.0000 1.0000
35.2300 505.0000 1.0000
35.2400 503.0000 1.0000
35.2500 493.0000 1.0000
35.2600 457.0000 1.0000
35.2700 506.0000 1.0000
35.2800 520.0000 1.0000
35.2900 513.0000 1.0000
35.3000 538.0000 1.0000
35.3100 531.0000 1.0000
35.3200 468.0000 1.0000
35.3300 525.0000 1.0000
35.3400 542.0000 1.0000
35.3500 584.0000 1.0000
35.3600 530.0000 1.0000
35.3700 503.0000 1.0000
35.3800 546.0000 1.0000
35.3900 577.0000 1.0000
35.4000 594.0000 1.0000
35.4100 591.0000 1.0000
35.4200 605.0000 1.0000
35.4300 605.0000 1.0000
35.4400 590.0000 1.0000
35.4500 621.0000 1.0000
35.4600 612.0000 1.0000
35.4700 656.0000 1.0000
35.4800 696.0000 1.0000
35.4900 688.0000 1.0000
35.5000 719.0000 1.0000
35.5100 769.0000 1.0000
35.5200 796.0000 1.0000
35.5300 801.0000 1.0000
35.5400 829.0000 1.0000
35.5500 885.0000 1.0000
35.5600 930.0000 1.0000
35.5700 924.0000 1.0000
35.5800 954.0000 1.0000
35.5900 1005.0000 1.0000
35.6000 928.0000 1.0000
35.6100 906.0000 1.0000
35.6200 917.0000 1.0000
35.6300 930.0000 1.0000
35.6400 891.0000 1.0000
35.6500 823.0000 1.0000
35.6600 828.0000 1.0000
35.6700 828.0000 1.0000
35.6800 819.0000 1.0000
35.6900 789.0000 1.0000
35.7000 700.0000 1.0000
35.7100 682.0000 1.0000
35.7200 645.0000 1.0000
35.7300 685.0000 1.0000
35.7400 685.0000 1.0000
35.7500 620.0000 1.0000
35.7600 581.0000 1.0000
35.7700 579.0000 1.0000
35.7800 562.0000 1.0000
35.7900 566.0000 1.0000
35.8000 521.0000 1.0000
35.8100 509.0000 1.0000
35.8200 507.0000 1.0000
35.8300 542.0000 1.0000
35.8400 526.0000 1.0000
35.8500 563.0000 1.0000
35.8600 478.0000 1.0000
35.8700 503.0000 1.0000
35.8800 441.0000 1.0000
35.8900 502.0000 1.0000
35.9000 473.0000 1.0000
35.9100 466.0000 1.0000
35.9200 465.0000 1.0000
35.9300 492.0000 1.0000
35.9400 493.0000 1.0000
35.9500 503.0000 1.0000
35.9600 473.0000 1.0000
35.9700 466.0000 1.0000
35.9800 520.0000 1.0000
35.9900 510.0000 1.0000
36.0000 475.0000 1.0000
36.0100 470.0000 1.0000
36.0200 508.0000 1.0000
36.0300 489.0000 1.0000
36.0400 510.0000 1.0000
36.0500 468.0000 1.0000
36.0600 480.0000 1.0000
36.0700 474.0000 1.0000
36.0800 449.0000 1.0000
36.0900 491.0000 1.0000
36.1000 461.0000 1.0000
36.1100 472.0000 1.0000
36.1200 503.0000 1.0000
36.1300 477.0000 1.0000
36.1400 461.0000 1.0000
36.1500 482.0000 1.0000
36.1600 472.0000 1.0000
36.1700 443.0000 1.0000
36.1800 464.0000 1.0000
36.1900 487.0000 1.0000
36.2000 489.0000 1.0000
36.2100 488.0000 1.0000
36.2200 486.0000 1.0000
36.2300 446.0000 1.0000
36.2400 470.0000 1.0000
36.2500 453.0000 1.0000
36.2600 465.0000 1.0000
36.2700 485.0000 1.0000
36.2800 465.0000 1.0000
36.2900 476.0000 1.0000
36.3000 485.0000 1.0000
36.3100 457.0000 1.0000
36.3200 463.0000 1.0000
36.3300 480.0000 1.0000
36.3400 473.0000 1.0000
36.3500 481.0000 1.0000
36.3600 495.0000 1.0000
36.3700 477.0000 1.0000
36.3800 449.0000 1.0000
36.3900 455.0000 1.0000
36.4000 506.0000 1.0000
36.4100 420.0000 1.0000
36.4200 452.0000 1.0000
36.4300 446.0000 1.0000
36.4400 433.0000 1.0000
36.4500 423.0000 1.0000
36.4600 445.0000 1.0000
36.4700 482.0000 1.0000
36.4800 436.0000 1.0000
36.4900 465.0000 1.0000
36.5000 461.0000 1.0000
36.5100 462.0000 1.0000
36.5200 456.0000 1.0000
36.5300 454.0000 1.0000
36.5400 466.0000 1.0000
36.5500 462.0000 1.0000
36.5600 449.0000 1.0000
36.5700 439.0000 1.0000
36.5800 470.0000 1.0000
36.5900 485.0000 1.0000
36.6000 485.0000 1.0000
36.6100 482.0000 1.0000
36.6200 465.0000 1.0000
36.6300 460.0000 1.0000
36.6400 451.0000 1.0000
36.6500 459.0000 1.0000
36.6600 468.0000 1.0000
36.6700 427.0000 1.0000
36.6800 444.0000 1.0000
36.6900 461.0000 1.0000
36.7000 490.0000 1.0000
36.7100 472.0000 1.0000
36.7200 479.0000 1.0000
36.7300 492.0000 1.0000
36.7400 478.0000 1.0000
36.7500 480.0000 1.0000
36.7600 485.0000 1.0000
36.7700 455.0000 1.0000
36.7800 483.0000 1.0000
36.7900 439.0000 1.0000
36.8000 448.0000 1.0000
36.8100 437.0000 1.0000
36.8200 467.0000 1.0000
36.8300 434.0000 1.0000
36.8400 452.0000 1.0000
36.8500 497.0000 1.0000
36.8600 467.0000 1.0000
36.8700 451.0000 1.0000
36.8800 482.0000 1.0000
36.8900 474.0000 1.0000
36.9000 458.0000 1.0000
36.9100 441.0000 1.0000
36.9200 491.0000 1.0000
36.9300 482.0000 1.0000
36.9400 474.0000 1.0000
36.9500 452.0000 1.0000
36.9600 467.0000 1.0000
36.9700 449.0000 1.0000
36.9800 449.0000 1.0000
36.9900 448.0000 1.0000
37.0000 447.0000 1.0000
37.0100 455.0000 1.0000
37.0200 415.0000 1.0000
37.0300 477.0000 1.0000
37.0400 434.0000 1.0000
37.0500 444.0000 1.0000
37.0600 490.0000 1.0000
37.0700 462.0000 1.0000
37.0800 416.0000 1.0000
37.0900 466.0000 1.0000
37.1000 522.0000 1.0000
37.1100 452.0000 1.0000
37.1200 456.0000 1.0000
37.1300 471.0000 1.0000
37.1400 451.0000 1.0000
37.1500 497.0000 1.0000
37.1600 440.0000 1.0000
37.1700 513.0000 1.0000
37.1800 496.0000 1.0000
37.1900 508.0000 1.0000
37.2000 481.0000 1.0000
37.2100 438.0000 1.0000
37.2200 491.0000 1.0000
37.2300 460.0000 1.0000
37.2400 480.0000 1.0000
37.2500 480.0000 1.0000
37.2600 525.0000 1.0000
37.2700 486.0000 1.0000
37.2800 482.0000 1.0000
37.2900 491.0000 1.0000
37.3000 479.0000 1.0000
37.3100 528.0000 1.0000
37.3200 530.0000 1.0000
37.3300 540.0000 1.0000
37.3400 579.0000 1.0000
37.3500 559.0000 1.0000
37.3600 550.0000 1.0000
37.3700 570.0000 1.0000
37.3800 575.0000 1.0000
37.3900 620.0000 1.0000
37.4000 605.0000 1.0000
37.4100 616.0000 1.0000
37.4200 638.0000 1.0000
37.4300 623.0000 1.0000
37.4400 666.0000 1.0000
37.4500 664.0000 1.0000
37.4600 676.0000 1.0000
37.4700 715.0000 1.0000
37.4800 754.0000 1.0000
37.4900 791.0000 1.0000
37.5000 825.0000 1.0000
37.5100 835.0000 1.0000
37.5200 848.0000 1.0000
37.5300 917.0000 1.0000
37.5400 962.0000 1.0000
37.5500 1022.0000 1.0000
37.5600 1107.0000 1.0000
37.5700 1075.0000 1.0000
37.5800 1208.0000 1.0000
37.5900 1305.0000 1.0000
37.6000 1389.0000 1.0000
37.6100 1474.0000 1.0000
37.6200 1543.0000 1.0000
37.6300 1613.0000 1.0000
37.6400 1818.0000 1.0000
37.6500 1919.0000 1.0000
37.6600 2007.0000 1.0000
37.6700 2084.0000 1.0000
37.6800 2127.0000 1.0000
37.6900 2309.0000 1.0000
37.7000 2292.0000 1.0000
37.7100 2284.0000 1.0000
37.7200 2232.0000 1.0000
37.7300 2272.0000 1.0000
37.7400 2276.0000 1.0000
37.7500 2221.0000 1.0000
37.7600 2176.0000 1.0000
37.7700 2108.0000 1.0000
37.7800 2064.0000 1.0000
37.7900 1993.0000 1.0000
37.8000 1867.0000 1.0000
37.8100 1787.0000 1.0000
37.8200 1777.0000 1.0000
37.8300 1664.0000 1.0000
37.8400 1527.0000 1.0000
37.8500 1525.0000 1.0000
37.8600 1375.0000 1.0000
37.8700 1297.0000 1.0000
37.8800 1199.0000 1.0000
37.8900 1100.0000 1.0000
37.9000 1054.0000 1.0000
37.9100 998.0000 1.0000
37.9200 987.0000 1.0000
37.9300 930.0000 1.0000
37.9400 840.0000 1.0000
37.9500 798.0000 1.0000
37.9600 782.0000 1.0000
37.9700 793.0000 1.0000
37.9800 749.0000 1.0000
37.9900 689.0000 1.0000
38.0000 692.0000 1.0000
38.0100 665.0000 1.0000
38.0200 650.0000 1.0000
38.0300 589.0000 1.0000
38.0400 552.0000 1.0000
38.0500 562.0000 1.0000
38.0600 566.0000 1.0000
38.0700 518.0000 1.0000
38.0800 559.0000 1.0000
38.0900 534.0000 1.0000
38.1000 530.0000 1.0000
38.1100 506.0000 1.0000
38.1200 543.0000 1.0000
38.1300 490.0000 1.0000
38.1400 500.0000 1.0000
38.1500 474.0000 1.0000
38.1600 503.0000 1.0000
38.1700 494.0000 1.0000
38.1800 528.0000 1.0000
38.1900 479.0000 1.0000
38.2000 472.0000 1.0000
38.2100 470.0000 1.0000
38.2200 433.0000 1.0000
38.2300 440.0000 1.0000
38.2400 451.0000 1.0000
38.2500 458.0000 1.0000
38.2600 480.0000 1.0000
38.2700 463.0000 1.0000
38.2800 435.0000 1.0000
38.2900 416.0000 1.0000
38.3000 425.0000 1.0000
38.3100 430.0000 1.0000
38.3200 428.0000 1.0000
38.3300 452.0000 1.0000
38.3400 470.0000 1.0000
38.3500 464.0000 1.0000
38.3600 451.0000 1.0000
38.3700 433.0000 1.0000
38.3800 439.0000 1.0000
38.3900 416.0000 1.0000
38.4000 429.0000 1.0000
38.4100 378.0000 1.0000
38.4200 412.0000 1.0000
38.4300 408.0000 1.0000
38.4400 429.0000 1.0000
38.4500 417.0000 1.0000
38.4600 420.0000 1.0000
38.4700 430.0000 1.0000
38.4800 432.0000 1.0000
38.4900 438.0000 1.0000
38.5000 431.0000 1.0000
38.5100 410.0000 1.0000
38.5200 419.0000 1.0000
38.5300 430.0000 1.0000
38.5400 425.0000 1.0000
38.5500 426.0000 1.0000
38.5600 428.0000 1.0000
38.5700 411.0000 1.0000
38.5800 434.0000 1.0000
38.5900 416.0000 1.0000
38.6000 426.0000 1.0000
38.6100 414.0000 1.0000
38.6200 436.0000 1.0000
38.6300 441.0000 1.0000
38.6400 427.0000 1.0000
38.6500 422.0000 1.0000
38.6600 458.0000 1.0000
38.6700 437.0000 1.0000
38.6800 399.0000 1.0000
38.6900 426.0000 1.0000
38.7000 442.0000 1.0000
38.7100 475.0000 1.0000
38.7200 434.0000 1.0000
38.7300 407.0000 1.0000
38.7400 440.0000 1.0000
38.7500 447.0000 1.0000
38.7600 438.0000 1.0000
38.7700 428.0000 1.0000
38.7800 465.0000 1.0000
38.7900 471.0000 1.0000
38.8000 433.0000 1.0000
38.8100 438.0000 1.0000
38.8200 428.0000 1.0000
38.8300 385.0000 1.0000
38.8400 420.0000 1.0000
38.8500 411.0000 1.0000
38.8600 409.0000 1.0000
38.8700 437.0000 1.0000
38.8800 436.0000 1.0000
38.8900 426.0000 1.0000
38.9000 440.0000 1.0000
38.9100 440.0000 1.0000
38.9200 407.0000 1.0000
38.9300 442.0000 1.0000
38.9400 405.0000 1.0000
38.9500 448.0000 1.0000
38.9600 437.0000 1.0000
38.9700 407.0000 1.0000
38.9800 398.0000 1.0000
38.9900 401.0000 1.0000
39.0000 415.0000 1.0000
39.0100 432.0000 1.0000
39.0200 394.0000 1.0000
39.0300 405.0000 1.0000
39.0400 418.0000 1.0000
39.0500 400.0000 1.0000
39.0600 387.0000 1.0000
39.0700 414.0000 1.0000
39.0800 433.0000 1.0000
39.0900 410.0000 1.0000
39.1000 399.0000 1.0000
39.1100 399.0000 1.0000
39.1200 439.0000 1.0000
39.1300 428.0000 1.0000
39.1400 404.0000 1.0000
39.1500 392.0000 1.0000
39.1600 402.0000 1.0000
39.1700 386.0000 1.0000
39.1800 391.0000 1.0000
39.1900 380.0000 1.0000
39.2000 374.0000 1.0000
39.2100 398.0000 1.0000
39.2200 380.0000 1.0000
39.2300 374.0000 1.0000
39.2400 388.0000 1.0000
39.2500 393.0000 1.0000
39.2600 389.0000 1.0000
39.2700 416.0000 1.0000
39.2800 438.0000 1.0000
39.2900 392.0000 1.0000
39.3000 372.0000 1.0000
39.3100 391.0000 1.0000
39.3200 397.0000 1.0000
39.3300 392.0000 1.0000
39.3400 399.0000 1.0000
39.3500 399.0000 1.0000
39.3600 370.0000 1.0000
39.3700 380.0000 1.0000
39.3800 405.0000 1.0000
39.3900 405.0000 1.0000
39.4000 400.0000 1.0000
39.4100 402.0000 1.0000
39.4200 416.0000 1.0000
39.4300 404.0000 1.0000
39.4400 407.0000 1.0000
39.4500 404.0000 1.0000
39.4600 394.0000 1.0000
39.4700 416.0000 1.0000
39.4800 416.0000 1.0000
39.4900 367.0000 1.0000
39.5000 375.0000 1.0000
39.5100 384.0000 1.0000
39.5200 375.0000 1.0000
39.5300 375.0000 1.0000
39.5400 366.0000 1.0000
39.5500 391.0000 1.0000
39.5600 412.0000 1.0000
39.5700 405.0000 1.0000
39.5800 392.0000 1.0000
39.5900 385.0000 1.0000
39.6000 374.0000 1.0000
39.6100 364.0000 1.0000
39.6200 365.0000 1.0000
39.6300 382.0000 1.0000
39.6400 399.0000 1.0000
39.6500 369.0000 1.0000
39.6600 371.0000 1.0000
39.6700 357.0000 1.0000
39.6800 402.0000 1.0000
39.6900 386.0000 1.0000
39.7000 382.0000 1.0000
39.7100 380.0000 1.0000
39.7200 374.0000 1.0000
39.7300 376.0000 1.0000
39.7400 361.0000 1.0000
39.7500 386.0000 1.0000
39.7600 372.0000 1.0000
39.7700 364.0000 1.0000
39.7800 335.0000 1.0000
39.7900 411.0000 1.0000
39.8000 406.0000 1.0000
39.8100 390.0000 1.0000
39.8200 341.0000 1.0000
39.8300 396.0000 1.0000
39.8400 405.0000 1.0000
39.8500 361.0000 1.0000
39.8600 411.0000 1.0000
39.8700 397.0000 1.0000
39.8800 372.0000 1.0000
39.8900 383.0000 1.0000
39.9000 388.0000 1.0000
39.9100 375.0000 1.0000
39.9200 377.0000 1.0000
39.9300 396.0000 1.0000
39.9400 378.0000 1.0000
39.9500 382.0000 1.0000
39.9600 416.0000 1.0000
39.9700 397.0000 1.0000
39.9800 394.0000 1.0000
39.9900 415.0000 1.0000
40.0000 370.0000 1.0000
40.0100 376.0000 1.0000
40.0200 410.0000 1.0000
40.0300 397.0000 1.0000
40.0400 348.0000 1.0000
40.0500 378.0000 1.0000
40.0600 380.0000 1.0000
40.0700 403.0000 1.0000
40.0800 390.0000 1.0000
40.0900 388.0000 1.0000
40.1000 380.0000 1.0000
40.1100 359.0000 1.0000
40.1200 384.0000 1.0000
40.1300 361.0000 1.0000
40.1400 382.0000 1.0000
40.1500 390.0000 1.0000
40.1600 397.0000 1.0000
40.1700 388.0000 1.0000
40.1800 371.0000 1.0000
40.1900 399.0000 1.0000
40.2000 362.0000 1.0000
40.2100 375.0000 1.0000
40.2200 371.0000 1.0000
40.2300 388.0000 1.0000
40.2400 387.0000 1.0000
40.2500 377.0000 1.0000
40.2600 372.0000 1.0000
40.2700 385.0000 1.0000
40.2800 386.0000 1.0000
40.2900 372.0000 1.0000
40.3000 386.0000 1.0000
40.3100 388.0000 1.0000
40.3200 368.0000 1.0000
40.3300 402.0000 1.0000
40.3400 392.0000 1.0000
40.3500 367.0000 1.0000
40.3600 369.0000 1.0000
40.3700 359.0000 1.0000
40.3800 375.0000 1.0000
40.3900 402.0000 1.0000
40.4000 388.0000 1.0000
40.4100 399.0000 1.0000
40.4200 409.0000 1.0000
40.4300 365.0000 1.0000
40.4400 390.0000 1.0000
40.4500 399.0000 1.0000
40.4600 366.0000 1.0000
40.4700 406.0000 1.0000
40.4800 391.0000 1.0000
40.4900 364.0000 1.0000
40.5000 407.0000 1.0000
40.5100 379.0000 1.0000
40.5200 385.0000 1.0000
40.5300 382.0000 1.0000
40.5400 400.0000 1.0000
40.5500 353.0000 1.0000
40.5600 377.0000 1.0000
40.5700 426.0000 1.0000
40.5800 393.0000 1.0000
40.5900 361.0000 1.0000
40.6000 367.0000 1.0000
40.6100 363.0000 1.0000
40.6200 350.0000 1.0000
40.6300 423.0000 1.0000
40.6400 385.0000 1.0000
40.6500 375.0000 1.0000
40.6600 421.0000 1.0000
40.6700 369.0000 1.0000
40.6800 375.0000 1.0000
40.6900 393.0000 1.0000
40.7000 410.0000 1.0000
40.7100 419.0000 1.0000
40.7200 394.0000 1.0000
40.7300 410.0000 1.0000
40.7400 393.0000 1.0000
40.7500 402.0000 1.0000
40.7600 418.0000 1.0000
40.7700 407.0000 1.0000
40.7800 357.0000 1.0000
40.7900 409.0000 1.0000
40.8000 372.0000 1.0000
40.8100 395.0000 1.0000
40.8200 396.0000 1.0000
40.8300 390.0000 1.0000
40.8400 402.0000 1.0000
40.8500 371.0000 1.0000
40.8600 374.0000 1.0000
40.8700 378.0000 1.0000
40.8800 372.0000 1.0000
40.8900 378.0000 1.0000
40.9000 376.0000 1.0000
40.9100 380.0000 1.0000
40.9200 397.0000 1.0000
40.9300 384.0000 1.0000
40.9400 415.0000 1.0000
40.9500 409.0000 1.0000
40.9600 400.0000 1.0000
40.9700 387.0000 1.0000
40.9800 389.0000 1.0000
40.9900 389.0000 1.0000
41.0000 389.0000 1.0000
41.0100 368.0000 1.0000
41.0200 395.0000 1.0000
41.0300 372.0000 1.0000
41.0400 385.0000 1.0000
41.0500 388.0000 1.0000
41.0600 369.0000 1.0000
41.0700 373.0000 1.0000
41.0800 368.0000 1.0000
41.0900 398.0000 1.0000
41.1000 365.0000 1.0000
41.1100 378.0000 1.0000
41.1200 392.0000 1.0000
41.1300 376.0000 1.0000
41.1400 389.0000 1.0000
41.1500 374.0000 1.0000
41.1600 389.0000 1.0000
41.1700 369.0000 1.0000
41.1800 383.0000 1.0000
41.1900 385.0000 1.0000
41.2000 377.0000 1.0000
41.2100 380.0000 1.0000
41.2200 388.0000 1.0000
41.2300 358.0000 1.0000
41.2400 370.0000 1.0000
41.2500 342.0000 1.0000
41.2600 369.0000 1.0000
41.2700 395.0000 1.0000
41.2800 396.0000 1.0000
41.2900 390.0000 1.0000
41.3000 357.0000 1.0000
41.3100 345.0000 1.0000
41.3200 387.0000 1.0000
41.3300 363.0000 1.0000
41.3400 343.0000 1.0000
41.3500 357.0000 1.0000
41.3600 382.0000 1.0000
41.3700 345.0000 1.0000
41.3800 378.0000 1.0000
41.3900 405.0000 1.0000
41.4000 371.0000 1.0000
41.4100 371.0000 1.0000
41.4200 376.0000 1.0000
41.4300 386.0000 1.0000
41.4400 357.0000 1.0000
41.4500 380.0000 1.0000
41.4600 339.0000 1.0000
41.4700 353.0000 1.0000
41.4800 378.0000 1.0000
41.4900 402.0000 1.0000
41.5000 372.0000 1.0000
41.5100 368.0000 1.0000
41.5200 369.0000 1.0000
41.5300 372.0000 1.0000
41.5400 364.0000 1.0000
41.5500 355.0000 1.0000
41.5600 344.0000 1.0000
41.5700 353.0000 1.0000
41.5800 384.0000 1.0000
41.5900 398.0000 1.0000
41.6000 361.0000 1.0000
41.6100 387.0000 1.0000
41.6200 395.0000 1.0000
41.6300 397.0000 1.0000
41.6400 365.0000 1.0000
41.6500 368.0000 1.0000
41.6600 372.0000 1.0000
41.6700 379.0000 1.0000
41.6800 392.0000 1.0000
41.6900 343.0000 1.0000
41.7000 382.0000 1.0000
41.7100 380.0000 1.0000
41.7200 380.0000 1.0000
41.7300 359.0000 1.0000
41.7400 365.0000 1.0000
41.7500 352.0000 1.0000
41.7600 368.0000 1.0000
41.7700 372.0000 1.0000
41.7800 370.0000 1.0000
41.7900 368.0000 1.0000
41.8000 370.0000 1.0000
41.8100 371.0000 1.0000
41.8200 345.0000 1.0000
41.8300 349.0000 1.0000
41.8400 353.0000 1.0000
41.8500 345.0000 1.0000
41.8600 351.0000 1.0000
41.8700 379.0000 1.0000
41.8800 395.0000 1.0000
41.8900 377.0000 1.0000
41.9000 378.0000 1.0000
41.9100 376.0000 1.0000
41.9200 356.0000 1.0000
41.9300 372.0000 1.0000
41.9400 380.0000 1.0000
41.9500 358.0000 1.0000
41.9600 396.0000 1.0000
41.9700 400.0000 1.0000
41.9800 378.0000 1.0000
41.9900 345.0000 1.0000
42.0000 376.0000 1.0000
42.0100 349.0000 1.0000
42.0200 396.0000 1.0000
42.0300 403.0000 1.0000
42.0400 363.0000 1.0000
42.0500 392.0000 1.0000
42.0600 356.0000 1.0000
42.0700 350.0000 1.0000
42.0800 335.0000 1.0000
42.0900 371.0000 1.0000
42.1000 362.0000 1.0000
42.1100 382.0000 1.0000
42.1200 367.0000 1.0000
42.1300 359.0000 1.0000
42.1400 331.0000 1.0000
42.1500 359.0000 1.0000
42.1600 377.0000 1.0000
42.1700 375.0000 1.0000
42.1800 365.0000 1.0000
42.1900 373.0000 1.0000
42.2000 387.0000 1.0000
42.2100 358.0000 1.0000
42.2200 372.0000 1.0000
42.2300 360.0000 1.0000
42.2400 341.0000 1.0000
42.2500 368.0000 1.0000
42.2600 391.0000 1.0000
42.2700 385.0000 1.0000
42.2800 366.0000 1.0000
42.2900 397.0000 1.0000
42.3000 372.0000 1.0000
42.3100 406.0000 1.0000
42.3200 387.0000 1.0000
42.3300 397.0000 1.0000
42.3400 364.0000 1.0000
42.3500 378.0000 1.0000
42.3600 396.0000 1.0000
42.3700 398.0000 1.0000
42.3800 403.0000 1.0000
42.3900 437.0000 1.0000
42.4000 415.0000 1.0000
42.4100 392.0000 1.0000
42.4200 398.0000 1.0000
42.4300 381.0000 1.0000
42.4400 403.0000 1.0000
42.4500 399.0000 1.0000
42.4600 407.0000 1.0000
42.4700 380.0000 1.0000
42.4800 391.0000 1.0000
42.4900 387.0000 1.0000
42.5000 410.0000 1.0000
42.5100 398.0000 1.0000
42.5200 372.0000 1.0000
42.5300 405.0000 1.0000
42.5400 403.0000 1.0000
42.5500 408.0000 1.0000
42.5600 374.0000 1.0000
42.5700 410.0000 1.0000
42.5800 371.0000 1.0000
42.5900 372.0000 1.0000
42.6000 381.0000 1.0000
42.6100 364.0000 1.0000
42.6200 388.0000 1.0000
42.6300 380.0000 1.0000
42.6400 380.0000 1.0000
42.6500 366.0000 1.0000
42.6600 373.0000 1.0000
42.6700 378.0000 1.0000
42.6800 355.0000 1.0000
42.6900 358.0000 1.0000
42.7000 342.0000 1.0000
42.7100 349.0000 1.0000
42.7200 355.0000 1.0000
42.7300 379.0000 1.0000
42.7400 332.0000 1.0000
42.7500 363.0000 1.0000
42.7600 377.0000 1.0000
42.7700 388.0000 1.0000
42.7800 395.0000 1.0000
42.7900 335.0000 1.0000
42.8000 358.0000 1.0000
42.8100 340.0000 1.0000
42.8200 316.0000 1.0000
42.8300 367.0000 1.0000
42.8400 337.0000 1.0000
42.8500 374.0000 1.0000
42.8600 364.0000 1.0000
42.8700 368.0000 1.0000
42.8800 356.0000 1.0000
42.8900 385.0000 1.0000
42.9000 358.0000 1.0000
42.9100 373.0000 1.0000
42.9200 351.0000 1.0000
42.9300 359.0000 1.0000
42.9400 361.0000 1.0000
42.9500 365.0000 1.0000
42.9600 365.0000 1.0000
42.9700 375.0000 1.0000
42.9800 342.0000 1.0000
42.9900 382.0000 1.0000
43.0000 354.0000 1.0000
43.0100 352.0000 1.0000
43.0200 370.0000 1.0000
43.0300 368.0000 1.0000
43.0400 370.0000 1.0000
43.0500 341.0000 1.0000
43.0600 348.0000 1.0000
43.0700 360.0000 1.0000
43.0800 356.0000 1.0000
43.0900 410.0000 1.0000
43.1000 325.0000 1.0000
43.1100 334.0000 1.0000
43.1200 350.0000 1.0000
43.1300 311.0000 1.0000
43.1400 368.0000 1.0000
43.1500 377.0000 1.0000
43.1600 337.0000 1.0000
43.1700 349.0000 1.0000
43.1800 364.0000 1.0000
43.1900 370.0000 1.0000
43.2000 352.0000 1.0000
43.2100 368.0000 1.0000
43.2200 346.0000 1.0000
43.2300 343.0000 1.0000
43.2400 374.0000 1.0000
43.2500 353.0000 1.0000
43.2600 362.0000 1.0000
43.2700 366.0000 1.0000
43.2800 350.0000 1.0000
43.2900 346.0000 1.0000
43.3000 335.0000 1.0000
43.3100 358.0000 1.0000
43.3200 347.0000 1.0000
43.3300 356.0000 1.0000
43.3400 340.0000 1.0000
43.3500 383.0000 1.0000
43.3600 374.0000 1.0000
43.3700 381.0000 1.0000
43.3800 341.0000 1.0000
43.3900 360.0000 1.0000
43.4000 346.0000 1.0000
43.4100 359.0000 1.0000
43.4200 356.0000 1.0000
43.4300 377.0000 1.0000
43.4400 388.0000 1.0000
43.4500 394.0000 1.0000
43.4600 380.0000 1.0000
43.4700 399.0000 1.0000
43.4800 404.0000 1.0000
43.4900 339.0000 1.0000
43.5000 363.0000 1.0000
43.5100 335.0000 1.0000
43.5200 399.0000 1.0000
43.5300 372.0000 1.0000
43.5400 379.0000 1.0000
43.5500 373.0000 1.0000
43.5600 388.0000 1.0000
43.5700 370.0000 1.0000
43.5800 368.0000 1.0000
43.5900 393.0000 1.0000
43.6000 371.0000 1.0000
43.6100 350.0000 1.0000
43.6200 370.0000 1.0000
43.6300 356.0000 1.0000
43.6400 363.0000 1.0000
43.6500 396.0000 1.0000
43.6600 371.0000 1.0000
43.6700 354.0000 1.0000
43.6800 344.0000 1.0000
43.6900 351.0000 1.0000
43.7000 358.0000 1.0000
43.7100 364.0000 1.0000
43.7200 393.0000 1.0000
43.7300 361.0000 1.0000
43.7400 336.0000 1.0000
43.7500 328.0000 1.0000
43.7600 328.0000 1.0000
43.7700 316.0000 1.0000
43.7800 351.0000 1.0000
43.7900 348.0000 1.0000
43.8000 341.0000 1.0000
43.8100 365.0000 1.0000
43.8200 370.0000 1.0000
43.8300 361.0000 1.0000
43.8400 365.0000 1.0000
43.8500 355.0000 1.0000
43.8600 347.0000 1.0000
43.8700 350.0000 1.0000
43.8800 321.0000 1.0000
43.8900 348.0000 1.0000
43.9000 321.0000 1.0000
43.9100 376.0000 1.0000
43.9200 325.0000 1.0000
43.9300 355.0000 1.0000
43.9400 329.0000 1.0000
43.9500 351.0000 1.0000
43.9600 351.0000 1.0000
43.9700 361.0000 1.0000
43.9800 348.0000 1.0000
43.9900 330.0000 1.0000
44.0000 321.0000 1.0000
44.0100 355.0000 1.0000
44.0200 362.0000 1.0000
44.0300 329.0000 1.0000
44.0400 323.0000 1.0000
44.0500 325.0000 1.0000
44.0600 355.0000 1.0000
44.0700 342.0000 1.0000
44.0800 343.0000 1.0000
44.0900 362.0000 1.0000
44.1000 368.0000 1.0000
44.1100 349.0000 1.0000
44.1200 362.0000 1.0000
44.1300 356.0000 1.0000
44.1400 327.0000 1.0000
44.1500 362.0000 1.0000
44.1600 339.0000 1.0000
44.1700 345.0000 1.0000
44.1800 335.0000 1.0000
44.1900 349.0000 1.0000
44.2000 354.0000 1.0000
44.2100 323.0000 1.0000
44.2200 341.0000 1.0000
44.2300 324.0000 1.0000
44.2400 351.0000 1.0000
44.2500 340.0000 1.0000
44.2600 327.0000 1.0000
44.2700 360.0000 1.0000
44.2800 330.0000 1.0000
44.2900 340.0000 1.0000
44.3000 348.0000 1.0000
44.3100 360.0000 1.0000
44.3200 314.0000 1.0000
44.3300 329.0000 1.0000
44.3400 309.0000 1.0000
44.3500 331.0000 1.0000
44.3600 358.0000 1.0000
44.3700 370.0000 1.0000
44.3800 347.0000 1.0000
44.3900 344.0000 1.0000
44.4000 363.0000 1.0000
44.4100 346.0000 1.0000
44.4200 359.0000 1.0000
44.4300 317.0000 1.0000
44.4400 367.0000 1.0000
44.4500 346.0000 1.0000
44.4600 364.0000 1.0000
44.4700 314.0000 1.0000
44.4800 327.0000 1.0000
44.4900 360.0000 1.0000
44.5000 333.0000 1.0000
44.5100 356.0000 1.0000
44.5200 337.0000 1.0000
44.5300 342.0000 1.0000
44.5400 363.0000 1.0000
44.5500 354.0000 1.0000
44.5600 338.0000 1.0000
44.5700 342.0000 1.0000
44.5800 315.0000 1.0000
44.5900 330.0000 1.0000
44.6000 354.0000 1.0000
44.6100 368.0000 1.0000
44.6200 355.0000 1.0000
44.6300 376.0000 1.0000
44.6400 347.0000 1.0000
44.6500 356.0000 1.0000
44.6600 354.0000 1.0000
44.6700 341.0000 1.0000
44.6800 311.0000 1.0000
44.6900 331.0000 1.0000
44.7000 312.0000 1.0000
44.7100 368.0000 1.0000
44.7200 352.0000 1.0000
44.7300 336.0000 1.0000
44.7400 338.0000 1.0000
44.7500 343.0000 1.0000
44.7600 337.0000 1.0000
44.7700 329.0000 1.0000
44.7800 349.0000 1.0000
44.7900 360.0000 1.0000
44.8000 336.0000 1.0000
44.8100 325.0000 1.0000
44.8200 348.0000 1.0000
44.8300 323.0000 1.0000
44.8400 333.0000 1.0000
44.8500 326.0000 1.0000
44.8600 317.0000 1.0000
44.8700 338.0000 1.0000
44.8800 352.0000 1.0000
44.8900 322.0000 1.0000
44.9000 325.0000 1.0000
44.9100 319.0000 1.0000
44.9200 331.0000 1.0000
44.9300 344.0000 1.0000
44.9400 356.0000 1.0000
44.9500 357.0000 1.0000
44.9600 344.0000 1.0000
44.9700 303.0000 1.0000
44.9800 335.0000 1.0000
44.9900 350.0000 1.0000
45.0000 337.0000 1.0000
45.0100 338.0000 1.0000
45.0200 333.0000 1.0000
45.0300 377.0000 1.0000
45.0400 371.0000 1.0000
45.0500 356.0000 1.0000
45.0600 338.0000 1.0000
45.0700 372.0000 1.0000
45.0800 328.0000 1.0000
45.0900 352.0000 1.0000
45.1000 342.0000 1.0000
45.1100 346.0000 1.0000
45.1200 351.0000 1.0000
45.1300 361.0000 1.0000
45.1400 346.0000 1.0000
45.1500 340.0000 1.0000
45.1600 352.0000 1.0000
45.1700 335.0000 1.0000
45.1800 354.0000 1.0000
45.1900 322.0000 1.0000
45.2000 335.0000 1.0000
45.2100 292.0000 1.0000
45.2200 320.0000 1.0000
45.2300 355.0000 1.0000
45.2400 386.0000 1.0000
45.2500 317.0000 1.0000
45.2600 342.0000 1.0000
45.2700 356.0000 1.0000
45.2800 339.0000 1.0000
45.2900 360.0000 1.0000
45.3000 329.0000 1.0000
45.3100 344.0000 1.0000
45.3200 335.0000 1.0000
45.3300 368.0000 1.0000
45.3400 337.0000 1.0000
45.3500 318.0000 1.0000
45.3600 338.0000 1.0000
45.3700 355.0000 1.0000
45.3800 341.0000 1.0000
45.3900 340.0000 1.0000
45.4000 346.0000 1.0000
45.4100 365.0000 1.0000
45.4200 319.0000 1.0000
45.4300 328.0000 1.0000
45.4400 341.0000 1.0000
45.4500 323.0000 1.0000
45.4600 324.0000 1.0000
45.4700 325.0000 1.0000
45.4800 344.0000 1.0000
45.4900 353.0000 1.0000
45.5000 370.0000 1.0000
45.5100 318.0000 1.0000
45.5200 362.0000 1.0000
45.5300 368.0000 1.0000
45.5400 340.0000 1.0000
45.5500 330.0000 1.0000
45.5600 325.0000 1.0000
45.5700 332.0000 1.0000
45.5800 347.0000 1.0000
45.5900 320.0000 1.0000
45.6000 336.0000 1.0000
45.6100 339.0000 1.0000
45.6200 347.0000 1.0000
45.6300 353.0000 1.0000
45.6400 387.0000 1.0000
45.6500 349.0000 1.0000
45.6600 325.0000 1.0000
45.6700 361.0000 1.0000
45.6800 331.0000 1.0000
45.6900 297.0000 1.0000
45.7000 322.0000 1.0000
45.7100 331.0000 1.0000
45.7200 329.0000 1.0000
45.7300 344.0000 1.0000
45.7400 322.0000 1.0000
45.7500 356.0000 1.0000
45.7600 347.0000 1.0000
45.7700 328.0000 1.0000
45.7800 333.0000 1.0000
45.7900 356.0000 1.0000
45.8000 339.0000 1.0000
45.8100 329.0000 1.0000
45.8200 336.0000 1.0000
45.8300 337.0000 1.0000
45.8400 372.0000 1.0000
45.8500 348.0000 1.0000
45.8600 334.0000 1.0000
45.8700 339.0000 1.0000
45.8800 303.0000 1.0000
45.8900 322.0000 1.0000
45.9000 343.0000 1.0000
45.9100 321.0000 1.0000
45.9200 345.0000 1.0000
45.9300 345.0000 1.0000
45.9400 342.0000 1.0000
45.9500 332.0000 1.0000
45.9600 335.0000 1.0000
45.9700 307.0000 1.0000
45.9800 315.0000 1.0000
45.9900 341.0000 1.0000
46.0000 337.0000 1.0000
46.0100 345.0000 1.0000
46.0200 322.0000 1.0000
46.0300 327.0000 1.0000
46.0400 346.0000 1.0000
46.0500 338.0000 1.0000
46.0600 329.0000 1.0000
46.0700 325.0000 1.0000
46.0800 345.0000 1.0000
46.0900 352.0000 1.0000
46.1000 321.0000 1.0000
46.1100 295.0000 1.0000
46.1200 348.0000 1.0000
46.1300 342.0000 1.0000
46.1400 345.0000 1.0000
46.1500 352.0000 1.0000
46.1600 364.0000 1.0000
46.1700 343.0000 1.0000
46.1800 344.0000 1.0000
46.1900 334.0000 1.0000
46.2000 331.0000 1.0000
46.2100 362.0000 1.0000
46.2200 350.0000 1.0000
46.2300 357.0000 1.0000
46.2400 361.0000 1.0000
46.2500 337.0000 1.0000
46.2600 324.0000 1.0000
46.2700 347.0000 1.0000
46.2800 350.0000 1.0000
46.2900 352.0000 1.0000
46.3000 338.0000 1.0000
46.3100 327.0000 1.0000
46.3200 319.0000 1.0000
46.3300 324.0000 1.0000
46.3400 333.0000 1.0000
46.3500 327.0000 1.0000
46.3600 353.0000 1.0000
46.3700 342.0000 1.0000
46.3800 326.0000 1.0000
46.3900 306.0000 1.0000
46.4000 338.0000 1.0000
46.4100 343.0000 1.0000
46.4200 377.0000 1.0000
46.4300 334.0000 1.0000
46.4400 312.0000 1.0000
46.4500 312.0000 1.0000
46.4600 331.0000 1.0000
46.4700 326.0000 1.0000
46.4800 327.0000 1.0000
46.4900 323.0000 1.0000
46.5000 304.0000 1.0000
46.5100 337.0000 1.0000
46.5200 365.0000 1.0000
46.5300 322.0000 1.0000
46.5400 307.0000 1.0000
46.5500 329.0000 1.0000
46.5600 325.0000 1.0000
46.5700 323.0000 1.0000
46.5800 338.0000 1.0000
46.5900 346.0000 1.0000
46.6000 309.0000 1.0000
46.6100 323.0000 1.0000
46.6200 328.0000 1.0000
46.6300 297.0000 1.0000
46.6400 337.0000 1.0000
46.6500 341.0000 1.0000
46.6600 332.0000 1.0000
46.6700 325.0000 1.0000
46.6800 327.0000 1.0000
46.6900 326.0000 1.0000
46.7000 340.0000 1.0000
46.7100 302.0000 1.0000
46.7200 307.0000 1.0000
46.7300 345.0000 1.0000
46.7400 323.0000 1.0000
46.7500 324.0000 1.0000
46.7600 324.0000 1.0000
46.7700 311.0000 1.0000
46.7800 323.0000 1.0000
46.7900 306.0000 1.0000
46.8000 317.0000 1.0000
46.8100 304.0000 1.0000
46.8200 348.0000 1.0000
46.8300 319.0000 1.0000
46.8400 317.0000 1.0000
46.8500 341.0000 1.0000
46.8600 314.0000 1.0000
46.8700 320.0000 1.0000
46.8800 317.0000 1.0000
46.8900 342.0000 1.0000
46.9000 334.0000 1.0000
46.9100 311.0000 1.0000
46.9200 312.0000 1.0000
46.9300 317.0000 1.0000
46.9400 334.0000 1.0000
46.9500 310.0000 1.0000
46.9600 315.0000 1.0000
46.9700 330.0000 1.0000
46.9800 327.0000 1.0000
46.9900 335.0000 1.0000
47.0000 302.0000 1.0000
47.0100 320.0000 1.0000
47.0200 305.0000 1.0000
47.0300 307.0000 1.0000
47.0400 346.0000 1.0000
47.0500 320.0000 1.0000
47.0600 301.0000 1.0000
47.0700 343.0000 1.0000
47.0800 313.0000 1.0000
47.0900 345.0000 1.0000
47.1000 319.0000 1.0000
47.1100 305.0000 1.0000
47.1200 349.0000 1.0000
47.1300 304.0000 1.0000
47.1400 331.0000 1.0000
47.1500 323.0000 1.0000
47.1600 336.0000 1.0000
47.1700 367.0000 1.0000
47.1800 312.0000 1.0000
47.1900 311.0000 1.0000
47.2000 315.0000 1.0000
47.2100 329.0000 1.0000
47.2200 334.0000 1.0000
47.2300 328.0000 1.0000
47.2400 312.0000 1.0000
47.2500 325.0000 1.0000
47.2600 343.0000 1.0000
47.2700 331.0000 1.0000
47.2800 336.0000 1.0000
47.2900 314.0000 1.0000
47.3000 324.0000 1.0000
47.3100 318.0000 1.0000
47.3200 329.0000 1.0000
47.3300 314.0000 1.0000
47.3400 351.0000 1.0000
47.3500 287.0000 1.0000
47.3600 301.0000 1.0000
47.3700 334.0000 1.0000
47.3800 314.0000 1.0000
47.3900 306.0000 1.0000
47.4000 301.0000 1.0000
47.4100 340.0000 1.0000
47.4200 334.0000 1.0000
47.4300 319.0000 1.0000
47.4400 337.0000 1.0000
47.4500 322.0000 1.0000
47.4600 329.0000 1.0000
47.4700 332.0000 1.0000
47.4800 327.0000 1.0000
47.4900 312.0000 1.0000
47.5000 322.0000 1.0000
47.5100 309.0000 1.0000
47.5200 311.0000 1.0000
47.5300 333.0000 1.0000
47.5400 335.0000 1.0000
47.5500 342.0000 1.0000
47.5600 296.0000 1.0000
47.5700 312.0000 1.0000
47.5800 295.0000 1.0000
47.5900 295.0000 1.0000
47.6000 326.0000 1.0000
47.6100 308.0000 1.0000
47.6200 314.0000 1.0000
47.6300 353.0000 1.0000
47.6400 341.0000 1.0000
47.6500 297.0000 1.0000
47.6600 321.0000 1.0000
47.6700 317.0000 1.0000
47.6800 296.0000 1.0000
47.6900 317.0000 1.0000
47.7000 316.0000 1.0000
47.7100 307.0000 1.0000
47.7200 307.0000 1.0000
47.7300 328.0000 1.0000
47.7400 335.0000 1.0000
47.7500 308.0000 1.0000
47.7600 282.0000 1.0000
47.7700 325.0000 1.0000
47.7800 325.0000 1.0000
47.7900 319.0000 1.0000
47.8000 324.0000 1.0000
47.8100 325.0000 1.0000
47.8200 303.0000 1.0000
47.8300 318.0000 1.0000
47.8400 322.0000 1.0000
47.8500 336.0000 1.0000
47.8600 343.0000 1.0000
47.8700 323.0000 1.0000
47.8800 349.0000 1.0000
47.8900 307.0000 1.0000
47.9000 290.0000 1.0000
47.9100 305.0000 1.0000
47.9200 328.0000 1.0000
47.9300 310.0000 1.0000
47.9400 314.0000 1.0000
47.9500 332.0000 1.0000
47.9600 319.0000 1.0000
47.9700 285.0000 1.0000
47.9800 327.0000 1.0000
47.9900 340.0000 1.0000
48.0000 310.0000 1.0000
48.0100 318.0000 1.0000
48.0200 300.0000 1.0000
48.0300 328.0000 1.0000
48.0400 340.0000 1.0000
48.0500 300.0000 1.0000
48.0600 330.0000 1.0000
48.0700 321.0000 1.0000
48.0800 320.0000 1.0000
48.0900 324.0000 1.0000
48.1000 314.0000 1.0000
48.1100 319.0000 1.0000
48.1200 322.0000 1.0000
48.1300 333.0000 1.0000
48.1400 309.0000 1.0000
48.1500 334.0000 1.0000
48.1600 333.0000 1.0000
48.1700 309.0000 1.0000
48.1800 277.0000 1.0000
48.1900 305.0000 1.0000
48.2000 317.0000 1.0000
48.2100 312.0000 1.0000
48.2200 309.0000 1.0000
48.2300 320.0000 1.0000
48.2400 338.0000 1.0000
48.2500 329.0000 1.0000
48.2600 278.0000 1.0000
48.2700 316.0000 1.0000
48.2800 304.0000 1.0000
48.2900 318.0000 1.0000
48.3000 345.0000 1.0000
48.3100 345.0000 1.0000
48.3200 299.0000 1.0000
48.3300 310.0000 1.0000
48.3400 290.0000 1.0000
48.3500 330.0000 1.0000
48.3600 328.0000 1.0000
48.3700 316.0000 1.0000
48.3800 308.0000 1.0000
48.3900 282.0000 1.0000
48.4000 303.0000 1.0000
48.4100 327.0000 1.0000
48.4200 342.0000 1.0000
48.4300 330.0000 1.0000
48.4400 313.0000 1.0000
48.4500 313.0000 1.0000
48.4600 349.0000 1.0000
48.4700 316.0000 1.0000
48.4800 306.0000 1.0000
48.4900 285.0000 1.0000
48.5000 314.0000 1.0000
48.5100 300.0000 1.0000
48.5200 308.0000 1.0000
48.5300 341.0000 1.0000
48.5400 336.0000 1.0000
48.5500 326.0000 1.0000
48.5600 302.0000 1.0000
48.5700 298.0000 1.0000
48.5800 338.0000 1.0000
48.5900 294.0000 1.0000
48.6000 308.0000 1.0000
48.6100 333.0000 1.0000
48.6200 317.0000 1.0000
48.6300 329.0000 1.0000
48.6400 319.0000 1.0000
48.6500 302.0000 1.0000
48.6600 320.0000 1.0000
48.6700 344.0000 1.0000
48.6800 325.0000 1.0000
48.6900 340.0000 1.0000
48.7000 315.0000 1.0000
48.7100 325.0000 1.0000
48.7200 318.0000 1.0000
48.7300 301.0000 1.0000
48.7400 326.0000 1.0000
48.7500 339.0000 1.0000
48.7600 284.0000 1.0000
48.7700 312.0000 1.0000
48.7800 309.0000 1.0000
48.7900 342.0000 1.0000
48.8000 327.0000 1.0000
48.8100 327.0000 1.0000
48.8200 308.0000 1.0000
48.8300 309.0000 1.0000
48.8400 325.0000 1.0000
48.8500 344.0000 1.0000
48.8600 323.0000 1.0000
48.8700 292.0000 1.0000
48.8800 328.0000 1.0000
48.8900 323.0000 1.0000
48.9000 326.0000 1.0000
48.9100 347.0000 1.0000
48.9200 333.0000 1.0000
48.9300 322.0000 1.0000
48.9400 300.0000 1.0000
48.9500 296.0000 1.0000
48.9600 327.0000 1.0000
48.9700 282.0000 1.0000
48.9800 344.0000 1.0000
48.9900 317.0000 1.0000
49.0000 309.0000 1.0000
49.0100 314.0000 1.0000
49.0200 316.0000 1.0000
49.0300 304.0000 1.0000
49.0400 343.0000 1.0000
49.0500 286.0000 1.0000
49.0600 306.0000 1.0000
49.0700 302.0000 1.0000
49.0800 305.0000 1.0000
49.0900 319.0000 1.0000
49.1000 319.0000 1.0000
49.1100 317.0000 1.0000
49.1200 309.0000 1.0000
49.1300 322.0000 1.0000
49.1400 338.0000 1.0000
49.1500 308.0000 1.0000
49.1600 295.0000 1.0000
49.1700 314.0000 1.0000
49.1800 319.0000 1.0000
49.1900 325.0000 1.0000
49.2000 342.0000 1.0000
49.2100 327.0000 1.0000
49.2200 306.0000 1.0000
49.2300 315.0000 1.0000
49.2400 316.0000 1.0000
49.2500 335.0000 1.0000
49.2600 340.0000 1.0000
49.2700 329.0000 1.0000
49.2800 311.0000 1.0000
49.2900 315.0000 1.0000
49.3000 359.0000 1.0000
49.3100 344.0000 1.0000
49.3200 323.0000 1.0000
49.3300 324.0000 1.0000
49.3400 340.0000 1.0000
49.3500 289.0000 1.0000
49.3600 334.0000 1.0000
49.3700 339.0000 1.0000
49.3800 358.0000 1.0000
49.3900 323.0000 1.0000
49.4000 310.0000 1.0000
49.4100 293.0000 1.0000
49.4200 341.0000 1.0000
49.4300 344.0000 1.0000
49.4400 348.0000 1.0000
49.4500 346.0000 1.0000
49.4600 364.0000 1.0000
49.4700 363.0000 1.0000
49.4800 368.0000 1.0000
49.4900 338.0000 1.0000
49.5000 332.0000 1.0000
49.5100 339.0000 1.0000
49.5200 364.0000 1.0000
49.5300 365.0000 1.0000
49.5400 314.0000 1.0000
49.5500 343.0000 1.0000
49.5600 325.0000 1.0000
49.5700 329.0000 1.0000
49.5800 341.0000 1.0000
49.5900 332.0000 1.0000
49.6000 343.0000 1.0000
49.6100 325.0000 1.0000
49.6200 336.0000 1.0000
49.6300 334.0000 1.0000
49.6400 320.0000 1.0000
49.6500 311.0000 1.0000
49.6600 331.0000 1.0000
49.6700 341.0000 1.0000
49.6800 307.0000 1.0000
49.6900 315.0000 1.0000
49.7000 318.0000 1.0000
49.7100 325.0000 1.0000
49.7200 312.0000 1.0000
49.7300 340.0000 1.0000
49.7400 331.0000 1.0000
49.7500 332.0000 1.0000
49.7600 317.0000 1.0000
49.7700 310.0000 1.0000
49.7800 286.0000 1.0000
49.7900 328.0000 1.0000
49.8000 291.0000 1.0000
49.8100 306.0000 1.0000
49.8200 315.0000 1.0000
49.8300 301.0000 1.0000
49.8400 297.0000 1.0000
49.8500 297.0000 1.0000
49.8600 338.0000 1.0000
49.8700 325.0000 1.0000
49.8800 304.0000 1.0000
49.8900 306.0000 1.0000
49.9000 301.0000 1.0000
49.9100 316.0000 1.0000
49.9200 311.0000 1.0000
49.9300 316.0000 1.0000
49.9400 325.0000 1.0000
49.9500 307.0000 1.0000
49.9600 307.0000 1.0000
49.9700 320.0000 1.0000
49.9800 329.0000 1.0000
49.9900 287.0000 1.0000
50.0000 318.0000 1.0000
50.0100 325.0000 1.0000
50.0200 318.0000 1.0000
50.0300 314.0000 1.0000
50.0400 300.0000 1.0000
50.0500 300.0000 1.0000
50.0600 332.0000 1.0000
50.0700 327.0000 1.0000
50.0800 325.0000 1.0000
50.0900 313.0000 1.0000
50.1000 315.0000 1.0000
50.1100 327.0000 1.0000
50.1200 314.0000 1.0000
50.1300 315.0000 1.0000
50.1400 320.0000 1.0000
50.1500 295.0000 1.0000
50.1600 301.0000 1.0000
50.1700 303.0000 1.0000
50.1800 312.0000 1.0000
50.1900 333.0000 1.0000
50.2000 351.0000 1.0000
50.2100 311.0000 1.0000
50.2200 319.0000 1.0000
50.2300 306.0000 1.0000
50.2400 339.0000 1.0000
50.2500 306.0000 1.0000
50.2600 289.0000 1.0000
50.2700 321.0000 1.0000
50.2800 330.0000 1.0000
50.2900 351.0000 1.0000
50.3000 317.0000 1.0000
50.3100 303.0000 1.0000
50.3200 303.0000 1.0000
50.3300 331.0000 1.0000
50.3400 320.0000 1.0000
50.3500 306.0000 1.0000
50.3600 327.0000 1.0000
50.3700 331.0000 1.0000
50.3800 316.0000 1.0000
50.3900 314.0000 1.0000
50.4000 298.0000 1.0000
50.4100 351.0000 1.0000
50.4200 328.0000 1.0000
50.4300 315.0000 1.0000
50.4400 304.0000 1.0000
50.4500 320.0000 1.0000
50.4600 291.0000 1.0000
50.4700 275.0000 1.0000
50.4800 309.0000 1.0000
50.4900 297.0000 1.0000
50.5000 326.0000 1.0000
50.5100 322.0000 1.0000
50.5200 320.0000 1.0000
50.5300 323.0000 1.0000
50.5400 325.0000 1.0000
50.5500 298.0000 1.0000
50.5600 292.0000 1.0000
50.5700 328.0000 1.0000
50.5800 311.0000 1.0000
50.5900 320.0000 1.0000
50.6000 341.0000 1.0000
50.6100 335.0000 1.0000
50.6200 298.0000 1.0000
50.6300 339.0000 1.0000
50.6400 299.0000 1.0000
50.6500 294.0000 1.0000
50.6600 322.0000 1.0000
50.6700 324.0000 1.0000
50.6800 296.0000 1.0000
50.6900 310.0000 1.0000
50.7000 335.0000 1.0000
50.7100 338.0000 1.0000
50.7200 302.0000 1.0000
50.7300 312.0000 1.0000
50.7400 353.0000 1.0000
50.7500 303.0000 1.0000
50.7600 326.0000 1.0000
50.7700 353.0000 1.0000
50.7800 345.0000 1.0000
50.7900 334.0000 1.0000
50.8000 321.0000 1.0000
50.8100 315.0000 1.0000
50.8200 309.0000 1.0000
50.8300 315.0000 1.0000
50.8400 335.0000 1.0000
50.8500 330.0000 1.0000
50.8600 328.0000 1.0000
50.8700 323.0000 1.0000
50.8800 333.0000 1.0000
50.8900 339.0000 1.0000
50.9000 335.0000 1.0000
50.9100 347.0000 1.0000
50.9200 323.0000 1.0000
50.9300 355.0000 1.0000
50.9400 365.0000 1.0000
50.9500 314.0000 1.0000
50.9600 302.0000 1.0000
50.9700 323.0000 1.0000
50.9800 355.0000 1.0000
50.9900 351.0000 1.0000
51.0000 344.0000 1.0000
51.0100 331.0000 1.0000
51.0200 345.0000 1.0000
51.0300 302.0000 1.0000
51.0400 353.0000 1.0000
51.0500 393.0000 1.0000
51.0600 387.0000 1.0000
51.0700 381.0000 1.0000
51.0800 379.0000 1.0000
51.0900 370.0000 1.0000
51.1000 380.0000 1.0000
51.1100 361.0000 1.0000
51.1200 408.0000 1.0000
51.1300 396.0000 1.0000
51.1400 410.0000 1.0000
51.1500 403.0000 1.0000
51.1600 418.0000 1.0000
51.1700 426.0000 1.0000
51.1800 456.0000 1.0000
51.1900 445.0000 1.0000
51.2000 504.0000 1.0000
51.2100 495.0000 1.0000
51.2200 519.0000 1.0000
51.2300 530.0000 1.0000
51.2400 538.0000 1.0000
51.2500 561.0000 1.0000
51.2600 589.0000 1.0000
51.2700 589.0000 1.0000
51.2800 611.0000 1.0000
51.2900 626.0000 1.0000
51.3000 658.0000 1.0000
51.3100 657.0000 1.0000
51.3200 724.0000 1.0000
51.3300 770.0000 1.0000
51.3400 831.0000 1.0000
51.3500 902.0000 1.0000
51.3600 998.0000 1.0000
51.3700 1071.0000 1.0000
51.3800 1198.0000 1.0000
51.3900 1200.0000 1.0000
51.4000 1352.0000 1.0000
51.4100 1466.0000 1.0000
51.4200 1619.0000 1.0000
51.4300 1844.0000 1.0000
51.4400 1800.0000 1.0000
51.4500 1962.0000 1.0000
51.4600 1998.0000 1.0000
51.4700 2090.0000 1.0000
51.4800 2309.0000 1.0000
51.4900 2300.0000 1.0000
51.5000 2353.0000 1.0000
51.5100 2259.0000 1.0000
51.5200 2256.0000 1.0000
51.5300 2178.0000 1.0000
51.5400 1993.0000 1.0000
51.5500 1933.0000 1.0000
51.5600 1903.0000 1.0000
51.5700 1903.0000 1.0000
51.5800 1826.0000 1.0000
51.5900 1784.0000 1.0000
51.6000 1751.0000 1.0000
51.6100 1712.0000 1.0000
51.6200 1682.0000 1.0000
51.6300 1638.0000 1.0000
51.6400 1531.0000 1.0000
51.6500 1487.0000 1.0000
51.6600 1419.0000 1.0000
51.6700 1260.0000 1.0000
51.6800 1186.0000 1.0000
51.6900 1120.0000 1.0000
51.7000 1022.0000 1.0000
51.7100 913.0000 1.0000
51.7200 888.0000 1.0000
51.7300 861.0000 1.0000
51.7400 785.0000 1.0000
51.7500 711.0000 1.0000
51.7600 702.0000 1.0000
51.7700 677.0000 1.0000
51.7800 670.0000 1.0000
51.7900 609.0000 1.0000
51.8000 579.0000 1.0000
51.8100 568.0000 1.0000
51.8200 534.0000 1.0000
51.8300 498.0000 1.0000
51.8400 507.0000 1.0000
51.8500 549.0000 1.0000
51.8600 447.0000 1.0000
51.8700 458.0000 1.0000
51.8800 424.0000 1.0000
51.8900 440.0000 1.0000
51.9000 423.0000 1.0000
51.9100 439.0000 1.0000
51.9200 418.0000 1.0000
51.9300 402.0000 1.0000
51.9400 422.0000 1.0000
51.9500 395.0000 1.0000
51.9600 398.0000 1.0000
51.9700 397.0000 1.0000
51.9800 376.0000 1.0000
51.9900 372.0000 1.0000
52.0000 391.0000 1.0000
52.0100 375.0000 1.0000
52.0200 356.0000 1.0000
52.0300 398.0000 1.0000
52.0400 371.0000 1.0000
52.0500 383.0000 1.0000
52.0600 351.0000 1.0000
52.0700 335.0000 1.0000
52.0800 314.0000 1.0000
52.0900 349.0000 1.0000
52.1000 306.0000 1.0000
52.1100 342.0000 1.0000
52.1200 355.0000 1.0000
52.1300 340.0000 1.0000
52.1400 379.0000 1.0000
52.1500 381.0000 1.0000
52.1600 359.0000 1.0000
52.1700 332.0000 1.0000
52.1800 351.0000 1.0000
52.1900 355.0000 1.0000
52.2000 339.0000 1.0000
52.2100 330.0000 1.0000
52.2200 339.0000 1.0000
52.2300 323.0000 1.0000
52.2400 328.0000 1.0000
52.2500 359.0000 1.0000
52.2600 324.0000 1.0000
52.2700 332.0000 1.0000
52.2800 335.0000 1.0000
52.2900 313.0000 1.0000
52.3000 350.0000 1.0000
52.3100 329.0000 1.0000
52.3200 325.0000 1.0000
52.3300 354.0000 1.0000
52.3400 318.0000 1.0000
52.3500 323.0000 1.0000
52.3600 348.0000 1.0000
52.3700 341.0000 1.0000
52.3800 351.0000 1.0000
52.3900 323.0000 1.0000
52.4000 311.0000 1.0000
52.4100 327.0000 1.0000
52.4200 326.0000 1.0000
52.4300 319.0000 1.0000
52.4400 336.0000 1.0000
52.4500 338.0000 1.0000
52.4600 318.0000 1.0000
52.4700 316.0000 1.0000
52.4800 313.0000 1.0000
52.4900 324.0000 1.0000
52.5000 318.0000 1.0000
52.5100 301.0000 1.0000
52.5200 322.0000 1.0000
52.5300 322.0000 1.0000
52.5400 300.0000 1.0000
52.5500 309.0000 1.0000
52.5600 309.0000 1.0000
52.5700 310.0000 1.0000
52.5800 327.0000 1.0000
52.5900 288.0000 1.0000
52.6000 313.0000 1.0000
52.6100 290.0000 1.0000
52.6200 299.0000 1.0000
52.6300 316.0000 1.0000
52.6400 299.0000 1.0000
52.6500 329.0000 1.0000
52.6600 305.0000 1.0000
52.6700 301.0000 1.0000
52.6800 285.0000 1.0000
52.6900 351.0000 1.0000
52.7000 336.0000 1.0000
52.7100 303.0000 1.0000
52.7200 310.0000 1.0000
52.7300 309.0000 1.0000
52.7400 291.0000 1.0000
52.7500 335.0000 1.0000
52.7600 329.0000 1.0000
52.7700 297.0000 1.0000
52.7800 305.0000 1.0000
52.7900 353.0000 1.0000
52.8000 311.0000 1.0000
52.8100 321.0000 1.0000
52.8200 339.0000 1.0000
52.8300 325.0000 1.0000
52.8400 318.0000 1.0000
52.8500 310.0000 1.0000
52.8600 306.0000 1.0000
52.8700 287.0000 1.0000
52.8800 311.0000 1.0000
52.8900 318.0000 1.0000
52.9000 312.0000 1.0000
52.9100 306.0000 1.0000
52.9200 280.0000 1.0000
52.9300 309.0000 1.0000
52.9400 296.0000 1.0000
52.9500 304.0000 1.0000
52.9600 318.0000 1.0000
52.9700 296.0000 1.0000
52.9800 327.0000 1.0000
52.9900 311.0000 1.0000
53.0000 311.0000 1.0000
53.0100 302.0000 1.0000
53.0200 266.0000 1.0000
53.0300 284.0000 1.0000
53.0400 305.0000 1.0000
53.0500 313.0000 1.0000
53.0600 315.0000 1.0000
53.0700 312.0000 1.0000
53.0800 282.0000 1.0000
53.0900 301.0000 1.0000
53.1000 303.0000 1.0000
53.1100 292.0000 1.0000
53.1200 327.0000 1.0000
53.1300 291.0000 1.0000
53.1400 310.0000 1.0000
53.1500 311.0000 1.0000
53.1600 330.0000 1.0000
53.1700 289.0000 1.0000
53.1800 289.0000 1.0000
53.1900 303.0000 1.0000
53.2000 264.0000 1.0000
53.2100 281.0000 1.0000
53.2200 291.0000 1.0000
53.2300 288.0000 1.0000
53.2400 306.0000 1.0000
53.2500 337.0000 1.0000
53.2600 292.0000 1.0000
53.2700 311.0000 1.0000
53.2800 315.0000 1.0000
53.2900 303.0000 1.0000
53.3000 304.0000 1.0000
53.3100 314.0000 1.0000
53.3200 305.0000 1.0000
53.3300 289.0000 1.0000
53.3400 287.0000 1.0000
53.3500 309.0000 1.0000
53.3600 327.0000 1.0000
53.3700 290.0000 1.0000
53.3800 325.0000 1.0000
53.3900 309.0000 1.0000
53.4000 277.0000 1.0000
53.4100 295.0000 1.0000
53.4200 314.0000 1.0000
53.4300 282.0000 1.0000
53.4400 338.0000 1.0000
53.4500 285.0000 1.0000
53.4600 296.0000 1.0000
53.4700 303.0000 1.0000
53.4800 310.0000 1.0000
53.4900 306.0000 1.0000
53.5000 310.0000 1.0000
53.5100 296.0000 1.0000
53.5200 294.0000 1.0000
53.5300 273.0000 1.0000
53.5400 301.0000 1.0000
53.5500 306.0000 1.0000
53.5600 320.0000 1.0000
53.5700 322.0000 1.0000
53.5800 305.0000 1.0000
53.5900 301.0000 1.0000
53.6000 309.0000 1.0000
53.6100 305.0000 1.0000
53.6200 298.0000 1.0000
53.6300 309.0000 1.0000
53.6400 299.0000 1.0000
53.6500 312.0000 1.0000
53.6600 282.0000 1.0000
53.6700 316.0000 1.0000
53.6800 293.0000 1.0000
53.6900 307.0000 1.0000
53.7000 319.0000 1.0000
53.7100 307.0000 1.0000
53.7200 324.0000 1.0000
53.7300 331.0000 1.0000
53.7400 302.0000 1.0000
53.7500 305.0000 1.0000
53.7600 300.0000 1.0000
53.7700 289.0000 1.0000
53.7800 283.0000 1.0000
53.7900 288.0000 1.0000
53.8000 327.0000 1.0000
53.8100 328.0000 1.0000
53.8200 345.0000 1.0000
53.8300 305.0000 1.0000
53.8400 320.0000 1.0000
53.8500 310.0000 1.0000
53.8600 320.0000 1.0000
53.8700 296.0000 1.0000
53.8800 331.0000 1.0000
53.8900 311.0000 1.0000
53.9000 320.0000 1.0000
53.9100 299.0000 1.0000
53.9200 335.0000 1.0000
53.9300 320.0000 1.0000
53.9400 302.0000 1.0000
53.9500 326.0000 1.0000
53.9600 324.0000 1.0000
53.9700 336.0000 1.0000
53.9800 336.0000 1.0000
53.9900 324.0000 1.0000
54.0000 354.0000 1.0000
54.0100 341.0000 1.0000
54.0200 335.0000 1.0000
54.0300 319.0000 1.0000
54.0400 328.0000 1.0000
54.0500 337.0000 1.0000
54.0600 367.0000 1.0000
54.0700 358.0000 1.0000
54.0800 355.0000 1.0000
54.0900 339.0000 1.0000
54.1000 320.0000 1.0000
54.1100 332.0000 1.0000
54.1200 347.0000 1.0000
54.1300 341.0000 1.0000
54.1400 329.0000 1.0000
54.1500 348.0000 1.0000
54.1600 324.0000 1.0000
54.1700 314.0000 1.0000
54.1800 347.0000 1.0000
54.1900 332.0000 1.0000
54.2000 330.0000 1.0000
54.2100 332.0000 1.0000
54.2200 330.0000 1.0000
54.2300 336.0000 1.0000
54.2400 293.0000 1.0000
54.2500 343.0000 1.0000
54.2600 334.0000 1.0000
54.2700 317.0000 1.0000
54.2800 306.0000 1.0000
54.2900 328.0000 1.0000
54.3000 342.0000 1.0000
54.3100 363.0000 1.0000
54.3200 375.0000 1.0000
54.3300 376.0000 1.0000
54.3400 357.0000 1.0000
54.3500 335.0000 1.0000
54.3600 360.0000 1.0000
54.3700 394.0000 1.0000
54.3800 348.0000 1.0000
54.3900 391.0000 1.0000
54.4000 382.0000 1.0000
54.4100 422.0000 1.0000
54.4200 400.0000 1.0000
54.4300 420.0000 1.0000
54.4400 423.0000 1.0000
54.4500 445.0000 1.0000
54.4600 457.0000 1.0000
54.4700 437.0000 1.0000
54.4800 441.0000 1.0000
54.4900 457.0000 1.0000
54.5000 432.0000 1.0000
54.5100 437.0000 1.0000
54.5200 427.0000 1.0000
54.5300 476.0000 1.0000
54.5400 407.0000 1.0000
54.5500 432.0000 1.0000
54.5600 462.0000 1.0000
54.5700 445.0000 1.0000
54.5800 443.0000 1.0000
54.5900 441.0000 1.0000
54.6000 464.0000 1.0000
54.6100 424.0000 1.0000
54.6200 452.0000 1.0000
54.6300 415.0000 1.0000
54.6400 448.0000 1.0000
54.6500 458.0000 1.0000
54.6600 400.0000 1.0000
54.6700 407.0000 1.0000
54.6800 416.0000 1.0000
54.6900 410.0000 1.0000
54.7000 409.0000 1.0000
54.7100 395.0000 1.0000
54.7200 378.0000 1.0000
54.7300 376.0000 1.0000
54.7400 406.0000 1.0000
54.7500 349.0000 1.0000
54.7600 353.0000 1.0000
54.7700 380.0000 1.0000
54.7800 348.0000 1.0000
54.7900 356.0000 1.0000
54.8000 339.0000 1.0000
54.8100 365.0000 1.0000
54.8200 323.0000 1.0000
54.8300 345.0000 1.0000
54.8400 319.0000 1.0000
54.8500 326.0000 1.0000
54.8600 331.0000 1.0000
54.8700 327.0000 1.0000
54.8800 320.0000 1.0000
54.8900 336.0000 1.0000
54.9000 311.0000 1.0000
54.9100 290.0000 1.0000
54.9200 332.0000 1.0000
54.9300 320.0000 1.0000
54.9400 312.0000 1.0000
54.9500 309.0000 1.0000
54.9600 325.0000 1.0000
54.9700 306.0000 1.0000
54.9800 299.0000 1.0000
54.9900 302.0000 1.0000
55.0000 341.0000 1.0000
55.0100 302.0000 1.0000
55.0200 296.0000 1.0000
55.0300 305.0000 1.0000
55.0400 300.0000 1.0000
55.0500 314.0000 1.0000
55.0600 308.0000 1.0000
55.0700 302.0000 1.0000
55.0800 304.0000 1.0000
55.0900 293.0000 1.0000
55.1000 347.0000 1.0000
55.1100 299.0000 1.0000
55.1200 269.0000 1.0000
55.1300 309.0000 1.0000
55.1400 326.0000 1.0000
55.1500 338.0000 1.0000
55.1600 312.0000 1.0000
55.1700 306.0000 1.0000
55.1800 279.0000 1.0000
55.1900 299.0000 1.0000
55.2000 293.0000 1.0000
55.2100 310.0000 1.0000
55.2200 317.0000 1.0000
55.2300 289.0000 1.0000
55.2400 283.0000 1.0000
55.2500 311.0000 1.0000
55.2600 317.0000 1.0000
55.2700 292.0000 1.0000
55.2800 276.0000 1.0000
55.2900 296.0000 1.0000
55.3000 296.0000 1.0000
55.3100 288.0000 1.0000
55.3200 275.0000 1.0000
55.3300 302.0000 1.0000
55.3400 325.0000 1.0000
55.3500 299.0000 1.0000
55.3600 287.0000 1.0000
55.3700 267.0000 1.0000
55.3800 287.0000 1.0000
55.3900 283.0000 1.0000
55.4000 294.0000 1.0000
55.4100 272.0000 1.0000
55.4200 305.0000 1.0000
55.4300 304.0000 1.0000
55.4400 284.0000 1.0000
55.4500 298.0000 1.0000
55.4600 290.0000 1.0000
55.4700 325.0000 1.0000
55.4800 280.0000 1.0000
55.4900 271.0000 1.0000
55.5000 299.0000 1.0000
55.5100 278.0000 1.0000
55.5200 291.0000 1.0000
55.5300 278.0000 1.0000
55.5400 302.0000 1.0000
55.5500 306.0000 1.0000
55.5600 278.0000 1.0000
55.5700 280.0000 1.0000
55.5800 278.0000 1.0000
55.5900 286.0000 1.0000
55.6000 323.0000 1.0000
55.6100 284.0000 1.0000
55.6200 319.0000 1.0000
55.6300 266.0000 1.0000
55.6400 267.0000 1.0000
55.6500 296.0000 1.0000
55.6600 292.0000 1.0000
55.6700 300.0000 1.0000
55.6800 291.0000 1.0000
55.6900 322.0000 1.0000
55.7000 285.0000 1.0000
55.7100 291.0000 1.0000
55.7200 312.0000 1.0000
55.7300 317.0000 1.0000
55.7400 273.0000 1.0000
55.7500 298.0000 1.0000
55.7600 268.0000 1.0000
55.7700 287.0000 1.0000
55.7800 322.0000 1.0000
55.7900 293.0000 1.0000
55.8000 274.0000 1.0000
55.8100 264.0000 1.0000
55.8200 267.0000 1.0000
55.8300 278.0000 1.0000
55.8400 299.0000 1.0000
55.8500 274.0000 1.0000
55.8600 278.0000 1.0000
55.8700 296.0000 1.0000
55.8800 307.0000 1.0000
55.8900 311.0000 1.0000
55.9000 280.0000 1.0000
55.9100 296.0000 1.0000
55.9200 312.0000 1.0000
55.9300 290.0000 1.0000
55.9400 280.0000 1.0000
55.9500 323.0000 1.0000
55.9600 305.0000 1.0000
55.9700 301.0000 1.0000
55.9800 299.0000 1.0000
55.9900 298.0000 1.0000
56.0000 312.0000 1.0000
56.0100 302.0000 1.0000
56.0200 274.0000 1.0000
56.0300 284.0000 1.0000
56.0400 293.0000 1.0000
56.0500 295.0000 1.0000
56.0600 282.0000 1.0000
56.0700 289.0000 1.0000
56.0800 281.0000 1.0000
56.0900 294.0000 1.0000
56.1000 277.0000 1.0000
56.1100 267.0000 1.0000
56.1200 302.0000 1.0000
56.1300 306.0000 1.0000
56.1400 292.0000 1.0000
56.1500 290.0000 1.0000
56.1600 279.0000 1.0000
56.1700 295.0000 1.0000
56.1800 306.0000 1.0000
56.1900 320.0000 1.0000
56.2000 297.0000 1.0000
56.2100 299.0000 1.0000
56.2200 330.0000 1.0000
56.2300 309.0000 1.0000
56.2400 288.0000 1.0000
56.2500 307.0000 1.0000
56.2600 313.0000 1.0000
56.2700 281.0000 1.0000
56.2800 294.0000 1.0000
56.2900 284.0000 1.0000
56.3000 281.0000 1.0000
56.3100 268.0000 1.0000
56.3200 268.0000 1.0000
56.3300 270.0000 1.0000
56.3400 287.0000 1.0000
56.3500 278.0000 1.0000
56.3600 292.0000 1.0000
56.3700 311.0000 1.0000
56.3800 286.0000 1.0000
56.3900 299.0000 1.0000
56.4000 299.0000 1.0000
56.4100 275.0000 1.0000
56.4200 281.0000 1.0000
56.4300 268.0000 1.0000
56.4400 258.0000 1.0000
56.4500 274.0000 1.0000
56.4600 293.0000 1.0000
56.4700 262.0000 1.0000
56.4800 296.0000 1.0000
56.4900 326.0000 1.0000
56.5000 318.0000 1.0000
56.5100 302.0000 1.0000
56.5200 280.0000 1.0000
56.5300 282.0000 1.0000
56.5400 283.0000 1.0000
56.5500 287.0000 1.0000
56.5600 289.0000 1.0000
56.5700 285.0000 1.0000
56.5800 271.0000 1.0000
56.5900 265.0000 1.0000
56.6000 305.0000 1.0000
56.6100 267.0000 1.0000
56.6200 304.0000 1.0000
56.6300 287.0000 1.0000
56.6400 312.0000 1.0000
56.6500 274.0000 1.0000
56.6600 320.0000 1.0000
56.6700 298.0000 1.0000
56.6800 302.0000 1.0000
56.6900 301.0000 1.0000
56.7000 310.0000 1.0000
56.7100 302.0000 1.0000
56.7200 279.0000 1.0000
56.7300 290.0000 1.0000
56.7400 283.0000 1.0000
56.7500 265.0000 1.0000
56.7600 316.0000 1.0000
56.7700 313.0000 1.0000
56.7800 300.0000 1.0000
56.7900 278.0000 1.0000
56.8000 276.0000 1.0000
56.8100 285.0000 1.0000
56.8200 294.0000 1.0000
56.8300 301.0000 1.0000
56.8400 273.0000 1.0000
56.8500 278.0000 1.0000
56.8600 298.0000 1.0000
56.8700 279.0000 1.0000
56.8800 287.0000 1.0000
56.8900 304.0000 1.0000
56.9000 294.0000 1.0000
56.9100 306.0000 1.0000
56.9200 293.0000 1.0000
56.9300 276.0000 1.0000
56.9400 280.0000 1.0000
56.9500 274.0000 1.0000
56.9600 313.0000 1.0000
56.9700 282.0000 1.0000
56.9800 273.0000 1.0000
56.9900 290.0000 1.0000
57.0000 291.0000 1.0000
57.0100 268.0000 1.0000
57.0200 286.0000 1.0000
57.0300 264.0000 1.0000
57.0400 294.0000 1.0000
57.0500 300.0000 1.0000
57.0600 287.0000 1.0000
57.0700 273.0000 1.0000
57.0800 298.0000 1.0000
57.0900 310.0000 1.0000
57.1000 299.0000 1.0000
57.1100 287.0000 1.0000
57.1200 275.0000 1.0000
57.1300 267.0000 1.0000
57.1400 273.0000 1.0000
57.1500 274.0000 1.0000
57.1600 301.0000 1.0000
57.1700 293.0000 1.0000
57.1800 281.0000 1.0000
57.1900 290.0000 1.0000
57.2000 299.0000 1.0000
57.2100 304.0000 1.0000
57.2200 294.0000 1.0000
57.2300 272.0000 1.0000
57.2400 247.0000 1.0000
57.2500 298.0000 1.0000
57.2600 302.0000 1.0000
57.2700 294.0000 1.0000
57.2800 323.0000 1.0000
57.2900 306.0000 1.0000
57.3000 294.0000 1.0000
57.3100 284.0000 1.0000
57.3200 304.0000 1.0000
57.3300 273.0000 1.0000
57.3400 284.0000 1.0000
57.3500 308.0000 1.0000
57.3600 297.0000 1.0000
57.3700 311.0000 1.0000
57.3800 300.0000 1.0000
57.3900 314.0000 1.0000
57.4000 288.0000 1.0000
57.4100 285.0000 1.0000
57.4200 271.0000 1.0000
57.4300 285.0000 1.0000
57.4400 282.0000 1.0000
57.4500 313.0000 1.0000
57.4600 306.0000 1.0000
57.4700 270.0000 1.0000
57.4800 303.0000 1.0000
57.4900 307.0000 1.0000
57.5000 310.0000 1.0000
57.5100 292.0000 1.0000
57.5200 289.0000 1.0000
57.5300 292.0000 1.0000
57.5400 318.0000 1.0000
57.5500 307.0000 1.0000
57.5600 313.0000 1.0000
57.5700 306.0000 1.0000
57.5800 314.0000 1.0000
57.5900 311.0000 1.0000
57.6000 308.0000 1.0000
57.6100 316.0000 1.0000
57.6200 292.0000 1.0000
57.6300 276.0000 1.0000
57.6400 296.0000 1.0000
57.6500 309.0000 1.0000
57.6600 285.0000 1.0000
57.6700 292.0000 1.0000
57.6800 309.0000 1.0000
57.6900 305.0000 1.0000
57.7000 303.0000 1.0000
57.7100 285.0000 1.0000
57.7200 290.0000 1.0000
57.7300 290.0000 1.0000
57.7400 308.0000 1.0000
57.7500 309.0000 1.0000
57.7600 270.0000 1.0000
57.7700 294.0000 1.0000
57.7800 288.0000 1.0000
57.7900 321.0000 1.0000
57.8000 292.0000 1.0000
57.8100 273.0000 1.0000
57.8200 286.0000 1.0000
57.8300 283.0000 1.0000
57.8400 308.0000 1.0000
57.8500 277.0000 1.0000
57.8600 279.0000 1.0000
57.8700 291.0000 1.0000
57.8800 300.0000 1.0000
57.8900 283.0000 1.0000
57.9000 294.0000 1.0000
57.9100 324.0000 1.0000
57.9200 290.0000 1.0000
57.9300 285.0000 1.0000
57.9400 275.0000 1.0000
57.9500 314.0000 1.0000
57.9600 312.0000 1.0000
57.9700 287.0000 1.0000
57.9800 298.0000 1.0000
57.9900 283.0000 1.0000
58.0000 282.0000 1.0000
58.0100 307.0000 1.0000
58.0200 282.0000 1.0000
58.0300 278.0000 1.0000
58.0400 307.0000 1.0000
58.0500 282.0000 1.0000
58.0600 285.0000 1.0000
58.0700 290.0000 1.0000
58.0800 282.0000 1.0000
58.0900 271.0000 1.0000
58.1000 292.0000 1.0000
58.1100 286.0000 1.0000
58.1200 285.0000 1.0000
58.1300 296.0000 1.0000
58.1400 303.0000 1.0000
58.1500 296.0000 1.0000
58.1600 271.0000 1.0000
58.1700 297.0000 1.0000
58.1800 297.0000 1.0000
58.1900 303.0000 1.0000
58.2000 294.0000 1.0000
58.2100 294.0000 1.0000
58.2200 275.0000 1.0000
58.2300 321.0000 1.0000
58.2400 316.0000 1.0000
58.2500 291.0000 1.0000
58.2600 289.0000 1.0000
58.2700 283.0000 1.0000
58.2800 258.0000 1.0000
58.2900 273.0000 1.0000
58.3000 280.0000 1.0000
58.3100 275.0000 1.0000
58.3200 297.0000 1.0000
58.3300 279.0000 1.0000
58.3400 288.0000 1.0000
58.3500 287.0000 1.0000
58.3600 280.0000 1.0000
58.3700 283.0000 1.0000
58.3800 268.0000 1.0000
58.3900 269.0000 1.0000
58.4000 305.0000 1.0000
58.4100 294.0000 1.0000
58.4200 287.0000 1.0000
58.4300 284.0000 1.0000
58.4400 254.0000 1.0000
58.4500 276.0000 1.0000
58.4600 296.0000 1.0000
58.4700 284.0000 1.0000
58.4800 279.0000 1.0000
58.4900 278.0000 1.0000
58.5000 256.0000 1.0000
58.5100 264.0000 1.0000
58.5200 297.0000 1.0000
58.5300 286.0000 1.0000
58.5400 256.0000 1.0000
58.5500 270.0000 1.0000
58.5600 308.0000 1.0000
58.5700 291.0000 1.0000
58.5800 300.0000 1.0000
58.5900 300.0000 1.0000
58.6000 292.0000 1.0000
58.6100 282.0000 1.0000
58.6200 309.0000 1.0000
58.6300 291.0000 1.0000
58.6400 293.0000 1.0000
58.6500 275.0000 1.0000
58.6600 284.0000 1.0000
58.6700 288.0000 1.0000
58.6800 280.0000 1.0000
58.6900 275.0000 1.0000
58.7000 273.0000 1.0000
58.7100 287.0000 1.0000
58.7200 297.0000 1.0000
58.7300 296.0000 1.0000
58.7400 283.0000 1.0000
58.7500 292.0000 1.0000
58.7600 296.0000 1.0000
58.7700 275.0000 1.0000
58.7800 281.0000 1.0000
58.7900 289.0000 1.0000
58.8000 273.0000 1.0000
58.8100 281.0000 1.0000
58.8200 294.0000 1.0000
58.8300 290.0000 1.0000
58.8400 284.0000 1.0000
58.8500 297.0000 1.0000
58.8600 275.0000 1.0000
58.8700 304.0000 1.0000
58.8800 271.0000 1.0000
58.8900 294.0000 1.0000
58.9000 297.0000 1.0000
58.9100 289.0000 1.0000
58.9200 309.0000 1.0000
58.9300 309.0000 1.0000
58.9400 277.0000 1.0000
58.9500 271.0000 1.0000
58.9600 304.0000 1.0000
58.9700 303.0000 1.0000
58.9800 263.0000 1.0000
58.9900 301.0000 1.0000
59.0000 276.0000 1.0000
59.0100 277.0000 1.0000
59.0200 305.0000 1.0000
59.0300 285.0000 1.0000
59.0400 284.0000 1.0000
59.0500 269.0000 1.0000
59.0600 248.0000 1.0000
59.0700 295.0000 1.0000
59.0800 296.0000 1.0000
59.0900 304.0000 1.0000
59.1000 275.0000 1.0000
59.1100 289.0000 1.0000
59.1200 324.0000 1.0000
59.1300 287.0000 1.0000
59.1400 325.0000 1.0000
59.1500 298.0000 1.0000
59.1600 271.0000 1.0000
59.1700 276.0000 1.0000
59.1800 308.0000 1.0000
59.1900 272.0000 1.0000
59.2000 277.0000 1.0000
59.2100 286.0000 1.0000
59.2200 280.0000 1.0000
59.2300 269.0000 1.0000
59.2400 271.0000 1.0000
59.2500 302.0000 1.0000
59.2600 284.0000 1.0000
59.2700 277.0000 1.0000
59.2800 263.0000 1.0000
59.2900 279.0000 1.0000
59.3000 278.0000 1.0000
59.3100 290.0000 1.0000
59.3200 296.0000 1.0000
59.3300 282.0000 1.0000
59.3400 284.0000 1.0000
59.3500 293.0000 1.0000
59.3600 267.0000 1.0000
59.3700 280.0000 1.0000
59.3800 292.0000 1.0000
59.3900 291.0000 1.0000
59.4000 282.0000 1.0000
59.4100 279.0000 1.0000
59.4200 294.0000 1.0000
59.4300 273.0000 1.0000
59.4400 287.0000 1.0000
59.4500 296.0000 1.0000
59.4600 313.0000 1.0000
59.4700 286.0000 1.0000
59.4800 292.0000 1.0000
59.4900 287.0000 1.0000
59.5000 252.0000 1.0000
59.5100 272.0000 1.0000
59.5200 291.0000 1.0000
59.5300 310.0000 1.0000
59.5400 296.0000 1.0000
59.5500 270.0000 1.0000
59.5600 296.0000 1.0000
59.5700 287.0000 1.0000
59.5800 267.0000 1.0000
59.5900 291.0000 1.0000
59.6000 290.0000 1.0000
59.6100 291.0000 1.0000
59.6200 274.0000 1.0000
59.6300 272.0000 1.0000
59.6400 286.0000 1.0000
59.6500 280.0000 1.0000
59.6600 281.0000 1.0000
59.6700 272.0000 1.0000
59.6800 284.0000 1.0000
59.6900 287.0000 1.0000
59.7000 297.0000 1.0000
59.7100 326.0000 1.0000
59.7200 273.0000 1.0000
59.7300 310.0000 1.0000
59.7400 277.0000 1.0000
59.7500 277.0000 1.0000
59.7600 283.0000 1.0000
59.7700 275.0000 1.0000
59.7800 276.0000 1.0000
59.7900 277.0000 1.0000
59.8000 293.0000 1.0000
59.8100 264.0000 1.0000
59.8200 261.0000 1.0000
59.8300 298.0000 1.0000
59.8400 276.0000 1.0000
59.8500 272.0000 1.0000
59.8600 278.0000 1.0000
59.8700 291.0000 1.0000
59.8800 280.0000 1.0000
59.8900 270.0000 1.0000
59.9000 288.0000 1.0000
59.9100 300.0000 1.0000
59.9200 284.0000 1.0000
59.9300 295.0000 1.0000
59.9400 267.0000 1.0000
59.9500 278.0000 1.0000
59.9600 282.0000 1.0000
59.9700 298.0000 1.0000
59.9800 256.0000 1.0000
59.9900 281.0000 1.0000
60.0000 269.0000 1.0000
60.0100 296.0000 1.0000
60.0200 318.0000 1.0000
60.0300 291.0000 1.0000
60.0400 290.0000 1.0000
60.0500 287.0000 1.0000
60.0600 306.0000 1.0000
60.0700 269.0000 1.0000
60.0800 275.0000 1.0000
60.0900 270.0000 1.0000
60.1000 306.0000 1.0000
60.1100 285.0000 1.0000
60.1200 279.0000 1.0000
60.1300 277.0000 1.0000
60.1400 277.0000 1.0000
60.1500 293.0000 1.0000
60.1600 281.0000 1.0000
60.1700 283.0000 1.0000
60.1800 286.0000 1.0000
60.1900 289.0000 1.0000
60.2000 287.0000 1.0000
60.2100 291.0000 1.0000
60.2200 258.0000 1.0000
60.2300 290.0000 1.0000
60.2400 286.0000 1.0000
60.2500 285.0000 1.0000
60.2600 271.0000 1.0000
60.2700 279.0000 1.0000
60.2800 271.0000 1.0000
60.2900 266.0000 1.0000
60.3000 280.0000 1.0000
60.3100 289.0000 1.0000
60.3200 279.0000 1.0000
60.3300 291.0000 1.0000
60.3400 278.0000 1.0000
60.3500 300.0000 1.0000
60.3600 283.0000 1.0000
60.3700 257.0000 1.0000
60.3800 297.0000 1.0000
60.3900 283.0000 1.0000
60.4000 285.0000 1.0000
60.4100 315.0000 1.0000
60.4200 252.0000 1.0000
60.4300 262.0000 1.0000
60.4400 305.0000 1.0000
60.4500 289.0000 1.0000
60.4600 282.0000 1.0000
60.4700 289.0000 1.0000
60.4800 295.0000 1.0000
60.4900 297.0000 1.0000
60.5000 284.0000 1.0000
60.5100 301.0000 1.0000
60.5200 313.0000 1.0000
60.5300 284.0000 1.0000
60.5400 283.0000 1.0000
60.5500 312.0000 1.0000
60.5600 292.0000 1.0000
60.5700 291.0000 1.0000
60.5800 297.0000 1.0000
60.5900 311.0000 1.0000
60.6000 294.0000 1.0000
60.6100 301.0000 1.0000
60.6200 290.0000 1.0000
60.6300 274.0000 1.0000
60.6400 276.0000 1.0000
60.6500 294.0000 1.0000
60.6600 281.0000 1.0000
60.6700 278.0000 1.0000
60.6800 298.0000 1.0000
60.6900 282.0000 1.0000
60.7000 280.0000 1.0000
60.7100 282.0000 1.0000
60.7200 294.0000 1.0000
60.7300 327.0000 1.0000
60.7400 313.0000 1.0000
60.7500 303.0000 1.0000
60.7600 314.0000 1.0000
60.7700 267.0000 1.0000
60.7800 281.0000 1.0000
60.7900 297.0000 1.0000
60.8000 284.0000 1.0000
60.8100 285.0000 1.0000
60.8200 289.0000 1.0000
60.8300 294.0000 1.0000
60.8400 294.0000 1.0000
60.8500 268.0000 1.0000
60.8600 299.0000 1.0000
60.8700 310.0000 1.0000
60.8800 279.0000 1.0000
60.8900 294.0000 1.0000
60.9000 294.0000 1.0000
60.9100 280.0000 1.0000
60.9200 275.0000 1.0000
60.9300 304.0000 1.0000
60.9400 299.0000 1.0000
60.9500 313.0000 1.0000
60.9600 282.0000 1.0000
60.9700 296.0000 1.0000
60.9800 300.0000 1.0000
60.9900 288.0000 1.0000
61.0000 293.0000 1.0000
61.0100 295.0000 1.0000
61.0200 308.0000 1.0000
61.0300 285.0000 1.0000
61.0400 298.0000 1.0000
61.0500 315.0000 1.0000
61.0600 284.0000 1.0000
61.0700 306.0000 1.0000
61.0800 278.0000 1.0000
61.0900 298.0000 1.0000
61.1000 297.0000 1.0000
61.1100 320.0000 1.0000
61.1200 334.0000 1.0000
61.1300 310.0000 1.0000
61.1400 326.0000 1.0000
61.1500 322.0000 1.0000
61.1600 347.0000 1.0000
61.1700 336.0000 1.0000
61.1800 334.0000 1.0000
61.1900 324.0000 1.0000
61.2000 308.0000 1.0000
61.2100 321.0000 1.0000
61.2200 344.0000 1.0000
61.2300 334.0000 1.0000
61.2400 358.0000 1.0000
61.2500 355.0000 1.0000
61.2600 335.0000 1.0000
61.2700 355.0000 1.0000
61.2800 349.0000 1.0000
61.2900 358.0000 1.0000
61.3000 393.0000 1.0000
61.3100 370.0000 1.0000
61.3200 386.0000 1.0000
61.3300 378.0000 1.0000
61.3400 394.0000 1.0000
61.3500 402.0000 1.0000
61.3600 404.0000 1.0000
61.3700 411.0000 1.0000
61.3800 483.0000 1.0000
61.3900 448.0000 1.0000
61.4000 456.0000 1.0000
61.4100 509.0000 1.0000
61.4200 497.0000 1.0000
61.4300 523.0000 1.0000
61.4400 509.0000 1.0000
61.4500 535.0000 1.0000
61.4600 545.0000 1.0000
61.4700 572.0000 1.0000
61.4800 592.0000 1.0000
61.4900 558.0000 1.0000
61.5000 607.0000 1.0000
61.5100 579.0000 1.0000
61.5200 627.0000 1.0000
61.5300 608.0000 1.0000
61.5400 612.0000 1.0000
61.5500 659.0000 1.0000
61.5600 610.0000 1.0000
61.5700 592.0000 1.0000
61.5800 598.0000 1.0000
61.5900 589.0000 1.0000
61.6000 608.0000 1.0000
61.6100 598.0000 1.0000
61.6200 583.0000 1.0000
61.6300 559.0000 1.0000
61.6400 555.0000 1.0000
61.6500 580.0000 1.0000
61.6600 582.0000 1.0000
61.6700 578.0000 1.0000
61.6800 551.0000 1.0000
61.6900 565.0000 1.0000
61.7000 588.0000 1.0000
61.7100 534.0000 1.0000
61.7200 502.0000 1.0000
61.7300 492.0000 1.0000
61.7400 508.0000 1.0000
61.7500 481.0000 1.0000
61.7600 473.0000 1.0000
61.7700 472.0000 1.0000
61.7800 456.0000 1.0000
61.7900 472.0000 1.0000
61.8000 426.0000 1.0000
61.8100 435.0000 1.0000
61.8200 431.0000 1.0000
61.8300 382.0000 1.0000
61.8400 403.0000 1.0000
61.8500 401.0000 1.0000
61.8600 401.0000 1.0000
61.8700 420.0000 1.0000
61.8800 387.0000 1.0000
61.8900 393.0000 1.0000
61.9000 364.0000 1.0000
61.9100 365.0000 1.0000
61.9200 378.0000 1.0000
61.9300 363.0000 1.0000
61.9400 343.0000 1.0000
61.9500 356.0000 1.0000
61.9600 367.0000 1.0000
61.9700 352.0000 1.0000
61.9800 350.0000 1.0000
61.9900 346.0000 1.0000
62.0000 321.0000 1.0000
62.0100 360.0000 1.0000
62.0200 363.0000 1.0000
62.0300 334.0000 1.0000
62.0400 333.0000 1.0000
62.0500 321.0000 1.0000
62.0600 314.0000 1.0000
62.0700 321.0000 1.0000
62.0800 308.0000 1.0000
62.0900 308.0000 1.0000
62.1000 329.0000 1.0000
62.1100 322.0000 1.0000
62.1200 347.0000 1.0000
62.1300 318.0000 1.0000
62.1400 291.0000 1.0000
62.1500 306.0000 1.0000
62.1600 311.0000 1.0000
62.1700 302.0000 1.0000
62.1800 309.0000 1.0000
62.1900 290.0000 1.0000
62.2000 306.0000 1.0000
62.2100 302.0000 1.0000
62.2200 288.0000 1.0000
62.2300 340.0000 1.0000
62.2400 289.0000 1.0000
62.2500 320.0000 1.0000
62.2600 276.0000 1.0000
62.2700 337.0000 1.0000
62.2800 297.0000 1.0000
62.2900 271.0000 1.0000
62.3000 307.0000 1.0000
62.3100 319.0000 1.0000
62.3200 324.0000 1.0000
62.3300 324.0000 1.0000
62.3400 321.0000 1.0000
62.3500 306.0000 1.0000
62.3600 304.0000 1.0000
62.3700 324.0000 1.0000
62.3800 314.0000 1.0000
62.3900 306.0000 1.0000
62.4000 294.0000 1.0000
62.4100 361.0000 1.0000
62.4200 315.0000 1.0000
62.4300 344.0000 1.0000
62.4400 338.0000 1.0000
62.4500 320.0000 1.0000
62.4600 321.0000 1.0000
62.4700 303.0000 1.0000
62.4800 328.0000 1.0000
62.4900 306.0000 1.0000
62.5000 290.0000 1.0000
62.5100 317.0000 1.0000
62.5200 305.0000 1.0000
62.5300 286.0000 1.0000
62.5400 296.0000 1.0000
62.5500 294.0000 1.0000
62.5600 292.0000 1.0000
62.5700 313.0000 1.0000
62.5800 319.0000 1.0000
62.5900 324.0000 1.0000
62.6000 318.0000 1.0000
62.6100 321.0000 1.0000
62.6200 315.0000 1.0000
62.6300 303.0000 1.0000
62.6400 300.0000 1.0000
62.6500 292.0000 1.0000
62.6600 303.0000 1.0000
62.6700 281.0000 1.0000
62.6800 307.0000 1.0000
62.6900 285.0000 1.0000
62.7000 286.0000 1.0000
62.7100 313.0000 1.0000
62.7200 304.0000 1.0000
62.7300 279.0000 1.0000
62.7400 305.0000 1.0000
62.7500 273.0000 1.0000
62.7600 284.0000 1.0000
62.7700 253.0000 1.0000
62.7800 285.0000 1.0000
62.7900 302.0000 1.0000
62.8000 292.0000 1.0000
62.8100 289.0000 1.0000
62.8200 314.0000 1.0000
62.8300 305.0000 1.0000
62.8400 307.0000 1.0000
62.8500 257.0000 1.0000
62.8600 279.0000 1.0000
62.8700 286.0000 1.0000
62.8800 276.0000 1.0000
62.8900 285.0000 1.0000
62.9000 283.0000 1.0000
62.9100 299.0000 1.0000
62.9200 291.0000 1.0000
62.9300 280.0000 1.0000
62.9400 282.0000 1.0000
62.9500 275.0000 1.0000
62.9600 285.0000 1.0000
62.9700 280.0000 1.0000
62.9800 304.0000 1.0000
62.9900 276.0000 1.0000
63.0000 278.0000 1.0000
63.0100 275.0000 1.0000
63.0200 302.0000 1.0000
63.0300 259.0000 1.0000
63.0400 293.0000 1.0000
63.0500 296.0000 1.0000
63.0600 281.0000 1.0000
63.0700 281.0000 1.0000
63.0800 278.0000 1.0000
63.0900 281.0000 1.0000
63.1000 275.0000 1.0000
63.1100 282.0000 1.0000
63.1200 292.0000 1.0000
63.1300 286.0000 1.0000
63.1400 286.0000 1.0000
63.1500 267.0000 1.0000
63.1600 283.0000 1.0000
63.1700 267.0000 1.0000
63.1800 279.0000 1.0000
63.1900 275.0000 1.0000
63.2000 281.0000 1.0000
63.2100 273.0000 1.0000
63.2200 284.0000 1.0000
63.2300 291.0000 1.0000
63.2400 275.0000 1.0000
63.2500 285.0000 1.0000
63.2600 264.0000 1.0000
63.2700 280.0000 1.0000
63.2800 291.0000 1.0000
63.2900 277.0000 1.0000
63.3000 276.0000 1.0000
63.3100 294.0000 1.0000
63.3200 288.0000 1.0000
63.3300 290.0000 1.0000
63.3400 283.0000 1.0000
63.3500 304.0000 1.0000
63.3600 271.0000 1.0000
63.3700 279.0000 1.0000
63.3800 266.0000 1.0000
63.3900 279.0000 1.0000
63.4000 278.0000 1.0000
63.4100 278.0000 1.0000
63.4200 274.0000 1.0000
63.4300 286.0000 1.0000
63.4400 285.0000 1.0000
63.4500 287.0000 1.0000
63.4600 296.0000 1.0000
63.4700 297.0000 1.0000
63.4800 272.0000 1.0000
63.4900 276.0000 1.0000
63.5000 283.0000 1.0000
63.5100 275.0000 1.0000
63.5200 282.0000 1.0000
63.5300 276.0000 1.0000
63.5400 277.0000 1.0000
63.5500 327.0000 1.0000
63.5600 270.0000 1.0000
63.5700 270.0000 1.0000
63.5800 285.0000 1.0000
63.5900 315.0000 1.0000
63.6000 287.0000 1.0000
63.6100 304.0000 1.0000
63.6200 296.0000 1.0000
63.6300 315.0000 1.0000
63.6400 309.0000 1.0000
63.6500 277.0000 1.0000
63.6600 286.0000 1.0000
63.6700 329.0000 1.0000
63.6800 301.0000 1.0000
63.6900 310.0000 1.0000
63.7000 285.0000 1.0000
63.7100 294.0000 1.0000
63.7200 307.0000 1.0000
63.7300 328.0000 1.0000
63.7400 318.0000 1.0000
63.7500 316.0000 1.0000
63.7600 296.0000 1.0000
63.7700 291.0000 1.0000
63.7800 325.0000 1.0000
63.7900 336.0000 1.0000
63.8000 322.0000 1.0000
63.8100 303.0000 1.0000
63.8200 323.0000 1.0000
63.8300 341.0000 1.0000
63.8400 357.0000 1.0000
63.8500 372.0000 1.0000
63.8600 356.0000 1.0000
63.8700 344.0000 1.0000
63.8800 377.0000 1.0000
63.8900 369.0000 1.0000
63.9000 394.0000 1.0000
63.9100 398.0000 1.0000
63.9200 424.0000 1.0000
63.9300 429.0000 1.0000
63.9400 408.0000 1.0000
63.9500 429.0000 1.0000
63.9600 454.0000 1.0000
63.9700 446.0000 1.0000
63.9800 433.0000 1.0000
63.9900 441.0000 1.0000
64.0000 435.0000 1.0000
64.0100 449.0000 1.0000
64.0200 409.0000 1.0000
64.0300 417.0000 1.0000
64.0400 414.0000 1.0000
64.0500 376.0000 1.0000
64.0600 423.0000 1.0000
64.0700 391.0000 1.0000
64.0800 386.0000 1.0000
64.0900 407.0000 1.0000
64.1000 422.0000 1.0000
64.1100 398.0000 1.0000
64.1200 402.0000 1.0000
64.1300 369.0000 1.0000
64.1400 388.0000 1.0000
64.1500 394.0000 1.0000
64.1600 360.0000 1.0000
64.1700 373.0000 1.0000
64.1800 386.0000 1.0000
64.1900 375.0000 1.0000
64.2000 332.0000 1.0000
64.2100 357.0000 1.0000
64.2200 334.0000 1.0000
64.2300 365.0000 1.0000
64.2400 363.0000 1.0000
64.2500 340.0000 1.0000
64.2600 331.0000 1.0000
64.2700 309.0000 1.0000
64.2800 316.0000 1.0000
64.2900 313.0000 1.0000
64.3000 354.0000 1.0000
64.3100 336.0000 1.0000
64.3200 319.0000 1.0000
64.3300 360.0000 1.0000
64.3400 312.0000 1.0000
64.3500 304.0000 1.0000
64.3600 306.0000 1.0000
64.3700 289.0000 1.0000
64.3800 305.0000 1.0000
64.3900 297.0000 1.0000
64.4000 305.0000 1.0000
64.4100 314.0000 1.0000
64.4200 286.0000 1.0000
64.4300 320.0000 1.0000
64.4400 312.0000 1.0000
64.4500 301.0000 1.0000
64.4600 314.0000 1.0000
64.4700 336.0000 1.0000
64.4800 279.0000 1.0000
64.4900 280.0000 1.0000
64.5000 306.0000 1.0000
64.5100 288.0000 1.0000
64.5200 284.0000 1.0000
64.5300 288.0000 1.0000
64.5400 286.0000 1.0000
64.5500 288.0000 1.0000
64.5600 284.0000 1.0000
64.5700 266.0000 1.0000
64.5800 288.0000 1.0000
64.5900 298.0000 1.0000
64.6000 303.0000 1.0000
64.6100 287.0000 1.0000
64.6200 297.0000 1.0000
64.6300 292.0000 1.0000
64.6400 276.0000 1.0000
64.6500 282.0000 1.0000
64.6600 307.0000 1.0000
64.6700 308.0000 1.0000
64.6800 292.0000 1.0000
64.6900 280.0000 1.0000
64.7000 304.0000 1.0000
64.7100 297.0000 1.0000
64.7200 309.0000 1.0000
64.7300 280.0000 1.0000
64.7400 313.0000 1.0000
64.7500 302.0000 1.0000
64.7600 287.0000 1.0000
64.7700 292.0000 1.0000
64.7800 286.0000 1.0000
64.7900 308.0000 1.0000
64.8000 296.0000 1.0000
64.8100 268.0000 1.0000
64.8200 287.0000 1.0000
64.8300 276.0000 1.0000
64.8400 287.0000 1.0000
64.8500 287.0000 1.0000
64.8600 300.0000 1.0000
64.8700 314.0000 1.0000
64.8800 270.0000 1.0000
64.8900 260.0000 1.0000
64.9000 284.0000 1.0000
64.9100 259.0000 1.0000
64.9200 295.0000 1.0000
64.9300 299.0000 1.0000
64.9400 310.0000 1.0000
64.9500 308.0000 1.0000
64.9600 324.0000 1.0000
64.9700 303.0000 1.0000
64.9800 285.0000 1.0000
64.9900 317.0000 1.0000
65.0000 279.0000 1.0000
65.0100 296.0000 1.0000
65.0200 287.0000 1.0000
65.0300 332.0000 1.0000
65.0400 338.0000 1.0000
65.0500 353.0000 1.0000
65.0600 330.0000 1.0000
65.0700 318.0000 1.0000
65.0800 317.0000 1.0000
65.0900 303.0000 1.0000
65.1000 365.0000 1.0000
65.1100 340.0000 1.0000
65.1200 335.0000 1.0000
65.1300 323.0000 1.0000
65.1400 336.0000 1.0000
65.1500 366.0000 1.0000
65.1600 349.0000 1.0000
65.1700 351.0000 1.0000
65.1800 376.0000 1.0000
65.1900 390.0000 1.0000
65.2000 404.0000 1.0000
65.2100 384.0000 1.0000
65.2200 371.0000 1.0000
65.2300 389.0000 1.0000
65.2400 408.0000 1.0000
65.2500 397.0000 1.0000
65.2600 394.0000 1.0000
65.2700 395.0000 1.0000
65.2800 383.0000 1.0000
65.2900 432.0000 1.0000
65.3000 464.0000 1.0000
65.3100 470.0000 1.0000
65.3200 455.0000 1.0000
65.3300 507.0000 1.0000
65.3400 526.0000 1.0000
65.3500 527.0000 1.0000
65.3600 535.0000 1.0000
65.3700 573.0000 1.0000
65.3800 605.0000 1.0000
65.3900 624.0000 1.0000
65.4000 645.0000 1.0000
65.4100 721.0000 1.0000
65.4200 700.0000 1.0000
65.4300 746.0000 1.0000
65.4400 786.0000 1.0000
65.4500 901.0000 1.0000
65.4600 915.0000 1.0000
65.4700 927.0000 1.0000
65.4800 994.0000 1.0000
65.4900 1054.0000 1.0000
65.5000 1082.0000 1.0000
65.5100 1078.0000 1.0000
65.5200 1088.0000 1.0000
65.5300 1139.0000 1.0000
65.5400 1123.0000 1.0000
65.5500 1086.0000 1.0000
65.5600 1088.0000 1.0000
65.5700 1085.0000 1.0000
65.5800 1011.0000 1.0000
65.5900 1058.0000 1.0000
65.6000 1040.0000 1.0000
65.6100 1011.0000 1.0000
65.6200 1012.0000 1.0000
65.6300 975.0000 1.0000
65.6400 939.0000 1.0000
65.6500 917.0000 1.0000
65.6600 896.0000 1.0000
65.6700 922.0000 1.0000
65.6800 865.0000 1.0000
65.6900 916.0000 1.0000
65.7000 890.0000 1.0000
65.7100 895.0000 1.0000
65.7200 856.0000 1.0000
65.7300 834.0000 1.0000
65.7400 831.0000 1.0000
65.7500 798.0000 1.0000
65.7600 720.0000 1.0000
65.7700 716.0000 1.0000
65.7800 691.0000 1.0000
65.7900 666.0000 1.0000
65.8000 609.0000 1.0000
65.8100 573.0000 1.0000
65.8200 559.0000 1.0000
65.8300 555.0000 1.0000
65.8400 541.0000 1.0000
65.8500 507.0000 1.0000
65.8600 541.0000 1.0000
65.8700 522.0000 1.0000
65.8800 469.0000 1.0000
65.8900 438.0000 1.0000
65.9000 423.0000 1.0000
65.9100 463.0000 1.0000
65.9200 435.0000 1.0000
65.9300 428.0000 1.0000
65.9400 391.0000 1.0000
65.9500 355.0000 1.0000
65.9600 400.0000 1.0000
65.9700 353.0000 1.0000
65.9800 358.0000 1.0000
65.9900 375.0000 1.0000
66.0000 381.0000 1.0000
66.0100 373.0000 1.0000
66.0200 337.0000 1.0000
66.0300 347.0000 1.0000
66.0400 355.0000 1.0000
66.0500 376.0000 1.0000
66.0600 297.0000 1.0000
66.0700 340.0000 1.0000
66.0800 347.0000 1.0000
66.0900 327.0000 1.0000
66.1000 298.0000 1.0000
66.1100 310.0000 1.0000
66.1200 323.0000 1.0000
66.1300 314.0000 1.0000
66.1400 305.0000 1.0000
66.1500 302.0000 1.0000
66.1600 293.0000 1.0000
66.1700 292.0000 1.0000
66.1800 320.0000 1.0000
66.1900 308.0000 1.0000
66.2000 304.0000 1.0000
66.2100 303.0000 1.0000
66.2200 313.0000 1.0000
66.2300 276.0000 1.0000
66.2400 293.0000 1.0000
66.2500 295.0000 1.0000
66.2600 266.0000 1.0000
66.2700 296.0000 1.0000
66.2800 246.0000 1.0000
66.2900 301.0000 1.0000
66.3000 271.0000 1.0000
66.3100 286.0000 1.0000
66.3200 295.0000 1.0000
66.3300 303.0000 1.0000
66.3400 285.0000 1.0000
66.3500 296.0000 1.0000
66.3600 290.0000 1.0000
66.3700 274.0000 1.0000
66.3800 254.0000 1.0000
66.3900 282.0000 1.0000
66.4000 304.0000 1.0000
66.4100 272.0000 1.0000
66.4200 269.0000 1.0000
66.4300 287.0000 1.0000
66.4400 280.0000 1.0000
66.4500 300.0000 1.0000
66.4600 294.0000 1.0000
66.4700 260.0000 1.0000
66.4800 290.0000 1.0000
66.4900 299.0000 1.0000
66.5000 268.0000 1.0000
66.5100 300.0000 1.0000
66.5200 285.0000 1.0000
66.5300 266.0000 1.0000
66.5400 275.0000 1.0000
66.5500 263.0000 1.0000
66.5600 282.0000 1.0000
66.5700 261.0000 1.0000
66.5800 282.0000 1.0000
66.5900 276.0000 1.0000
66.6000 261.0000 1.0000
66.6100 269.0000 1.0000
66.6200 265.0000 1.0000
66.6300 244.0000 1.0000
66.6400 242.0000 1.0000
66.6500 250.0000 1.0000
66.6600 265.0000 1.0000
66.6700 279.0000 1.0000
66.6800 277.0000 1.0000
66.6900 270.0000 1.0000
66.7000 269.0000 1.0000
66.7100 259.0000 1.0000
66.7200 281.0000 1.0000
66.7300 289.0000 1.0000
66.7400 249.0000 1.0000
66.7500 242.0000 1.0000
66.7600 261.0000 1.0000
66.7700 278.0000 1.0000
66.7800 265.0000 1.0000
66.7900 275.0000 1.0000
66.8000 279.0000 1.0000
66.8100 263.0000 1.0000
66.8200 248.0000 1.0000
66.8300 269.0000 1.0000
66.8400 268.0000 1.0000
66.8500 267.0000 1.0000
66.8600 289.0000 1.0000
66.8700 243.0000 1.0000
66.8800 264.0000 1.0000
66.8900 262.0000 1.0000
66.9000 268.0000 1.0000
66.9100 277.0000 1.0000
66.9200 284.0000 1.0000
66.9300 263.0000 1.0000
66.9400 264.0000 1.0000
66.9500 268.0000 1.0000
66.9600 248.0000 1.0000
66.9700 231.0000 1.0000
66.9800 261.0000 1.0000
66.9900 266.0000 1.0000
67.0000 294.0000 1.0000
67.0100 248.0000 1.0000
67.0200 248.0000 1.0000
67.0300 280.0000 1.0000
67.0400 265.0000 1.0000
67.0500 304.0000 1.0000
67.0600 268.0000 1.0000
67.0700 271.0000 1.0000
67.0800 275.0000 1.0000
67.0900 275.0000 1.0000
67.1000 244.0000 1.0000
67.1100 260.0000 1.0000
67.1200 255.0000 1.0000
67.1300 254.0000 1.0000
67.1400 255.0000 1.0000
67.1500 235.0000 1.0000
67.1600 259.0000 1.0000
67.1700 275.0000 1.0000
67.1800 272.0000 1.0000
67.1900 268.0000 1.0000
67.2000 273.0000 1.0000
67.2100 283.0000 1.0000
67.2200 270.0000 1.0000
67.2300 283.0000 1.0000
67.2400 287.0000 1.0000
67.2500 270.0000 1.0000
67.2600 262.0000 1.0000
67.2700 263.0000 1.0000
67.2800 258.0000 1.0000
67.2900 245.0000 1.0000
67.3000 256.0000 1.0000
67.3100 250.0000 1.0000
67.3200 243.0000 1.0000
67.3300 257.0000 1.0000
67.3400 270.0000 1.0000
67.3500 264.0000 1.0000
67.3600 267.0000 1.0000
67.3700 277.0000 1.0000
67.3800 253.0000 1.0000
67.3900 249.0000 1.0000
67.4000 235.0000 1.0000
67.4100 241.0000 1.0000
67.4200 271.0000 1.0000
67.4300 261.0000 1.0000
67.4400 232.0000 1.0000
67.4500 264.0000 1.0000
67.4600 268.0000 1.0000
67.4700 248.0000 1.0000
67.4800 274.0000 1.0000
67.4900 253.0000 1.0000
67.5000 288.0000 1.0000
67.5100 284.0000 1.0000
67.5200 273.0000 1.0000
67.5300 258.0000 1.0000
67.5400 266.0000 1.0000
67.5500 235.0000 1.0000
67.5600 266.0000 1.0000
67.5700 254.0000 1.0000
67.5800 269.0000 1.0000
67.5900 273.0000 1.0000
67.6000 227.0000 1.0000
67.6100 255.0000 1.0000
67.6200 254.0000 1.0000
67.6300 261.0000 1.0000
67.6400 266.0000 1.0000
67.6500 247.0000 1.0000
67.6600 270.0000 1.0000
67.6700 250.0000 1.0000
67.6800 245.0000 1.0000
67.6900 271.0000 1.0000
67.7000 284.0000 1.0000
67.7100 256.0000 1.0000
67.7200 256.0000 1.0000
67.7300 246.0000 1.0000
67.7400 269.0000 1.0000
67.7500 242.0000 1.0000
67.7600 269.0000 1.0000
67.7700 244.0000 1.0000
67.7800 243.0000 1.0000
67.7900 233.0000 1.0000
67.8000 261.0000 1.0000
67.8100 245.0000 1.0000
67.8200 236.0000 1.0000
67.8300 253.0000 1.0000
67.8400 266.0000 1.0000
67.8500 254.0000 1.0000
67.8600 246.0000 1.0000
67.8700 256.0000 1.0000
67.8800 255.0000 1.0000
67.8900 273.0000 1.0000
67.9000 252.0000 1.0000
67.9100 251.0000 1.0000
67.9200 262.0000 1.0000
67.9300 240.0000 1.0000
67.9400 267.0000 1.0000
67.9500 252.0000 1.0000
67.9600 261.0000 1.0000
67.9700 268.0000 1.0000
67.9800 250.0000 1.0000
67.9900 270.0000 1.0000
68.0000 240.0000 1.0000
68.0100 249.0000 1.0000
68.0200 247.0000 1.0000
68.0300 260.0000 1.0000
68.0400 274.0000 1.0000
68.0500 259.0000 1.0000
68.0600 255.0000 1.0000
68.0700 238.0000 1.0000
68.0800 251.0000 1.0000
68.0900 251.0000 1.0000
68.1000 265.0000 1.0000
68.1100 253.0000 1.0000
68.1200 265.0000 1.0000
68.1300 254.0000 1.0000
68.1400 261.0000 1.0000
68.1500 259.0000 1.0000
68.1600 274.0000 1.0000
68.1700 287.0000 1.0000
68.1800 245.0000 1.0000
68.1900 243.0000 1.0000
68.2000 261.0000 1.0000
68.2100 248.0000 1.0000
68.2200 248.0000 1.0000
68.2300 258.0000 1.0000
68.2400 239.0000 1.0000
68.2500 252.0000 1.0000
68.2600 244.0000 1.0000
68.2700 260.0000 1.0000
68.2800 264.0000 1.0000
68.2900 274.0000 1.0000
68.3000 251.0000 1.0000
68.3100 258.0000 1.0000
68.3200 263.0000 1.0000
68.3300 244.0000 1.0000
68.3400 245.0000 1.0000
68.3500 236.0000 1.0000
68.3600 236.0000 1.0000
68.3700 260.0000 1.0000
68.3800 253.0000 1.0000
68.3900 236.0000 1.0000
68.4000 224.0000 1.0000
68.4100 285.0000 1.0000
68.4200 240.0000 1.0000
68.4300 280.0000 1.0000
68.4400 270.0000 1.0000
68.4500 222.0000 1.0000
68.4600 261.0000 1.0000
68.4700 256.0000 1.0000
68.4800 267.0000 1.0000
68.4900 225.0000 1.0000
68.5000 253.0000 1.0000
68.5100 266.0000 1.0000
68.5200 264.0000 1.0000
68.5300 270.0000 1.0000
68.5400 261.0000 1.0000
68.5500 234.0000 1.0000
68.5600 264.0000 1.0000
68.5700 246.0000 1.0000
68.5800 260.0000 1.0000
68.5900 287.0000 1.0000
68.6000 256.0000 1.0000
68.6100 264.0000 1.0000
68.6200 253.0000 1.0000
68.6300 230.0000 1.0000
68.6400 239.0000 1.0000
68.6500 248.0000 1.0000
68.6600 255.0000 1.0000
68.6700 252.0000 1.0000
68.6800 271.0000 1.0000
68.6900 240.0000 1.0000
68.7000 255.0000 1.0000
68.7100 253.0000 1.0000
68.7200 246.0000 1.0000
68.7300 233.0000 1.0000
68.7400 248.0000 1.0000
68.7500 261.0000 1.0000
68.7600 246.0000 1.0000
68.7700 264.0000 1.0000
68.7800 252.0000 1.0000
68.7900 258.0000 1.0000
68.8000 232.0000 1.0000
68.8100 252.0000 1.0000
68.8200 243.0000 1.0000
68.8300 264.0000 1.0000
68.8400 276.0000 1.0000
68.8500 267.0000 1.0000
68.8600 271.0000 1.0000
68.8700 266.0000 1.0000
68.8800 251.0000 1.0000
68.8900 222.0000 1.0000
68.9000 278.0000 1.0000
68.9100 267.0000 1.0000
68.9200 271.0000 1.0000
68.9300 257.0000 1.0000
68.9400 239.0000 1.0000
68.9500 239.0000 1.0000
68.9600 228.0000 1.0000
68.9700 253.0000 1.0000
68.9800 291.0000 1.0000
68.9900 272.0000 1.0000
69.0000 249.0000 1.0000
69.0100 250.0000 1.0000
69.0200 245.0000 1.0000
69.0300 257.0000 1.0000
69.0400 267.0000 1.0000
69.0500 282.0000 1.0000
69.0600 243.0000 1.0000
69.0700 251.0000 1.0000
69.0800 263.0000 1.0000
69.0900 258.0000 1.0000
69.1000 251.0000 1.0000
69.1100 238.0000 1.0000
69.1200 249.0000 1.0000
69.1300 286.0000 1.0000
69.1400 281.0000 1.0000
69.1500 262.0000 1.0000
69.1600 233.0000 1.0000
69.1700 234.0000 1.0000
69.1800 252.0000 1.0000
69.1900 264.0000 1.0000
69.2000 275.0000 1.0000
69.2100 256.0000 1.0000
69.2200 257.0000 1.0000
69.2300 256.0000 1.0000
69.2400 257.0000 1.0000
69.2500 273.0000 1.0000
69.2600 293.0000 1.0000
69.2700 281.0000 1.0000
69.2800 232.0000 1.0000
69.2900 245.0000 1.0000
69.3000 241.0000 1.0000
69.3100 245.0000 1.0000
69.3200 261.0000 1.0000
69.3300 249.0000 1.0000
69.3400 262.0000 1.0000
69.3500 205.0000 1.0000
69.3600 225.0000 1.0000
69.3700 205.0000 1.0000
69.3800 228.0000 1.0000
69.3900 252.0000 1.0000
69.4000 236.0000 1.0000
69.4100 221.0000 1.0000
69.4200 221.0000 1.0000
69.4300 243.0000 1.0000
69.4400 239.0000 1.0000
69.4500 247.0000 1.0000
69.4600 220.0000 1.0000
69.4700 202.0000 1.0000
69.4800 246.0000 1.0000
69.4900 263.0000 1.0000
69.5000 251.0000 1.0000
69.5100 238.0000 1.0000
69.5200 249.0000 1.0000
69.5300 253.0000 1.0000
69.5400 251.0000 1.0000
69.5500 270.0000 1.0000
69.5600 247.0000 1.0000
69.5700 253.0000 1.0000
69.5800 242.0000 1.0000
69.5900 262.0000 1.0000
69.6000 225.0000 1.0000
69.6100 231.0000 1.0000
69.6200 251.0000 1.0000
69.6300 238.0000 1.0000
69.6400 257.0000 1.0000
69.6500 247.0000 1.0000
69.6600 251.0000 1.0000
69.6700 239.0000 1.0000
69.6800 230.0000 1.0000
69.6900 242.0000 1.0000
69.7000 255.0000 1.0000
69.7100 241.0000 1.0000
69.7200 236.0000 1.0000
69.7300 265.0000 1.0000
69.7400 256.0000 1.0000
69.7500 234.0000 1.0000
69.7600 256.0000 1.0000
69.7700 249.0000 1.0000
69.7800 221.0000 1.0000
69.7900 248.0000 1.0000
69.8000 236.0000 1.0000
69.8100 286.0000 1.0000
69.8200 245.0000 1.0000
69.8300 255.0000 1.0000
69.8400 239.0000 1.0000
69.8500 244.0000 1.0000
69.8600 263.0000 1.0000
69.8700 248.0000 1.0000
69.8800 238.0000 1.0000
69.8900 255.0000 1.0000
69.9000 267.0000 1.0000
69.9100 255.0000 1.0000
69.9200 245.0000 1.0000
69.9300 244.0000 1.0000
69.9400 249.0000 1.0000
69.9500 246.0000 1.0000
69.9600 239.0000 1.0000
69.9700 247.0000 1.0000
69.9800 243.0000 1.0000
69.9900 257.0000 1.0000
70.0000 261.0000 1.0000
*RAS_INT_END
*RAS_TEMPERATURE_START
*RAS_TEMPERATURE_END
*RAS_DATA_END
