*RAS_DATA_START
*RAS_HEADER_START
*DISP_FMT_X "%.2f"
*DISP_FMT_Y "%.0f"
*DISP_FULLSCALE "12195.0000000000"
*DISP_LINE_COLOR "255.0000000000"
*DISP_LINE_STYLE "0.0000000000"
*DISP_LINE_WIDTH "0.2500000000"
*DISP_NOTE "測定データ-3"
*DISP_OFFSET_Y "0.0000000000"
*DISP_PEAKSEARCH_UNIT_Y "cps"
*DISP_RANGE_BOTTOM "0.0000000000"
*DISP_RANGE_LEFT "20.0000000000"
*DISP_RANGE_LOGCUTOFF "0.0100000000"
*DISP_RANGE_RIGHT "70.0000000000"
*DISP_RANGE_TOP "12195.0000000000"
*DISP_SCALE_MODE_Y "0.0000000000"
*DISP_TAB_NAME "2θ/θ"
*DISP_TITLE_Y "強度"
*DISP_UNIT_Y "cps"
*DISP_WINDOW_NAME "MSG_MACROENGINE"
*FILE_COMMENT " "
*FILE_MD5 ""
*FILE_MEMO " "
*FILE_OPERATOR "Administrator"
*FILE_SAMPLE " "
*FILE_TYPE "RAS_RAW"
*FILE_USERGROUP "システムマネージャ"
*FILE_VERSION "1.0000000000"
*HW_ATTACHMENT_ID "ATT0025"
*HW_ATTACHMENT_NAME "標準|Standard"
*HW_COUNTER_ID-0 "CUT0025"
*HW_COUNTER_ID-1 "CUT0020"
*HW_COUNTER_ID-2 "CUT0020"
*HW_COUNTER_ID-3 "CSL0021"
*HW_COUNTER_ID-4 "CMC0021"
*HW_COUNTER_NAME-0 "D/teX Ultra|D/teX Ultra"
*HW_COUNTER_NAME-1 "None|None"
*HW_COUNTER_NAME-2 "None|None"
*HW_COUNTER_NAME-3 "BBM|BBM"
*HW_COUNTER_NAME-4 "検出器モノクロメータ|Detector monochromator"
*HW_COUNTER_SELECT_NAME "D/teX Ultra|D/teX Ultra"
*HW_GONIOMETER_ID "GON0023"
*HW_GONIOMETER_NAME "SmartLab|SmartLab"
*HW_GONIOMETER_RADIUS-0 "90.0"
*HW_GONIOMETER_RADIUS-1 "114.0"
*HW_GONIOMETER_RADIUS-2 "190.0"
*HW_GONIOMETER_RADIUS-3 "300.0"
*HW_GONIOMETER_RADIUS-4 "187.0"
*HW_GONIOMETER_RADIUS-5 "300.0"
*HW_GONIOMETER_RADIUS-6 "113.0"
*HW_GONIOMETER_RADIUS-7 "331.0"
*HW_I_OPT_ID-0 "CBO0021"
*HW_I_OPT_ID-1 "ICR0023"
*HW_I_OPT_ID-2 "ISL0021"
*HW_I_OPT_ID-3 "ISO0021"
*HW_I_OPT_ID-4 "IAD0021"
*HW_I_OPT_ID-5 "IPR0001"
*HW_I_OPT_NAME-0 "CBOユニット|CBO unit"
*HW_I_OPT_NAME-1 "標準入射光学ユニット|Standard incident optical unit"
*HW_I_OPT_NAME-2 "標準入射スリットボックス|Standard incident slit box"
*HW_I_OPT_NAME-3 "入射平行スリット|Incident parallel slit"
*HW_I_OPT_NAME-4 "長手制限スリット|Length limiting slit"
*HW_I_OPT_NAME-5 "None|None"
*HW_R_ATTENUATER_AUTOMODE "0"
*HW_R_OPT_ID-0 "RSS0021"
*HW_R_OPT_ID-1 "RCR0023"
*HW_R_OPT_ID-2 "RSO0021"
*HW_R_OPT_ID-3 "RRS0021"
*HW_R_OPT_ID-4 "ATN0021"
*HW_R_OPT_ID-5 "RFL0021"
*HW_R_OPT_ID-6 "RAD0021"
*HW_R_OPT_NAME-0 "標準受光スリットボックス1|Standard receiving slit box # 1"
*HW_R_OPT_NAME-1 "標準受光光学ユニット1|Standard receiving unit # 1"
*HW_R_OPT_NAME-2 "標準受光光学ユニット2|Standard receiving optical unit # 2"
*HW_R_OPT_NAME-3 "標準受光スリットボックス2|Standard receiving slit box # 2"
*HW_R_OPT_NAME-4 "標準アッテネータ|Standard Attenuator"
*HW_R_OPT_NAME-5 "Cu Kβ|Cu K-beta"
*HW_R_OPT_NAME-6 "調整用受光スリット|Alignment receiving slit"
*HW_SAMPLE_HOLDER_ID "SMP0023"
*HW_SAMPLE_HOLDER_NAME "標準Zステージ|Standard Z stage"
*HW_XG_CURRENT_MAX "50"
*HW_XG_CURRENT_MIN "2"
*HW_XG_CURRENT_RESOLUTION "1"
*HW_XG_CURRENT_UNIT "mA"
*HW_XG_FOCUS "1mm x 10mm"
*HW_XG_FOCUS_TYPE "Normal"
*HW_XG_ID ""
*HW_XG_NAME "3kW 封入管(ID:1200)|3kW Sealed tube(ID:1200)"
*HW_XG_TARGET_ATOMIC_NUMBER "29.0000000000"
*HW_XG_TARGET_NAME "Cu"
*HW_XG_TYPE "Hermetic"
*HW_XG_VOLTAGE_MAX "60"
*HW_XG_VOLTAGE_MIN "20"
*HW_XG_VOLTAGE_RESOLUTION "1"
*HW_XG_VOLTAGE_UNIT "kV"
*HW_XG_WATT_MAX "1.500"
*HW_XG_WATT_UNIT "kW"
*HW_XG_WAVE_LENGTH_ALPHA1 "1.540593"
*HW_XG_WAVE_LENGTH_ALPHA2 "1.544414"
*HW_XG_WAVE_LENGTH_BETA "1.392250"
*MEAS_COND_AXIS_NAME-0 "2θ/θ"
*MEAS_COND_AXIS_NAME-1 "2θ"
*MEAS_COND_AXIS_NAME-2 "ω"
*MEAS_COND_AXIS_NAME-3 "Z"
*MEAS_COND_AXIS_NAME-4 "2θ/ω"
*MEAS_COND_AXIS_NAME-5 "θs"
*MEAS_COND_AXIS_NAME-6 "θd"
*MEAS_COND_AXIS_NAME-7 "Ts"
*MEAS_COND_AXIS_NAME-8 "CBO選択スリット"
*MEAS_COND_AXIS_NAME-9 "M"
*MEAS_COND_AXIS_NAME-10 "入射平行スリット"
*MEAS_COND_AXIS_NAME-11 "入射スリット"
*MEAS_COND_AXIS_NAME-12 ""
*MEAS_COND_AXIS_NAME-13 "Zs"
*MEAS_COND_AXIS_NAME-14 "入射光学素子"
*MEAS_COND_AXIS_NAME-15 "長手制限スリット"
*MEAS_COND_AXIS_NAME-16 "センタースリット"
*MEAS_COND_AXIS_NAME-17 "フィルター"
*MEAS_COND_AXIS_NAME-18 "受光スリット1"
*MEAS_COND_AXIS_NAME-19 "受光スリット2"
*MEAS_COND_AXIS_NAME-20 "受光光学素子"
*MEAS_COND_AXIS_NAME-21 "受光平行スリット"
*MEAS_COND_AXIS_NAME-22 "調整用受光スリット"
*MEAS_COND_AXIS_NAME-23 ""
*MEAS_COND_AXIS_NAME-24 ""
*MEAS_COND_AXIS_NAME-25 "Zd"
*MEAS_COND_AXIS_NAME-26 "アッテネータ"
*MEAS_COND_AXIS_NAME-27 "検出器モノクロメータ"
*MEAS_COND_AXIS_NAME-28 "モノクロメータスリット"
*MEAS_COND_AXIS_NAME-29 "プライマリビーム"
*MEAS_COND_AXIS_NAME-30 "PHA"
*MEAS_COND_AXIS_NAME_INTERNAL-0 "TwoThetaTheta"
*MEAS_COND_AXIS_NAME_INTERNAL-1 "TwoTheta"
*MEAS_COND_AXIS_NAME_INTERNAL-2 "Omega"
*MEAS_COND_AXIS_NAME_INTERNAL-3 "Z"
*MEAS_COND_AXIS_NAME_INTERNAL-4 "TwoThetaOmega"
*MEAS_COND_AXIS_NAME_INTERNAL-5 "ThetaS"
*MEAS_COND_AXIS_NAME_INTERNAL-6 "ThetaD"
*MEAS_COND_AXIS_NAME_INTERNAL-7 "Ts"
*MEAS_COND_AXIS_NAME_INTERNAL-8 "CBO"
*MEAS_COND_AXIS_NAME_INTERNAL-9 "CBO-M"
*MEAS_COND_AXIS_NAME_INTERNAL-10 "IncidentSollerSlit"
*MEAS_COND_AXIS_NAME_INTERNAL-11 "IncidentSlitBox"
*MEAS_COND_AXIS_NAME_INTERNAL-12 "IncidentSlitBox-_Axis"
*MEAS_COND_AXIS_NAME_INTERNAL-13 "Zs"
*MEAS_COND_AXIS_NAME_INTERNAL-14 "IncidentMonochromator"
*MEAS_COND_AXIS_NAME_INTERNAL-15 "IncidentAxdSlit"
*MEAS_COND_AXIS_NAME_INTERNAL-16 "CenterSlit"
*MEAS_COND_AXIS_NAME_INTERNAL-17 "Filter"
*MEAS_COND_AXIS_NAME_INTERNAL-18 "ReceivingSlitBox1"
*MEAS_COND_AXIS_NAME_INTERNAL-19 "ReceivingSlitBox2"
*MEAS_COND_AXIS_NAME_INTERNAL-20 "ReceivingOptics"
*MEAS_COND_AXIS_NAME_INTERNAL-21 "ReceivingSollerSlit"
*MEAS_COND_AXIS_NAME_INTERNAL-22 "ReceivingAxdSlit"
*MEAS_COND_AXIS_NAME_INTERNAL-23 "ReceivingSlitBox1-_Axis"
*MEAS_COND_AXIS_NAME_INTERNAL-24 "ReceivingSlitBox2-_Axis"
*MEAS_COND_AXIS_NAME_INTERNAL-25 "ReceivingSlitBox2-Zd"
*MEAS_COND_AXIS_NAME_INTERNAL-26 "Attenuator"
*MEAS_COND_AXIS_NAME_INTERNAL-27 "CounterMonochromator"
*MEAS_COND_AXIS_NAME_INTERNAL-28 "CounterSlit"
*MEAS_COND_AXIS_NAME_INTERNAL-29 "IncidentPrimary"
*MEAS_COND_AXIS_NAME_INTERNAL-30 "PHA"
*MEAS_COND_AXIS_NAME_MAGICNO-0 "83951616.0000000000"
*MEAS_COND_AXIS_NAME_MAGICNO-1 "268632064.0000000000"
*MEAS_COND_AXIS_NAME_MAGICNO-2 "268500992.0000000000"
*MEAS_COND_AXIS_NAME_MAGICNO-3 "285278208.0000000000"
*MEAS_COND_AXIS_NAME_MAGICNO-4 "83951616.0000000000"
*MEAS_COND_AXIS_NAME_MAGICNO-5 "131072.0000000000"
*MEAS_COND_AXIS_NAME_MAGICNO-6 "131072.0000000000"
*MEAS_COND_AXIS_NAME_MAGICNO-7 "318898176.0000000000"
*MEAS_COND_AXIS_NAME_MAGICNO-8 "20971521.0000000000"
*MEAS_COND_AXIS_NAME_MAGICNO-9 "285343744.0000000000"
*MEAS_COND_AXIS_NAME_MAGICNO-10 "20971521.0000000000"
*MEAS_COND_AXIS_NAME_MAGICNO-11 "22020097.0000000000"
*MEAS_COND_AXIS_NAME_MAGICNO-12 "25165824.0000000000"
*MEAS_COND_AXIS_NAME_MAGICNO-13 "318898176.0000000000"
*MEAS_COND_AXIS_NAME_MAGICNO-14 "1.0000000000"
*MEAS_COND_AXIS_NAME_MAGICNO-15 "20971521.0000000000"
*MEAS_COND_AXIS_NAME_MAGICNO-16 "20971521.0000000000"
*MEAS_COND_AXIS_NAME_MAGICNO-17 "20971521.0000000000"
*MEAS_COND_AXIS_NAME_MAGICNO-18 "23068673.0000000000"
*MEAS_COND_AXIS_NAME_MAGICNO-19 "23068673.0000000000"
*MEAS_COND_AXIS_NAME_MAGICNO-20 "20971521.0000000000"
*MEAS_COND_AXIS_NAME_MAGICNO-21 "20971521.0000000000"
*MEAS_COND_AXIS_NAME_MAGICNO-22 "20971521.0000000000"
*MEAS_COND_AXIS_NAME_MAGICNO-23 "25165824.0000000000"
*MEAS_COND_AXIS_NAME_MAGICNO-24 "25165824.0000000000"
*MEAS_COND_AXIS_NAME_MAGICNO-25 "285343744.0000000000"
*MEAS_COND_AXIS_NAME_MAGICNO-26 "17301505.0000000000"
*MEAS_COND_AXIS_NAME_MAGICNO-27 "20971521.0000000000"
*MEAS_COND_AXIS_NAME_MAGICNO-28 "20971521.0000000000"
*MEAS_COND_AXIS_NAME_MAGICNO-29 "20971521.0000000000"
*MEAS_COND_AXIS_NAME_MAGICNO-30 "0.0000000000"
*MEAS_COND_AXIS_OFFSET-0 "-"
*MEAS_COND_AXIS_OFFSET-1 "-0.1081000000"
*MEAS_COND_AXIS_OFFSET-2 "0.3758000000"
*MEAS_COND_AXIS_OFFSET-3 "-"
*MEAS_COND_AXIS_OFFSET-4 "-"
*MEAS_COND_AXIS_OFFSET-5 "0.3758000000"
*MEAS_COND_AXIS_OFFSET-6 "-0.4839000000"
*MEAS_COND_AXIS_OFFSET-7 "-"
*MEAS_COND_AXIS_OFFSET-8 "-"
*MEAS_COND_AXIS_OFFSET-9 "-"
*MEAS_COND_AXIS_OFFSET-10 "-"
*MEAS_COND_AXIS_OFFSET-11 "-"
*MEAS_COND_AXIS_OFFSET-12 "-"
*MEAS_COND_AXIS_OFFSET-13 "-"
*MEAS_COND_AXIS_OFFSET-14 "-"
*MEAS_COND_AXIS_OFFSET-15 "-"
*MEAS_COND_AXIS_OFFSET-16 "-"
*MEAS_COND_AXIS_OFFSET-17 "-"
*MEAS_COND_AXIS_OFFSET-18 "-"
*MEAS_COND_AXIS_OFFSET-19 "-"
*MEAS_COND_AXIS_OFFSET-20 "-"
*MEAS_COND_AXIS_OFFSET-21 "-"
*MEAS_COND_AXIS_OFFSET-22 "-"
*MEAS_COND_AXIS_OFFSET-23 "-"
*MEAS_COND_AXIS_OFFSET-24 "-"
*MEAS_COND_AXIS_OFFSET-25 "-"
*MEAS_COND_AXIS_OFFSET-26 "-"
*MEAS_COND_AXIS_OFFSET-27 "-"
*MEAS_COND_AXIS_OFFSET-28 "-"
*MEAS_COND_AXIS_OFFSET-29 "-"
*MEAS_COND_AXIS_OFFSET-30 "-"
*MEAS_COND_AXIS_POSITION-0 "0.0000000000"
*MEAS_COND_AXIS_POSITION-1 "0.0000000000"
*MEAS_COND_AXIS_POSITION-2 "0.0000000000"
*MEAS_COND_AXIS_POSITION-3 "-0.5500000000"
*MEAS_COND_AXIS_POSITION-4 "0.0000000000"
*MEAS_COND_AXIS_POSITION-5 "0.0000000000"
*MEAS_COND_AXIS_POSITION-6 "0.0000000000"
*MEAS_COND_AXIS_POSITION-7 "-0.4278800000"
*MEAS_COND_AXIS_POSITION-8 "BB"
*MEAS_COND_AXIS_POSITION-9 "0.0000000000"
*MEAS_COND_AXIS_POSITION-10 "Soller_slit_5.0deg"
*MEAS_COND_AXIS_POSITION-11 "2/3deg"
*MEAS_COND_AXIS_POSITION-12 "2.2088000000"
*MEAS_COND_AXIS_POSITION-13 "-0.4140600000"
*MEAS_COND_AXIS_POSITION-14 "0.0000000000"
*MEAS_COND_AXIS_POSITION-15 "10.0mm"
*MEAS_COND_AXIS_POSITION-16 "None"
*MEAS_COND_AXIS_POSITION-17 "Cu_K-beta"
*MEAS_COND_AXIS_POSITION-18 "13.000mm"
*MEAS_COND_AXIS_POSITION-19 "13.000mm"
*MEAS_COND_AXIS_POSITION-20 "No_unit"
*MEAS_COND_AXIS_POSITION-21 "Soller_slit_5.0deg"
*MEAS_COND_AXIS_POSITION-22 "None"
*MEAS_COND_AXIS_POSITION-23 "13.0000000000"
*MEAS_COND_AXIS_POSITION-24 "13.0000000000"
*MEAS_COND_AXIS_POSITION-25 "0.0109400000"
*MEAS_COND_AXIS_POSITION-26 "Open"
*MEAS_COND_AXIS_POSITION-27 "None"
*MEAS_COND_AXIS_POSITION-28 "None"
*MEAS_COND_AXIS_POSITION-29 "None"
*MEAS_COND_AXIS_POSITION-30 "38.0000000000"
*MEAS_COND_AXIS_UNIT-0 "deg"
*MEAS_COND_AXIS_UNIT-1 "deg"
*MEAS_COND_AXIS_UNIT-2 "deg"
*MEAS_COND_AXIS_UNIT-3 "mm"
*MEAS_COND_AXIS_UNIT-4 "deg"
*MEAS_COND_AXIS_UNIT-5 "deg"
*MEAS_COND_AXIS_UNIT-6 "deg"
*MEAS_COND_AXIS_UNIT-7 "mm"
*MEAS_COND_AXIS_UNIT-8 ""
*MEAS_COND_AXIS_UNIT-9 "pulse"
*MEAS_COND_AXIS_UNIT-10 ""
*MEAS_COND_AXIS_UNIT-11 ""
*MEAS_COND_AXIS_UNIT-12 "mm"
*MEAS_COND_AXIS_UNIT-13 "mm"
*MEAS_COND_AXIS_UNIT-14 ""
*MEAS_COND_AXIS_UNIT-15 ""
*MEAS_COND_AXIS_UNIT-16 ""
*MEAS_COND_AXIS_UNIT-17 ""
*MEAS_COND_AXIS_UNIT-18 ""
*MEAS_COND_AXIS_UNIT-19 ""
*MEAS_COND_AXIS_UNIT-20 ""
*MEAS_COND_AXIS_UNIT-21 ""
*MEAS_COND_AXIS_UNIT-22 ""
*MEAS_COND_AXIS_UNIT-23 "mm"
*MEAS_COND_AXIS_UNIT-24 "mm"
*MEAS_COND_AXIS_UNIT-25 "mm"
*MEAS_COND_AXIS_UNIT-26 ""
*MEAS_COND_AXIS_UNIT-27 ""
*MEAS_COND_AXIS_UNIT-28 ""
*MEAS_COND_AXIS_UNIT-29 ""
*MEAS_COND_AXIS_UNIT-30 "div"
*MEAS_COND_COUNTER_CNTLOSS_CORR "0.0000000000"
*MEAS_COND_COUNTER_PHABASE "38.0000000000"
*MEAS_COND_COUNTER_PHAWINDOW "16.0000000000"
*MEAS_COND_COUNTER_PHA_UNIT "div"
*MEAS_COND_COUNTER_TAUDIFF "30.0000000000"
*MEAS_COND_COUNTER_TAUINT "0.0000000000"
*MEAS_COND_IRRADIATION_MODE "OFF"
*MEAS_COND_IRRADIATION_WIDTH ""
*MEAS_COND_OPT_ATTR "集中法"
*MEAS_COND_OPT_NAME "@集中法"
*MEAS_COND_UNSYMMETRIC_MODE "OFF"
*MEAS_COND_XG_CURRENT "30.0000000000"
*MEAS_COND_XG_VOLTAGE "40.0000000000"
*MEAS_COND_XG_WAVE_TYPE "Ka"
*MEAS_DATA_COUNT "5001.0000000000"
*MEAS_SCAN_AXIS_X "2θ/θ"
*MEAS_SCAN_AXIS_X_INTERNAL "TwoThetaTheta"
*MEAS_SCAN_END_TIME "07/28/21 12:05:11"
*MEAS_SCAN_MODE "CONTINUOUS"
*MEAS_SCAN_MONITOR "0"
*MEAS_SCAN_RESOLUTION_X "0.0002"
*MEAS_SCAN_SPEED "2.5"
*MEAS_SCAN_SPEED_UNIT "deg/min"
*MEAS_SCAN_START "20.0000000000"
*MEAS_SCAN_START_TIME "07/28/21 11:43:47"
*MEAS_SCAN_STEP "0.0100000000"
*MEAS_SCAN_STOP "70.0000000000"
*MEAS_SCAN_UNIT_X "deg"
*MEAS_SCAN_UNIT_Y "counts"
*RAS_HEADER_END
*RAS_INT_START
20.0000 599.0000 1.0000
20.0100 626.0000 1.0000
20.0200 615.0000 1.0000
20.0300 600.0000 1.0000
20.0400 636.0000 1.0000
20.0500 650.0000 1.0000
20.0600 604.0000 1.0000
20.0700 615.0000 1.0000
20.0800 629.0000 1.0000
20.0900 635.0000 1.0000
20.1000 617.0000 1.0000
20.1100 654.0000 1.0000
20.1200 579.0000 1.0000
20.1300 622.0000 1.0000
20.1400 622.0000 1.0000
20.1500 643.0000 1.0000
20.1600 614.0000 1.0000
20.1700 619.0000 1.0000
20.1800 639.0000 1.0000
20.1900 619.0000 1.0000
20.2000 637.0000 1.0000
20.2100 595.0000 1.0000
20.2200 582.0000 1.0000
20.2300 600.0000 1.0000
20.2400 589.0000 1.0000
20.2500 641.0000 1.0000
20.2600 602.0000 1.0000
20.2700 560.0000 1.0000
20.2800 593.0000 1.0000
20.2900 589.0000 1.0000
20.3000 591.0000 1.0000
20.3100 630.0000 1.0000
20.3200 612.0000 1.0000
20.3300 596.0000 1.0000
20.3400 609.0000 1.0000
20.3500 635.0000 1.0000
20.3600 620.0000 1.0000
20.3700 604.0000 1.0000
20.3800 602.0000 1.0000
20.3900 613.0000 1.0000
20.4000 654.0000 1.0000
20.4100 657.0000 1.0000
20.4200 595.0000 1.0000
20.4300 584.0000 1.0000
20.4400 631.0000 1.0000
20.4500 621.0000 1.0000
20.4600 640.0000 1.0000
20.4700 614.0000 1.0000
20.4800 613.0000 1.0000
20.4900 623.0000 1.0000
20.5000 565.0000 1.0000
20.5100 595.0000 1.0000
20.5200 622.0000 1.0000
20.5300 670.0000 1.0000
20.5400 649.0000 1.0000
20.5500 597.0000 1.0000
20.5600 642.0000 1.0000
20.5700 574.0000 1.0000
20.5800 595.0000 1.0000
20.5900 589.0000 1.0000
20.6000 625.0000 1.0000
20.6100 589.0000 1.0000
20.6200 665.0000 1.0000
20.6300 600.0000 1.0000
20.6400 598.0000 1.0000
20.6500 575.0000 1.0000
20.6600 562.0000 1.0000
20.6700 564.0000 1.0000
20.6800 617.0000 1.0000
20.6900 676.0000 1.0000
20.7000 628.0000 1.0000
20.7100 644.0000 1.0000
20.7200 600.0000 1.0000
20.7300 632.0000 1.0000
20.7400 608.0000 1.0000
20.7500 630.0000 1.0000
20.7600 642.0000 1.0000
20.7700 583.0000 1.0000
20.7800 613.0000 1.0000
20.7900 580.0000 1.0000
20.8000 601.0000 1.0000
20.8100 574.0000 1.0000
20.8200 597.0000 1.0000
20.8300 590.0000 1.0000
20.8400 628.0000 1.0000
20.8500 604.0000 1.0000
20.8600 642.0000 1.0000
20.8700 623.0000 1.0000
20.8800 650.0000 1.0000
20.8900 623.0000 1.0000
20.9000 621.0000 1.0000
20.9100 578.0000 1.0000
20.9200 598.0000 1.0000
20.9300 572.0000 1.0000
20.9400 636.0000 1.0000
20.9500 613.0000 1.0000
20.9600 631.0000 1.0000
20.9700 616.0000 1.0000
20.9800 614.0000 1.0000
20.9900 587.0000 1.0000
21.0000 614.0000 1.0000
21.0100 615.0000 1.0000
21.0200 600.0000 1.0000
21.0300 597.0000 1.0000
21.0400 582.0000 1.0000
21.0500 636.0000 1.0000
21.0600 646.0000 1.0000
21.0700 592.0000 1.0000
21.0800 567.0000 1.0000
21.0900 608.0000 1.0000
21.1000 618.0000 1.0000
21.1100 648.0000 1.0000
21.1200 651.0000 1.0000
21.1300 597.0000 1.0000
21.1400 604.0000 1.0000
21.1500 594.0000 1.0000
21.1600 627.0000 1.0000
21.1700 606.0000 1.0000
21.1800 605.0000 1.0000
21.1900 591.0000 1.0000
21.2000 618.0000 1.0000
21.2100 609.0000 1.0000
21.2200 608.0000 1.0000
21.2300 644.0000 1.0000
21.2400 614.0000 1.0000
21.2500 614.0000 1.0000
21.2600 609.0000 1.0000
21.2700 609.0000 1.0000
21.2800 597.0000 1.0000
21.2900 609.0000 1.0000
21.3000 622.0000 1.0000
21.3100 623.0000 1.0000
21.3200 618.0000 1.0000
21.3300 638.0000 1.0000
21.3400 643.0000 1.0000
21.3500 626.0000 1.0000
21.3600 641.0000 1.0000
21.3700 586.0000 1.0000
21.3800 594.0000 1.0000
21.3900 616.0000 1.0000
21.4000 605.0000 1.0000
21.4100 596.0000 1.0000
21.4200 596.0000 1.0000
21.4300 601.0000 1.0000
21.4400 606.0000 1.0000
21.4500 574.0000 1.0000
21.4600 652.0000 1.0000
21.4700 615.0000 1.0000
21.4800 609.0000 1.0000
21.4900 667.0000 1.0000
21.5000 601.0000 1.0000
21.5100 638.0000 1.0000
21.5200 611.0000 1.0000
21.5300 631.0000 1.0000
21.5400 613.0000 1.0000
21.5500 595.0000 1.0000
21.5600 646.0000 1.0000
21.5700 618.0000 1.0000
21.5800 614.0000 1.0000
21.5900 621.0000 1.0000
21.6000 608.0000 1.0000
21.6100 641.0000 1.0000
21.6200 629.0000 1.0000
21.6300 613.0000 1.0000
21.6400 655.0000 1.0000
21.6500 646.0000 1.0000
21.6600 626.0000 1.0000
21.6700 643.0000 1.0000
21.6800 627.0000 1.0000
21.6900 592.0000 1.0000
21.7000 595.0000 1.0000
21.7100 600.0000 1.0000
21.7200 578.0000 1.0000
21.7300 619.0000 1.0000
21.7400 591.0000 1.0000
21.7500 572.0000 1.0000
21.7600 609.0000 1.0000
21.7700 654.0000 1.0000
21.7800 626.0000 1.0000
21.7900 615.0000 1.0000
21.8000 571.0000 1.0000
21.8100 632.0000 1.0000
21.8200 620.0000 1.0000
21.8300 613.0000 1.0000
21.8400 637.0000 1.0000
21.8500 612.0000 1.0000
21.8600 628.0000 1.0000
21.8700 606.0000 1.0000
21.8800 644.0000 1.0000
21.8900 601.0000 1.0000
21.9000 606.0000 1.0000
21.9100 627.0000 1.0000
21.9200 625.0000 1.0000
21.9300 643.0000 1.0000
21.9400 597.0000 1.0000
21.9500 579.0000 1.0000
21.9600 610.0000 1.0000
21.9700 629.0000 1.0000
21.9800 625.0000 1.0000
21.9900 636.0000 1.0000
22.0000 594.0000 1.0000
22.0100 587.0000 1.0000
22.0200 613.0000 1.0000
22.0300 607.0000 1.0000
22.0400 618.0000 1.0000
22.0500 624.0000 1.0000
22.0600 628.0000 1.0000
22.0700 626.0000 1.0000
22.0800 612.0000 1.0000
22.0900 619.0000 1.0000
22.1000 605.0000 1.0000
22.1100 630.0000 1.0000
22.1200 623.0000 1.0000
22.1300 630.0000 1.0000
22.1400 598.0000 1.0000
22.1500 621.0000 1.0000
22.1600 641.0000 1.0000
22.1700 633.0000 1.0000
22.1800 609.0000 1.0000
22.1900 620.0000 1.0000
22.2000 621.0000 1.0000
22.2100 621.0000 1.0000
22.2200 599.0000 1.0000
22.2300 598.0000 1.0000
22.2400 622.0000 1.0000
22.2500 672.0000 1.0000
22.2600 646.0000 1.0000
22.2700 593.0000 1.0000
22.2800 611.0000 1.0000
22.2900 630.0000 1.0000
22.3000 587.0000 1.0000
22.3100 657.0000 1.0000
22.3200 643.0000 1.0000
22.3300 629.0000 1.0000
22.3400 592.0000 1.0000
22.3500 622.0000 1.0000
22.3600 641.0000 1.0000
22.3700 594.0000 1.0000
22.3800 629.0000 1.0000
22.3900 624.0000 1.0000
22.4000 581.0000 1.0000
22.4100 602.0000 1.0000
22.4200 641.0000 1.0000
22.4300 651.0000 1.0000
22.4400 621.0000 1.0000
22.4500 592.0000 1.0000
22.4600 628.0000 1.0000
22.4700 640.0000 1.0000
22.4800 636.0000 1.0000
22.4900 645.0000 1.0000
22.5000 609.0000 1.0000
22.5100 624.0000 1.0000
22.5200 640.0000 1.0000
22.5300 616.0000 1.0000
22.5400 666.0000 1.0000
22.5500 599.0000 1.0000
22.5600 619.0000 1.0000
22.5700 638.0000 1.0000
22.5800 632.0000 1.0000
22.5900 630.0000 1.0000
22.6000 611.0000 1.0000
22.6100 620.0000 1.0000
22.6200 663.0000 1.0000
22.6300 607.0000 1.0000
22.6400 622.0000 1.0000
22.6500 604.0000 1.0000
22.6600 597.0000 1.0000
22.6700 611.0000 1.0000
22.6800 621.0000 1.0000
22.6900 600.0000 1.0000
22.7000 609.0000 1.0000
22.7100 602.0000 1.0000
22.7200 638.0000 1.0000
22.7300 694.0000 1.0000
22.7400 618.0000 1.0000
22.7500 630.0000 1.0000
22.7600 609.0000 1.0000
22.7700 605.0000 1.0000
22.7800 613.0000 1.0000
22.7900 649.0000 1.0000
22.8000 631.0000 1.0000
22.8100 645.0000 1.0000
22.8200 605.0000 1.0000
22.8300 610.0000 1.0000
22.8400 616.0000 1.0000
22.8500 610.0000 1.0000
22.8600 621.0000 1.0000
22.8700 641.0000 1.0000
22.8800 637.0000 1.0000
22.8900 606.0000 1.0000
22.9000 637.0000 1.0000
22.9100 604.0000 1.0000
22.9200 621.0000 1.0000
22.9300 662.0000 1.0000
22.9400 665.0000 1.0000
22.9500 648.0000 1.0000
22.9600 636.0000 1.0000
22.9700 642.0000 1.0000
22.9800 641.0000 1.0000
22.9900 637.0000 1.0000
23.0000 630.0000 1.0000
23.0100 626.0000 1.0000
23.0200 622.0000 1.0000
23.0300 626.0000 1.0000
23.0400 615.0000 1.0000
23.0500 627.0000 1.0000
23.0600 666.0000 1.0000
23.0700 633.0000 1.0000
23.0800 599.0000 1.0000
23.0900 627.0000 1.0000
23.1000 618.0000 1.0000
23.1100 616.0000 1.0000
23.1200 660.0000 1.0000
23.1300 661.0000 1.0000
23.1400 646.0000 1.0000
23.1500 617.0000 1.0000
23.1600 626.0000 1.0000
23.1700 619.0000 1.0000
23.1800 627.0000 1.0000
23.1900 626.0000 1.0000
23.2000 647.0000 1.0000
23.2100 640.0000 1.0000
23.2200 637.0000 1.0000
23.2300 612.0000 1.0000
23.2400 606.0000 1.0000
23.2500 647.0000 1.0000
23.2600 624.0000 1.0000
23.2700 600.0000 1.0000
23.2800 604.0000 1.0000
23.2900 647.0000 1.0000
23.3000 623.0000 1.0000
23.3100 636.0000 1.0000
23.3200 658.0000 1.0000
23.3300 639.0000 1.0000
23.3400 630.0000 1.0000
23.3500 600.0000 1.0000
23.3600 641.0000 1.0000
23.3700 606.0000 1.0000
23.3800 620.0000 1.0000
23.3900 620.0000 1.0000
23.4000 644.0000 1.0000
23.4100 640.0000 1.0000
23.4200 609.0000 1.0000
23.4300 639.0000 1.0000
23.4400 652.0000 1.0000
23.4500 660.0000 1.0000
23.4600 660.0000 1.0000
23.4700 625.0000 1.0000
23.4800 635.0000 1.0000
23.4900 598.0000 1.0000
23.5000 600.0000 1.0000
23.5100 586.0000 1.0000
23.5200 636.0000 1.0000
23.5300 633.0000 1.0000
23.5400 633.0000 1.0000
23.5500 618.0000 1.0000
23.5600 640.0000 1.0000
23.5700 625.0000 1.0000
23.5800 671.0000 1.0000
23.5900 665.0000 1.0000
23.6000 623.0000 1.0000
23.6100 604.0000 1.0000
23.6200 614.0000 1.0000
23.6300 627.0000 1.0000
23.6400 636.0000 1.0000
23.6500 622.0000 1.0000
23.6600 642.0000 1.0000
23.6700 654.0000 1.0000
23.6800 627.0000 1.0000
23.6900 647.0000 1.0000
23.7000 658.0000 1.0000
23.7100 624.0000 1.0000
23.7200 635.0000 1.0000
23.7300 615.0000 1.0000
23.7400 648.0000 1.0000
23.7500 616.0000 1.0000
23.7600 654.0000 1.0000
23.7700 635.0000 1.0000
23.7800 679.0000 1.0000
23.7900 657.0000 1.0000
23.8000 623.0000 1.0000
23.8100 618.0000 1.0000
23.8200 630.0000 1.0000
23.8300 660.0000 1.0000
23.8400 663.0000 1.0000
23.8500 653.0000 1.0000
23.8600 635.0000 1.0000
23.8700 659.0000 1.0000
23.8800 619.0000 1.0000
23.8900 663.0000 1.0000
23.9000 622.0000 1.0000
23.9100 653.0000 1.0000
23.9200 641.0000 1.0000
23.9300 654.0000 1.0000
23.9400 653.0000 1.0000
23.9500 606.0000 1.0000
23.9600 664.0000 1.0000
23.9700 612.0000 1.0000
23.9800 625.0000 1.0000
23.9900 640.0000 1.0000
24.0000 621.0000 1.0000
24.0100 660.0000 1.0000
24.0200 620.0000 1.0000
24.0300 602.0000 1.0000
24.0400 666.0000 1.0000
24.0500 641.0000 1.0000
24.0600 663.0000 1.0000
24.0700 637.0000 1.0000
24.0800 622.0000 1.0000
24.0900 655.0000 1.0000
24.1000 621.0000 1.0000
24.1100 640.0000 1.0000
24.1200 653.0000 1.0000
24.1300 671.0000 1.0000
24.1400 649.0000 1.0000
24.1500 621.0000 1.0000
24.1600 603.0000 1.0000
24.1700 594.0000 1.0000
24.1800 633.0000 1.0000
24.1900 579.0000 1.0000
24.2000 669.0000 1.0000
24.2100 650.0000 1.0000
24.2200 638.0000 1.0000
24.2300 603.0000 1.0000
24.2400 637.0000 1.0000
24.2500 660.0000 1.0000
24.2600 634.0000 1.0000
24.2700 626.0000 1.0000
24.2800 605.0000 1.0000
24.2900 642.0000 1.0000
24.3000 632.0000 1.0000
24.3100 601.0000 1.0000
24.3200 643.0000 1.0000
24.3300 661.0000 1.0000
24.3400 643.0000 1.0000
24.3500 616.0000 1.0000
24.3600 652.0000 1.0000
24.3700 652.0000 1.0000
24.3800 649.0000 1.0000
24.3900 641.0000 1.0000
24.4000 664.0000 1.0000
24.4100 652.0000 1.0000
24.4200 630.0000 1.0000
24.4300 679.0000 1.0000
24.4400 655.0000 1.0000
24.4500 619.0000 1.0000
24.4600 653.0000 1.0000
24.4700 612.0000 1.0000
24.4800 645.0000 1.0000
24.4900 613.0000 1.0000
24.5000 686.0000 1.0000
24.5100 652.0000 1.0000
24.5200 669.0000 1.0000
24.5300 669.0000 1.0000
24.5400 642.0000 1.0000
24.5500 640.0000 1.0000
24.5600 635.0000 1.0000
24.5700 619.0000 1.0000
24.5800 713.0000 1.0000
24.5900 621.0000 1.0000
24.6000 639.0000 1.0000
24.6100 646.0000 1.0000
24.6200 625.0000 1.0000
24.6300 666.0000 1.0000
24.6400 696.0000 1.0000
24.6500 678.0000 1.0000
24.6600 678.0000 1.0000
24.6700 635.0000 1.0000
24.6800 627.0000 1.0000
24.6900 683.0000 1.0000
24.7000 680.0000 1.0000
24.7100 634.0000 1.0000
24.7200 676.0000 1.0000
24.7300 678.0000 1.0000
24.7400 627.0000 1.0000
24.7500 668.0000 1.0000
24.7600 646.0000 1.0000
24.7700 657.0000 1.0000
24.7800 641.0000 1.0000
24.7900 658.0000 1.0000
24.8000 620.0000 1.0000
24.8100 622.0000 1.0000
24.8200 643.0000 1.0000
24.8300 645.0000 1.0000
24.8400 675.0000 1.0000
24.8500 673.0000 1.0000
24.8600 667.0000 1.0000
24.8700 649.0000 1.0000
24.8800 677.0000 1.0000
24.8900 693.0000 1.0000
24.9000 658.0000 1.0000
24.9100 657.0000 1.0000
24.9200 716.0000 1.0000
24.9300 686.0000 1.0000
24.9400 705.0000 1.0000
24.9500 666.0000 1.0000
24.9600 650.0000 1.0000
24.9700 615.0000 1.0000
24.9800 667.0000 1.0000
24.9900 678.0000 1.0000
25.0000 654.0000 1.0000
25.0100 673.0000 1.0000
25.0200 644.0000 1.0000
25.0300 661.0000 1.0000
25.0400 654.0000 1.0000
25.0500 693.0000 1.0000
25.0600 642.0000 1.0000
25.0700 647.0000 1.0000
25.0800 656.0000 1.0000
25.0900 666.0000 1.0000
25.1000 684.0000 1.0000
25.1100 683.0000 1.0000
25.1200 655.0000 1.0000
25.1300 635.0000 1.0000
25.1400 682.0000 1.0000
25.1500 625.0000 1.0000
25.1600 687.0000 1.0000
25.1700 669.0000 1.0000
25.1800 685.0000 1.0000
25.1900 626.0000 1.0000
25.2000 629.0000 1.0000
25.2100 698.0000 1.0000
25.2200 640.0000 1.0000
25.2300 649.0000 1.0000
25.2400 655.0000 1.0000
25.2500 637.0000 1.0000
25.2600 666.0000 1.0000
25.2700 668.0000 1.0000
25.2800 659.0000 1.0000
25.2900 627.0000 1.0000
25.3000 661.0000 1.0000
25.3100 679.0000 1.0000
25.3200 609.0000 1.0000
25.3300 643.0000 1.0000
25.3400 675.0000 1.0000
25.3500 656.0000 1.0000
25.3600 651.0000 1.0000
25.3700 635.0000 1.0000
25.3800 635.0000 1.0000
25.3900 661.0000 1.0000
25.4000 628.0000 1.0000
25.4100 645.0000 1.0000
25.4200 664.0000 1.0000
25.4300 655.0000 1.0000
25.4400 647.0000 1.0000
25.4500 651.0000 1.0000
25.4600 625.0000 1.0000
25.4700 692.0000 1.0000
25.4800 697.0000 1.0000
25.4900 641.0000 1.0000
25.5000 606.0000 1.0000
25.5100 642.0000 1.0000
25.5200 666.0000 1.0000
25.5300 665.0000 1.0000
25.5400 658.0000 1.0000
25.5500 628.0000 1.0000
25.5600 635.0000 1.0000
25.5700 624.0000 1.0000
25.5800 622.0000 1.0000
25.5900 599.0000 1.0000
25.6000 629.0000 1.0000
25.6100 655.0000 1.0000
25.6200 699.0000 1.0000
25.6300 626.0000 1.0000
25.6400 669.0000 1.0000
25.6500 646.0000 1.0000
25.6600 631.0000 1.0000
25.6700 666.0000 1.0000
25.6800 659.0000 1.0000
25.6900 644.0000 1.0000
25.7000 649.0000 1.0000
25.7100 648.0000 1.0000
25.7200 660.0000 1.0000
25.7300 597.0000 1.0000
25.7400 618.0000 1.0000
25.7500 650.0000 1.0000
25.7600 672.0000 1.0000
25.7700 666.0000 1.0000
25.7800 633.0000 1.0000
25.7900 634.0000 1.0000
25.8000 660.0000 1.0000
25.8100 696.0000 1.0000
25.8200 683.0000 1.0000
25.8300 666.0000 1.0000
25.8400 626.0000 1.0000
25.8500 649.0000 1.0000
25.8600 640.0000 1.0000
25.8700 661.0000 1.0000
25.8800 667.0000 1.0000
25.8900 627.0000 1.0000
25.9000 653.0000 1.0000
25.9100 632.0000 1.0000
25.9200 661.0000 1.0000
25.9300 652.0000 1.0000
25.9400 664.0000 1.0000
25.9500 638.0000 1.0000
25.9600 640.0000 1.0000
25.9700 629.0000 1.0000
25.9800 663.0000 1.0000
25.9900 650.0000 1.0000
26.0000 668.0000 1.0000
26.0100 665.0000 1.0000
26.0200 664.0000 1.0000
26.0300 626.0000 1.0000
26.0400 679.0000 1.0000
26.0500 619.0000 1.0000
26.0600 641.0000 1.0000
26.0700 607.0000 1.0000
26.0800 613.0000 1.0000
26.0900 597.0000 1.0000
26.1000 618.0000 1.0000
26.1100 619.0000 1.0000
26.1200 654.0000 1.0000
26.1300 681.0000 1.0000
26.1400 632.0000 1.0000
26.1500 623.0000 1.0000
26.1600 647.0000 1.0000
26.1700 639.0000 1.0000
26.1800 676.0000 1.0000
26.1900 703.0000 1.0000
26.2000 647.0000 1.0000
26.2100 628.0000 1.0000
26.2200 628.0000 1.0000
26.2300 662.0000 1.0000
26.2400 649.0000 1.0000
26.2500 699.0000 1.0000
26.2600 629.0000 1.0000
26.2700 644.0000 1.0000
26.2800 633.0000 1.0000
26.2900 651.0000 1.0000
26.3000 628.0000 1.0000
26.3100 637.0000 1.0000
26.3200 617.0000 1.0000
26.3300 615.0000 1.0000
26.3400 675.0000 1.0000
26.3500 662.0000 1.0000
26.3600 697.0000 1.0000
26.3700 637.0000 1.0000
26.3800 663.0000 1.0000
26.3900 650.0000 1.0000
26.4000 676.0000 1.0000
26.4100 713.0000 1.0000
26.4200 664.0000 1.0000
26.4300 695.0000 1.0000
26.4400 705.0000 1.0000
26.4500 686.0000 1.0000
26.4600 646.0000 1.0000
26.4700 700.0000 1.0000
26.4800 658.0000 1.0000
26.4900 665.0000 1.0000
26.5000 670.0000 1.0000
26.5100 675.0000 1.0000
26.5200 699.0000 1.0000
26.5300 697.0000 1.0000
26.5400 694.0000 1.0000
26.5500 668.0000 1.0000
26.5600 680.0000 1.0000
26.5700 663.0000 1.0000
26.5800 643.0000 1.0000
26.5900 704.0000 1.0000
26.6000 719.0000 1.0000
26.6100 699.0000 1.0000
26.6200 685.0000 1.0000
26.6300 689.0000 1.0000
26.6400 692.0000 1.0000
26.6500 700.0000 1.0000
26.6600 698.0000 1.0000
26.6700 687.0000 1.0000
26.6800 691.0000 1.0000
26.6900 679.0000 1.0000
26.7000 716.0000 1.0000
26.7100 703.0000 1.0000
26.7200 673.0000 1.0000
26.7300 736.0000 1.0000
26.7400 698.0000 1.0000
26.7500 688.0000 1.0000
26.7600 734.0000 1.0000
26.7700 689.0000 1.0000
26.7800 697.0000 1.0000
26.7900 696.0000 1.0000
26.8000 724.0000 1.0000
26.8100 701.0000 1.0000
26.8200 739.0000 1.0000
26.8300 727.0000 1.0000
26.8400 691.0000 1.0000
26.8500 703.0000 1.0000
26.8600 754.0000 1.0000
26.8700 757.0000 1.0000
26.8800 737.0000 1.0000
26.8900 744.0000 1.0000
26.9000 771.0000 1.0000
26.9100 778.0000 1.0000
26.9200 745.0000 1.0000
26.9300 713.0000 1.0000
26.9400 765.0000 1.0000
26.9500 814.0000 1.0000
26.9600 826.0000 1.0000
26.9700 853.0000 1.0000
26.9800 820.0000 1.0000
26.9900 811.0000 1.0000
27.0000 881.0000 1.0000
27.0100 805.0000 1.0000
27.0200 831.0000 1.0000
27.0300 877.0000 1.0000
27.0400 882.0000 1.0000
27.0500 870.0000 1.0000
27.0600 878.0000 1.0000
27.0700 970.0000 1.0000
27.0800 963.0000 1.0000
27.0900 1024.0000 1.0000
27.1000 1036.0000 1.0000
27.1100 1053.0000 1.0000
27.1200 1044.0000 1.0000
27.1300 1140.0000 1.0000
27.1400 1156.0000 1.0000
27.1500 1175.0000 1.0000
27.1600 1190.0000 1.0000
27.1700 1289.0000 1.0000
27.1800 1374.0000 1.0000
27.1900 1374.0000 1.0000
27.2000 1496.0000 1.0000
27.2100 1533.0000 1.0000
27.2200 1607.0000 1.0000
27.2300 1735.0000 1.0000
27.2400 1846.0000 1.0000
27.2500 1903.0000 1.0000
27.2600 2017.0000 1.0000
27.2700 2099.0000 1.0000
27.2800 2208.0000 1.0000
27.2900 2253.0000 1.0000
27.3000 2305.0000 1.0000
27.3100 2284.0000 1.0000
27.3200 2352.0000 1.0000
27.3300 2423.0000 1.0000
27.3400 2439.0000 1.0000
27.3500 2420.0000 1.0000
27.3600 2277.0000 1.0000
27.3700 2311.0000 1.0000
27.3800 2260.0000 1.0000
27.3900 2182.0000 1.0000
27.4000 2039.0000 1.0000
27.4100 1896.0000 1.0000
27.4200 1819.0000 1.0000
27.4300 1729.0000 1.0000
27.4400 1687.0000 1.0000
27.4500 1553.0000 1.0000
27.4600 1512.0000 1.0000
27.4700 1436.0000 1.0000
27.4800 1380.0000 1.0000
27.4900 1315.0000 1.0000
27.5000 1279.0000 1.0000
27.5100 1220.0000 1.0000
27.5200 1185.0000 1.0000
27.5300 1140.0000 1.0000
27.5400 1040.0000 1.0000
27.5500 1095.0000 1.0000
27.5600 983.0000 1.0000
27.5700 990.0000 1.0000
27.5800 901.0000 1.0000
27.5900 976.0000 1.0000
27.6000 941.0000 1.0000
27.6100 875.0000 1.0000
27.6200 907.0000 1.0000
27.6300 851.0000 1.0000
27.6400 829.0000 1.0000
27.6500 863.0000 1.0000
27.6600 852.0000 1.0000
27.6700 798.0000 1.0000
27.6800 793.0000 1.0000
27.6900 808.0000 1.0000
27.7000 804.0000 1.0000
27.7100 803.0000 1.0000
27.7200 772.0000 1.0000
27.7300 782.0000 1.0000
27.7400 772.0000 1.0000
27.7500 777.0000 1.0000
27.7600 777.0000 1.0000
27.7700 707.0000 1.0000
27.7800 739.0000 1.0000
27.7900 739.0000 1.0000
27.8000 737.0000 1.0000
27.8100 700.0000 1.0000
27.8200 699.0000 1.0000
27.8300 722.0000 1.0000
27.8400 730.0000 1.0000
27.8500 690.0000 1.0000
27.8600 710.0000 1.0000
27.8700 692.0000 1.0000
27.8800 640.0000 1.0000
27.8900 674.0000 1.0000
27.9000 696.0000 1.0000
27.9100 762.0000 1.0000
27.9200 711.0000 1.0000
27.9300 718.0000 1.0000
27.9400 687.0000 1.0000
27.9500 680.0000 1.0000
27.9600 649.0000 1.0000
27.9700 704.0000 1.0000
27.9800 647.0000 1.0000
27.9900 703.0000 1.0000
28.0000 691.0000 1.0000
28.0100 694.0000 1.0000
28.0200 691.0000 1.0000
28.0300 683.0000 1.0000
28.0400 680.0000 1.0000
28.0500 672.0000 1.0000
28.0600 662.0000 1.0000
28.0700 648.0000 1.0000
28.0800 646.0000 1.0000
28.0900 668.0000 1.0000
28.1000 639.0000 1.0000
28.1100 708.0000 1.0000
28.1200 660.0000 1.0000
28.1300 647.0000 1.0000
28.1400 664.0000 1.0000
28.1500 635.0000 1.0000
28.1600 634.0000 1.0000
28.1700 665.0000 1.0000
28.1800 666.0000 1.0000
28.1900 632.0000 1.0000
28.2000 620.0000 1.0000
28.2100 674.0000 1.0000
28.2200 656.0000 1.0000
28.2300 679.0000 1.0000
28.2400 637.0000 1.0000
28.2500 654.0000 1.0000
28.2600 658.0000 1.0000
28.2700 671.0000 1.0000
28.2800 655.0000 1.0000
28.2900 698.0000 1.0000
28.3000 656.0000 1.0000
28.3100 643.0000 1.0000
28.3200 635.0000 1.0000
28.3300 638.0000 1.0000
28.3400 648.0000 1.0000
28.3500 642.0000 1.0000
28.3600 649.0000 1.0000
28.3700 647.0000 1.0000
28.3800 633.0000 1.0000
28.3900 611.0000 1.0000
28.4000 667.0000 1.0000
28.4100 635.0000 1.0000
28.4200 640.0000 1.0000
28.4300 622.0000 1.0000
28.4400 640.0000 1.0000
28.4500 618.0000 1.0000
28.4600 664.0000 1.0000
28.4700 644.0000 1.0000
28.4800 626.0000 1.0000
28.4900 623.0000 1.0000
28.5000 622.0000 1.0000
28.5100 604.0000 1.0000
28.5200 616.0000 1.0000
28.5300 637.0000 1.0000
28.5400 618.0000 1.0000
28.5500 587.0000 1.0000
28.5600 633.0000 1.0000
28.5700 657.0000 1.0000
28.5800 634.0000 1.0000
28.5900 637.0000 1.0000
28.6000 634.0000 1.0000
28.6100 616.0000 1.0000
28.6200 644.0000 1.0000
28.6300 616.0000 1.0000
28.6400 628.0000 1.0000
28.6500 626.0000 1.0000
28.6600 615.0000 1.0000
28.6700 616.0000 1.0000
28.6800 633.0000 1.0000
28.6900 626.0000 1.0000
28.7000 626.0000 1.0000
28.7100 611.0000 1.0000
28.7200 595.0000 1.0000
28.7300 684.0000 1.0000
28.7400 644.0000 1.0000
28.7500 625.0000 1.0000
28.7600 617.0000 1.0000
28.7700 624.0000 1.0000
28.7800 612.0000 1.0000
28.7900 674.0000 1.0000
28.8000 611.0000 1.0000
28.8100 589.0000 1.0000
28.8200 651.0000 1.0000
28.8300 618.0000 1.0000
28.8400 596.0000 1.0000
28.8500 630.0000 1.0000
28.8600 645.0000 1.0000
28.8700 608.0000 1.0000
28.8800 599.0000 1.0000
28.8900 621.0000 1.0000
28.9000 639.0000 1.0000
28.9100 648.0000 1.0000
28.9200 592.0000 1.0000
28.9300 654.0000 1.0000
28.9400 630.0000 1.0000
28.9500 627.0000 1.0000
28.9600 631.0000 1.0000
28.9700 599.0000 1.0000
28.9800 608.0000 1.0000
28.9900 596.0000 1.0000
29.0000 635.0000 1.0000
29.0100 619.0000 1.0000
29.0200 576.0000 1.0000
29.0300 596.0000 1.0000
29.0400 611.0000 1.0000
29.0500 638.0000 1.0000
29.0600 628.0000 1.0000
29.0700 649.0000 1.0000
29.0800 580.0000 1.0000
29.0900 621.0000 1.0000
29.1000 579.0000 1.0000
29.1100 565.0000 1.0000
29.1200 592.0000 1.0000
29.1300 595.0000 1.0000
29.1400 629.0000 1.0000
29.1500 576.0000 1.0000
29.1600 616.0000 1.0000
29.1700 580.0000 1.0000
29.1800 602.0000 1.0000
29.1900 654.0000 1.0000
29.2000 619.0000 1.0000
29.2100 581.0000 1.0000
29.2200 669.0000 1.0000
29.2300 600.0000 1.0000
29.2400 577.0000 1.0000
29.2500 542.0000 1.0000
29.2600 603.0000 1.0000
29.2700 619.0000 1.0000
29.2800 603.0000 1.0000
29.2900 619.0000 1.0000
29.3000 623.0000 1.0000
29.3100 615.0000 1.0000
29.3200 607.0000 1.0000
29.3300 623.0000 1.0000
29.3400 611.0000 1.0000
29.3500 628.0000 1.0000
29.3600 618.0000 1.0000
29.3700 592.0000 1.0000
29.3800 616.0000 1.0000
29.3900 623.0000 1.0000
29.4000 611.0000 1.0000
29.4100 612.0000 1.0000
29.4200 580.0000 1.0000
29.4300 622.0000 1.0000
29.4400 619.0000 1.0000
29.4500 584.0000 1.0000
29.4600 588.0000 1.0000
29.4700 631.0000 1.0000
29.4800 607.0000 1.0000
29.4900 583.0000 1.0000
29.5000 632.0000 1.0000
29.5100 642.0000 1.0000
29.5200 631.0000 1.0000
29.5300 574.0000 1.0000
29.5400 609.0000 1.0000
29.5500 605.0000 1.0000
29.5600 606.0000 1.0000
29.5700 597.0000 1.0000
29.5800 590.0000 1.0000
29.5900 600.0000 1.0000
29.6000 615.0000 1.0000
29.6100 600.0000 1.0000
29.6200 603.0000 1.0000
29.6300 616.0000 1.0000
29.6400 622.0000 1.0000
29.6500 617.0000 1.0000
29.6600 579.0000 1.0000
29.6700 614.0000 1.0000
29.6800 611.0000 1.0000
29.6900 621.0000 1.0000
29.7000 576.0000 1.0000
29.7100 552.0000 1.0000
29.7200 622.0000 1.0000
29.7300 626.0000 1.0000
29.7400 586.0000 1.0000
29.7500 592.0000 1.0000
29.7600 606.0000 1.0000
29.7700 610.0000 1.0000
29.7800 614.0000 1.0000
29.7900 592.0000 1.0000
29.8000 614.0000 1.0000
29.8100 604.0000 1.0000
29.8200 615.0000 1.0000
29.8300 544.0000 1.0000
29.8400 546.0000 1.0000
29.8500 569.0000 1.0000
29.8600 549.0000 1.0000
29.8700 578.0000 1.0000
29.8800 593.0000 1.0000
29.8900 621.0000 1.0000
29.9000 585.0000 1.0000
29.9100 592.0000 1.0000
29.9200 588.0000 1.0000
29.9300 596.0000 1.0000
29.9400 582.0000 1.0000
29.9500 627.0000 1.0000
29.9600 582.0000 1.0000
29.9700 563.0000 1.0000
29.9800 562.0000 1.0000
29.9900 573.0000 1.0000
30.0000 624.0000 1.0000
30.0100 603.0000 1.0000
30.0200 571.0000 1.0000
30.0300 545.0000 1.0000
30.0400 583.0000 1.0000
30.0500 570.0000 1.0000
30.0600 582.0000 1.0000
30.0700 567.0000 1.0000
30.0800 595.0000 1.0000
30.0900 580.0000 1.0000
30.1000 606.0000 1.0000
30.1100 600.0000 1.0000
30.1200 601.0000 1.0000
30.1300 552.0000 1.0000
30.1400 578.0000 1.0000
30.1500 599.0000 1.0000
30.1600 579.0000 1.0000
30.1700 615.0000 1.0000
30.1800 585.0000 1.0000
30.1900 557.0000 1.0000
30.2000 582.0000 1.0000
30.2100 569.0000 1.0000
30.2200 562.0000 1.0000
30.2300 586.0000 1.0000
30.2400 618.0000 1.0000
30.2500 586.0000 1.0000
30.2600 590.0000 1.0000
30.2700 592.0000 1.0000
30.2800 574.0000 1.0000
30.2900 534.0000 1.0000
30.3000 576.0000 1.0000
30.3100 549.0000 1.0000
30.3200 531.0000 1.0000
30.3300 580.0000 1.0000
30.3400 545.0000 1.0000
30.3500 590.0000 1.0000
30.3600 572.0000 1.0000
30.3700 596.0000 1.0000
30.3800 582.0000 1.0000
30.3900 596.0000 1.0000
30.4000 597.0000 1.0000
30.4100 576.0000 1.0000
30.4200 556.0000 1.0000
30.4300 560.0000 1.0000
30.4400 525.0000 1.0000
30.4500 562.0000 1.0000
30.4600 606.0000 1.0000
30.4700 603.0000 1.0000
30.4800 571.0000 1.0000
30.4900 615.0000 1.0000
30.5000 556.0000 1.0000
30.5100 576.0000 1.0000
30.5200 567.0000 1.0000
30.5300 572.0000 1.0000
30.5400 553.0000 1.0000
30.5500 551.0000 1.0000
30.5600 582.0000 1.0000
30.5700 550.0000 1.0000
30.5800 596.0000 1.0000
30.5900 552.0000 1.0000
30.6000 606.0000 1.0000
30.6100 562.0000 1.0000
30.6200 612.0000 1.0000
30.6300 588.0000 1.0000
30.6400 584.0000 1.0000
30.6500 571.0000 1.0000
30.6600 563.0000 1.0000
30.6700 569.0000 1.0000
30.6800 615.0000 1.0000
30.6900 591.0000 1.0000
30.7000 607.0000 1.0000
30.7100 592.0000 1.0000
30.7200 565.0000 1.0000
30.7300 566.0000 1.0000
30.7400 552.0000 1.0000
30.7500 537.0000 1.0000
30.7600 575.0000 1.0000
30.7700 550.0000 1.0000
30.7800 567.0000 1.0000
30.7900 547.0000 1.0000
30.8000 577.0000 1.0000
30.8100 524.0000 1.0000
30.8200 571.0000 1.0000
30.8300 584.0000 1.0000
30.8400 590.0000 1.0000
30.8500 543.0000 1.0000
30.8600 588.0000 1.0000
30.8700 568.0000 1.0000
30.8800 577.0000 1.0000
30.8900 560.0000 1.0000
30.9000 578.0000 1.0000
30.9100 536.0000 1.0000
30.9200 583.0000 1.0000
30.9300 596.0000 1.0000
30.9400 603.0000 1.0000
30.9500 565.0000 1.0000
30.9600 539.0000 1.0000
30.9700 564.0000 1.0000
30.9800 578.0000 1.0000
30.9900 567.0000 1.0000
31.0000 548.0000 1.0000
31.0100 580.0000 1.0000
31.0200 558.0000 1.0000
31.0300 570.0000 1.0000
31.0400 545.0000 1.0000
31.0500 588.0000 1.0000
31.0600 563.0000 1.0000
31.0700 547.0000 1.0000
31.0800 570.0000 1.0000
31.0900 512.0000 1.0000
31.1000 550.0000 1.0000
31.1100 538.0000 1.0000
31.1200 552.0000 1.0000
31.1300 516.0000 1.0000
31.1400 566.0000 1.0000
31.1500 563.0000 1.0000
31.1600 553.0000 1.0000
31.1700 597.0000 1.0000
31.1800 567.0000 1.0000
31.1900 563.0000 1.0000
31.2000 580.0000 1.0000
31.2100 613.0000 1.0000
31.2200 536.0000 1.0000
31.2300 594.0000 1.0000
31.2400 573.0000 1.0000
31.2500 558.0000 1.0000
31.2600 557.0000 1.0000
31.2700 541.0000 1.0000
31.2800 560.0000 1.0000
31.2900 574.0000 1.0000
31.3000 574.0000 1.0000
31.3100 551.0000 1.0000
31.3200 544.0000 1.0000
31.3300 560.0000 1.0000
31.3400 552.0000 1.0000
31.3500 599.0000 1.0000
31.3600 531.0000 1.0000
31.3700 559.0000 1.0000
31.3800 562.0000 1.0000
31.3900 563.0000 1.0000
31.4000 529.0000 1.0000
31.4100 516.0000 1.0000
31.4200 547.0000 1.0000
31.4300 545.0000 1.0000
31.4400 560.0000 1.0000
31.4500 602.0000 1.0000
31.4600 595.0000 1.0000
31.4700 586.0000 1.0000
31.4800 549.0000 1.0000
31.4900 542.0000 1.0000
31.5000 554.0000 1.0000
31.5100 549.0000 1.0000
31.5200 498.0000 1.0000
31.5300 552.0000 1.0000
31.5400 524.0000 1.0000
31.5500 527.0000 1.0000
31.5600 551.0000 1.0000
31.5700 544.0000 1.0000
31.5800 548.0000 1.0000
31.5900 551.0000 1.0000
31.6000 559.0000 1.0000
31.6100 559.0000 1.0000
31.6200 542.0000 1.0000
31.6300 553.0000 1.0000
31.6400 534.0000 1.0000
31.6500 578.0000 1.0000
31.6600 559.0000 1.0000
31.6700 558.0000 1.0000
31.6800 527.0000 1.0000
31.6900 520.0000 1.0000
31.7000 550.0000 1.0000
31.7100 575.0000 1.0000
31.7200 522.0000 1.0000
31.7300 583.0000 1.0000
31.7400 535.0000 1.0000
31.7500 535.0000 1.0000
31.7600 538.0000 1.0000
31.7700 556.0000 1.0000
31.7800 554.0000 1.0000
31.7900 544.0000 1.0000
31.8000 574.0000 1.0000
31.8100 524.0000 1.0000
31.8200 561.0000 1.0000
31.8300 539.0000 1.0000
31.8400 553.0000 1.0000
31.8500 538.0000 1.0000
31.8600 531.0000 1.0000
31.8700 588.0000 1.0000
31.8800 548.0000 1.0000
31.8900 543.0000 1.0000
31.9000 548.0000 1.0000
31.9100 536.0000 1.0000
31.9200 552.0000 1.0000
31.9300 574.0000 1.0000
31.9400 523.0000 1.0000
31.9500 556.0000 1.0000
31.9600 565.0000 1.0000
31.9700 581.0000 1.0000
31.9800 556.0000 1.0000
31.9900 546.0000 1.0000
32.0000 552.0000 1.0000
32.0100 560.0000 1.0000
32.0200 538.0000 1.0000
32.0300 559.0000 1.0000
32.0400 564.0000 1.0000
32.0500 587.0000 1.0000
32.0600 550.0000 1.0000
32.0700 537.0000 1.0000
32.0800 563.0000 1.0000
32.0900 533.0000 1.0000
32.1000 514.0000 1.0000
32.1100 546.0000 1.0000
32.1200 569.0000 1.0000
32.1300 565.0000 1.0000
32.1400 531.0000 1.0000
32.1500 548.0000 1.0000
32.1600 542.0000 1.0000
32.1700 542.0000 1.0000
32.1800 514.0000 1.0000
32.1900 542.0000 1.0000
32.2000 528.0000 1.0000
32.2100 544.0000 1.0000
32.2200 532.0000 1.0000
32.2300 552.0000 1.0000
32.2400 527.0000 1.0000
32.2500 546.0000 1.0000
32.2600 549.0000 1.0000
32.2700 574.0000 1.0000
32.2800 549.0000 1.0000
32.2900 573.0000 1.0000
32.3000 563.0000 1.0000
32.3100 550.0000 1.0000
32.3200 546.0000 1.0000
32.3300 519.0000 1.0000
32.3400 535.0000 1.0000
32.3500 543.0000 1.0000
32.3600 531.0000 1.0000
32.3700 557.0000 1.0000
32.3800 583.0000 1.0000
32.3900 533.0000 1.0000
32.4000 574.0000 1.0000
32.4100 538.0000 1.0000
32.4200 503.0000 1.0000
32.4300 550.0000 1.0000
32.4400 542.0000 1.0000
32.4500 538.0000 1.0000
32.4600 530.0000 1.0000
32.4700 548.0000 1.0000
32.4800 545.0000 1.0000
32.4900 540.0000 1.0000
32.5000 535.0000 1.0000
32.5100 569.0000 1.0000
32.5200 564.0000 1.0000
32.5300 549.0000 1.0000
32.5400 563.0000 1.0000
32.5500 527.0000 1.0000
32.5600 545.0000 1.0000
32.5700 518.0000 1.0000
32.5800 522.0000 1.0000
32.5900 533.0000 1.0000
32.6000 527.0000 1.0000
32.6100 524.0000 1.0000
32.6200 550.0000 1.0000
32.6300 539.0000 1.0000
32.6400 545.0000 1.0000
32.6500 524.0000 1.0000
32.6600 507.0000 1.0000
32.6700 529.0000 1.0000
32.6800 486.0000 1.0000
32.6900 516.0000 1.0000
32.7000 532.0000 1.0000
32.7100 557.0000 1.0000
32.7200 505.0000 1.0000
32.7300 534.0000 1.0000
32.7400 542.0000 1.0000
32.7500 509.0000 1.0000
32.7600 557.0000 1.0000
32.7700 552.0000 1.0000
32.7800 530.0000 1.0000
32.7900 565.0000 1.0000
32.8000 542.0000 1.0000
32.8100 543.0000 1.0000
32.8200 522.0000 1.0000
32.8300 531.0000 1.0000
32.8400 538.0000 1.0000
32.8500 560.0000 1.0000
32.8600 496.0000 1.0000
32.8700 535.0000 1.0000
32.8800 549.0000 1.0000
32.8900 543.0000 1.0000
32.9000 517.0000 1.0000
32.9100 496.0000 1.0000
32.9200 524.0000 1.0000
32.9300 535.0000 1.0000
32.9400 546.0000 1.0000
32.9500 513.0000 1.0000
32.9600 526.0000 1.0000
32.9700 535.0000 1.0000
32.9800 516.0000 1.0000
32.9900 503.0000 1.0000
33.0000 530.0000 1.0000
33.0100 487.0000 1.0000
33.0200 551.0000 1.0000
33.0300 557.0000 1.0000
33.0400 541.0000 1.0000
33.0500 547.0000 1.0000
33.0600 548.0000 1.0000
33.0700 494.0000 1.0000
33.0800 515.0000 1.0000
33.0900 494.0000 1.0000
33.1000 489.0000 1.0000
33.1100 506.0000 1.0000
33.1200 503.0000 1.0000
33.1300 543.0000 1.0000
33.1400 504.0000 1.0000
33.1500 559.0000 1.0000
33.1600 512.0000 1.0000
33.1700 500.0000 1.0000
33.1800 505.0000 1.0000
33.1900 531.0000 1.0000
33.2000 493.0000 1.0000
33.2100 526.0000 1.0000
33.2200 526.0000 1.0000
33.2300 514.0000 1.0000
33.2400 515.0000 1.0000
33.2500 539.0000 1.0000
33.2600 555.0000 1.0000
33.2700 490.0000 1.0000
33.2800 506.0000 1.0000
33.2900 548.0000 1.0000
33.3000 514.0000 1.0000
33.3100 514.0000 1.0000
33.3200 533.0000 1.0000
33.3300 537.0000 1.0000
33.3400 505.0000 1.0000
33.3500 524.0000 1.0000
33.3600 528.0000 1.0000
33.3700 515.0000 1.0000
33.3800 492.0000 1.0000
33.3900 510.0000 1.0000
33.4000 525.0000 1.0000
33.4100 516.0000 1.0000
33.4200 536.0000 1.0000
33.4300 535.0000 1.0000
33.4400 494.0000 1.0000
33.4500 492.0000 1.0000
33.4600 543.0000 1.0000
33.4700 549.0000 1.0000
33.4800 507.0000 1.0000
33.4900 487.0000 1.0000
33.5000 524.0000 1.0000
33.5100 520.0000 1.0000
33.5200 516.0000 1.0000
33.5300 518.0000 1.0000
33.5400 470.0000 1.0000
33.5500 540.0000 1.0000
33.5600 530.0000 1.0000
33.5700 535.0000 1.0000
33.5800 561.0000 1.0000
33.5900 514.0000 1.0000
33.6000 512.0000 1.0000
33.6100 536.0000 1.0000
33.6200 546.0000 1.0000
33.6300 499.0000 1.0000
33.6400 543.0000 1.0000
33.6500 543.0000 1.0000
33.6600 567.0000 1.0000
33.6700 525.0000 1.0000
33.6800 558.0000 1.0000
33.6900 520.0000 1.0000
33.7000 525.0000 1.0000
33.7100 556.0000 1.0000
33.7200 509.0000 1.0000
33.7300 531.0000 1.0000
33.7400 519.0000 1.0000
33.7500 522.0000 1.0000
33.7600 523.0000 1.0000
33.7700 535.0000 1.0000
33.7800 537.0000 1.0000
33.7900 546.0000 1.0000
33.8000 555.0000 1.0000
33.8100 554.0000 1.0000
33.8200 533.0000 1.0000
33.8300 534.0000 1.0000
33.8400 580.0000 1.0000
33.8500 557.0000 1.0000
33.8600 518.0000 1.0000
33.8700 544.0000 1.0000
33.8800 548.0000 1.0000
33.8900 548.0000 1.0000
33.9000 564.0000 1.0000
33.9100 557.0000 1.0000
33.9200 553.0000 1.0000
33.9300 580.0000 1.0000
33.9400 583.0000 1.0000
33.9500 546.0000 1.0000
33.9600 552.0000 1.0000
33.9700 564.0000 1.0000
33.9800 583.0000 1.0000
33.9900 607.0000 1.0000
34.0000 608.0000 1.0000
34.0100 608.0000 1.0000
34.0200 572.0000 1.0000
34.0300 589.0000 1.0000
34.0400 592.0000 1.0000
34.0500 588.0000 1.0000
34.0600 630.0000 1.0000
34.0700 583.0000 1.0000
34.0800 589.0000 1.0000
34.0900 599.0000 1.0000
34.1000 601.0000 1.0000
34.1100 593.0000 1.0000
34.1200 585.0000 1.0000
34.1300 607.0000 1.0000
34.1400 610.0000 1.0000
34.1500 605.0000 1.0000
34.1600 602.0000 1.0000
34.1700 621.0000 1.0000
34.1800 582.0000 1.0000
34.1900 562.0000 1.0000
34.2000 597.0000 1.0000
34.2100 585.0000 1.0000
34.2200 602.0000 1.0000
34.2300 635.0000 1.0000
34.2400 598.0000 1.0000
34.2500 592.0000 1.0000
34.2600 663.0000 1.0000
34.2700 636.0000 1.0000
34.2800 643.0000 1.0000
34.2900 649.0000 1.0000
34.3000 701.0000 1.0000
34.3100 731.0000 1.0000
34.3200 713.0000 1.0000
34.3300 705.0000 1.0000
34.3400 732.0000 1.0000
34.3500 800.0000 1.0000
34.3600 764.0000 1.0000
34.3700 805.0000 1.0000
34.3800 812.0000 1.0000
34.3900 838.0000 1.0000
34.4000 894.0000 1.0000
34.4100 957.0000 1.0000
34.4200 997.0000 1.0000
34.4300 947.0000 1.0000
34.4400 979.0000 1.0000
34.4500 1070.0000 1.0000
34.4600 1142.0000 1.0000
34.4700 1105.0000 1.0000
34.4800 1223.0000 1.0000
34.4900 1268.0000 1.0000
34.5000 1287.0000 1.0000
34.5100 1313.0000 1.0000
34.5200 1341.0000 1.0000
34.5300 1281.0000 1.0000
34.5400 1331.0000 1.0000
34.5500 1367.0000 1.0000
34.5600 1274.0000 1.0000
34.5700 1277.0000 1.0000
34.5800 1282.0000 1.0000
34.5900 1184.0000 1.0000
34.6000 1179.0000 1.0000
34.6100 1175.0000 1.0000
34.6200 1142.0000 1.0000
34.6300 1110.0000 1.0000
34.6400 1040.0000 1.0000
34.6500 995.0000 1.0000
34.6600 913.0000 1.0000
34.6700 879.0000 1.0000
34.6800 874.0000 1.0000
34.6900 812.0000 1.0000
34.7000 789.0000 1.0000
34.7100 796.0000 1.0000
34.7200 719.0000 1.0000
34.7300 746.0000 1.0000
34.7400 706.0000 1.0000
34.7500 689.0000 1.0000
34.7600 697.0000 1.0000
34.7700 669.0000 1.0000
34.7800 677.0000 1.0000
34.7900 669.0000 1.0000
34.8000 651.0000 1.0000
34.8100 668.0000 1.0000
34.8200 670.0000 1.0000
34.8300 603.0000 1.0000
34.8400 597.0000 1.0000
34.8500 605.0000 1.0000
34.8600 599.0000 1.0000
34.8700 632.0000 1.0000
34.8800 562.0000 1.0000
34.8900 584.0000 1.0000
34.9000 575.0000 1.0000
34.9100 546.0000 1.0000
34.9200 543.0000 1.0000
34.9300 514.0000 1.0000
34.9400 566.0000 1.0000
34.9500 563.0000 1.0000
34.9600 526.0000 1.0000
34.9700 570.0000 1.0000
34.9800 574.0000 1.0000
34.9900 582.0000 1.0000
35.0000 546.0000 1.0000
35.0100 500.0000 1.0000
35.0200 495.0000 1.0000
35.0300 493.0000 1.0000
35.0400 533.0000 1.0000
35.0500 501.0000 1.0000
35.0600 498.0000 1.0000
35.0700 502.0000 1.0000
35.0800 507.0000 1.0000
35.0900 531.0000 1.0000
35.1000 508.0000 1.0000
35.1100 491.0000 1.0000
35.1200 505.0000 1.0000
35.1300 469.0000 1.0000
35.1400 491.0000 1.0000
35.1500 481.0000 1.0000
35.1600 495.0000 1.0000
35.1700 494.0000 1.0000
35.1800 485.0000 1.0000
35.1900 504.0000 1.0000
35.2000 531.0000 1.0000
35.2100 496.0000 1.0000
35.2200 482.0000 1.0000
35.2300 481.0000 1.0000
35.2400 483.0000 1.0000
35.2500 480.0000 1.0000
35.2600 468.0000 1.0000
35.2700 481.0000 1.0000
35.2800 501.0000 1.0000
35.2900 511.0000 1.0000
35.3000 491.0000 1.0000
35.3100 501.0000 1.0000
35.3200 495.0000 1.0000
35.3300 454.0000 1.0000
35.3400 489.0000 1.0000
35.3500 484.0000 1.0000
35.3600 474.0000 1.0000
35.3700 475.0000 1.0000
35.3800 472.0000 1.0000
35.3900 452.0000 1.0000
35.4000 517.0000 1.0000
35.4100 491.0000 1.0000
35.4200 467.0000 1.0000
35.4300 491.0000 1.0000
35.4400 483.0000 1.0000
35.4500 472.0000 1.0000
35.4600 487.0000 1.0000
35.4700 479.0000 1.0000
35.4800 509.0000 1.0000
35.4900 483.0000 1.0000
35.5000 444.0000 1.0000
35.5100 456.0000 1.0000
35.5200 487.0000 1.0000
35.5300 492.0000 1.0000
35.5400 477.0000 1.0000
35.5500 463.0000 1.0000
35.5600 480.0000 1.0000
35.5700 464.0000 1.0000
35.5800 465.0000 1.0000
35.5900 460.0000 1.0000
35.6000 467.0000 1.0000
35.6100 462.0000 1.0000
35.6200 512.0000 1.0000
35.6300 477.0000 1.0000
35.6400 505.0000 1.0000
35.6500 446.0000 1.0000
35.6600 484.0000 1.0000
35.6700 456.0000 1.0000
35.6800 439.0000 1.0000
35.6900 441.0000 1.0000
35.7000 470.0000 1.0000
35.7100 451.0000 1.0000
35.7200 472.0000 1.0000
35.7300 478.0000 1.0000
35.7400 478.0000 1.0000
35.7500 471.0000 1.0000
35.7600 477.0000 1.0000
35.7700 446.0000 1.0000
35.7800 476.0000 1.0000
35.7900 458.0000 1.0000
35.8000 473.0000 1.0000
35.8100 481.0000 1.0000
35.8200 494.0000 1.0000
35.8300 422.0000 1.0000
35.8400 448.0000 1.0000
35.8500 474.0000 1.0000
35.8600 432.0000 1.0000
35.8700 482.0000 1.0000
35.8800 456.0000 1.0000
35.8900 474.0000 1.0000
35.9000 514.0000 1.0000
35.9100 448.0000 1.0000
35.9200 496.0000 1.0000
35.9300 473.0000 1.0000
35.9400 481.0000 1.0000
35.9500 449.0000 1.0000
35.9600 453.0000 1.0000
35.9700 464.0000 1.0000
35.9800 480.0000 1.0000
35.9900 480.0000 1.0000
36.0000 479.0000 1.0000
36.0100 506.0000 1.0000
36.0200 477.0000 1.0000
36.0300 474.0000 1.0000
36.0400 460.0000 1.0000
36.0500 471.0000 1.0000
36.0600 509.0000 1.0000
36.0700 483.0000 1.0000
36.0800 497.0000 1.0000
36.0900 507.0000 1.0000
36.1000 521.0000 1.0000
36.1100 495.0000 1.0000
36.1200 483.0000 1.0000
36.1300 492.0000 1.0000
36.1400 525.0000 1.0000
36.1500 507.0000 1.0000
36.1600 464.0000 1.0000
36.1700 503.0000 1.0000
36.1800 512.0000 1.0000
36.1900 549.0000 1.0000
36.2000 522.0000 1.0000
36.2100 556.0000 1.0000
36.2200 524.0000 1.0000
36.2300 518.0000 1.0000
36.2400 534.0000 1.0000
36.2500 526.0000 1.0000
36.2600 561.0000 1.0000
36.2700 567.0000 1.0000
36.2800 556.0000 1.0000
36.2900 602.0000 1.0000
36.3000 580.0000 1.0000
36.3100 586.0000 1.0000
36.3200 580.0000 1.0000
36.3300 640.0000 1.0000
36.3400 623.0000 1.0000
36.3500 610.0000 1.0000
36.3600 667.0000 1.0000
36.3700 660.0000 1.0000
36.3800 716.0000 1.0000
36.3900 708.0000 1.0000
36.4000 738.0000 1.0000
36.4100 756.0000 1.0000
36.4200 769.0000 1.0000
36.4300 722.0000 1.0000
36.4400 806.0000 1.0000
36.4500 786.0000 1.0000
36.4600 810.0000 1.0000
36.4700 840.0000 1.0000
36.4800 739.0000 1.0000
36.4900 762.0000 1.0000
36.5000 733.0000 1.0000
36.5100 753.0000 1.0000
36.5200 728.0000 1.0000
36.5300 687.0000 1.0000
36.5400 661.0000 1.0000
36.5500 721.0000 1.0000
36.5600 641.0000 1.0000
36.5700 642.0000 1.0000
36.5800 644.0000 1.0000
36.5900 615.0000 1.0000
36.6000 605.0000 1.0000
36.6100 561.0000 1.0000
36.6200 569.0000 1.0000
36.6300 551.0000 1.0000
36.6400 537.0000 1.0000
36.6500 508.0000 1.0000
36.6600 521.0000 1.0000
36.6700 492.0000 1.0000
36.6800 506.0000 1.0000
36.6900 498.0000 1.0000
36.7000 493.0000 1.0000
36.7100 482.0000 1.0000
36.7200 490.0000 1.0000
36.7300 460.0000 1.0000
36.7400 472.0000 1.0000
36.7500 476.0000 1.0000
36.7600 461.0000 1.0000
36.7700 457.0000 1.0000
36.7800 410.0000 1.0000
36.7900 459.0000 1.0000
36.8000 479.0000 1.0000
36.8100 499.0000 1.0000
36.8200 432.0000 1.0000
36.8300 443.0000 1.0000
36.8400 424.0000 1.0000
36.8500 433.0000 1.0000
36.8600 404.0000 1.0000
36.8700 455.0000 1.0000
36.8800 453.0000 1.0000
36.8900 414.0000 1.0000
36.9000 433.0000 1.0000
36.9100 453.0000 1.0000
36.9200 446.0000 1.0000
36.9300 456.0000 1.0000
36.9400 421.0000 1.0000
36.9500 420.0000 1.0000
36.9600 444.0000 1.0000
36.9700 440.0000 1.0000
36.9800 412.0000 1.0000
36.9900 411.0000 1.0000
37.0000 424.0000 1.0000
37.0100 438.0000 1.0000
37.0200 422.0000 1.0000
37.0300 416.0000 1.0000
37.0400 407.0000 1.0000
37.0500 455.0000 1.0000
37.0600 425.0000 1.0000
37.0700 423.0000 1.0000
37.0800 454.0000 1.0000
37.0900 462.0000 1.0000
37.1000 408.0000 1.0000
37.1100 419.0000 1.0000
37.1200 456.0000 1.0000
37.1300 413.0000 1.0000
37.1400 412.0000 1.0000
37.1500 440.0000 1.0000
37.1600 425.0000 1.0000
37.1700 440.0000 1.0000
37.1800 428.0000 1.0000
37.1900 440.0000 1.0000
37.2000 457.0000 1.0000
37.2100 414.0000 1.0000
37.2200 411.0000 1.0000
37.2300 419.0000 1.0000
37.2400 456.0000 1.0000
37.2500 392.0000 1.0000
37.2600 404.0000 1.0000
37.2700 414.0000 1.0000
37.2800 434.0000 1.0000
37.2900 437.0000 1.0000
37.3000 432.0000 1.0000
37.3100 432.0000 1.0000
37.3200 427.0000 1.0000
37.3300 431.0000 1.0000
37.3400 455.0000 1.0000
37.3500 413.0000 1.0000
37.3600 446.0000 1.0000
37.3700 420.0000 1.0000
37.3800 401.0000 1.0000
37.3900 396.0000 1.0000
37.4000 415.0000 1.0000
37.4100 436.0000 1.0000
37.4200 426.0000 1.0000
37.4300 408.0000 1.0000
37.4400 421.0000 1.0000
37.4500 425.0000 1.0000
37.4600 430.0000 1.0000
37.4700 436.0000 1.0000
37.4800 414.0000 1.0000
37.4900 427.0000 1.0000
37.5000 448.0000 1.0000
37.5100 425.0000 1.0000
37.5200 409.0000 1.0000
37.5300 438.0000 1.0000
37.5400 415.0000 1.0000
37.5500 433.0000 1.0000
37.5600 442.0000 1.0000
37.5700 405.0000 1.0000
37.5800 418.0000 1.0000
37.5900 409.0000 1.0000
37.6000 414.0000 1.0000
37.6100 391.0000 1.0000
37.6200 383.0000 1.0000
37.6300 443.0000 1.0000
37.6400 419.0000 1.0000
37.6500 417.0000 1.0000
37.6600 410.0000 1.0000
37.6700 392.0000 1.0000
37.6800 431.0000 1.0000
37.6900 431.0000 1.0000
37.7000 438.0000 1.0000
37.7100 464.0000 1.0000
37.7200 448.0000 1.0000
37.7300 447.0000 1.0000
37.7400 406.0000 1.0000
37.7500 404.0000 1.0000
37.7600 447.0000 1.0000
37.7700 457.0000 1.0000
37.7800 461.0000 1.0000
37.7900 419.0000 1.0000
37.8000 427.0000 1.0000
37.8100 442.0000 1.0000
37.8200 435.0000 1.0000
37.8300 403.0000 1.0000
37.8400 436.0000 1.0000
37.8500 433.0000 1.0000
37.8600 412.0000 1.0000
37.8700 410.0000 1.0000
37.8800 393.0000 1.0000
37.8900 421.0000 1.0000
37.9000 457.0000 1.0000
37.9100 418.0000 1.0000
37.9200 444.0000 1.0000
37.9300 424.0000 1.0000
37.9400 422.0000 1.0000
37.9500 425.0000 1.0000
37.9600 436.0000 1.0000
37.9700 435.0000 1.0000
37.9800 422.0000 1.0000
37.9900 425.0000 1.0000
38.0000 430.0000 1.0000
38.0100 411.0000 1.0000
38.0200 448.0000 1.0000
38.0300 453.0000 1.0000
38.0400 400.0000 1.0000
38.0500 437.0000 1.0000
38.0600 478.0000 1.0000
38.0700 467.0000 1.0000
38.0800 455.0000 1.0000
38.0900 466.0000 1.0000
38.1000 457.0000 1.0000
38.1100 456.0000 1.0000
38.1200 465.0000 1.0000
38.1300 484.0000 1.0000
38.1400 487.0000 1.0000
38.1500 473.0000 1.0000
38.1600 479.0000 1.0000
38.1700 500.0000 1.0000
38.1800 488.0000 1.0000
38.1900 520.0000 1.0000
38.2000 504.0000 1.0000
38.2100 508.0000 1.0000
38.2200 507.0000 1.0000
38.2300 584.0000 1.0000
38.2400 573.0000 1.0000
38.2500 588.0000 1.0000
38.2600 617.0000 1.0000
38.2700 631.0000 1.0000
38.2800 623.0000 1.0000
38.2900 691.0000 1.0000
38.3000 685.0000 1.0000
38.3100 680.0000 1.0000
38.3200 716.0000 1.0000
38.3300 763.0000 1.0000
38.3400 745.0000 1.0000
38.3500 806.0000 1.0000
38.3600 807.0000 1.0000
38.3700 864.0000 1.0000
38.3800 934.0000 1.0000
38.3900 961.0000 1.0000
38.4000 1003.0000 1.0000
38.4100 1031.0000 1.0000
38.4200 1141.0000 1.0000
38.4300 1234.0000 1.0000
38.4400 1307.0000 1.0000
38.4500 1423.0000 1.0000
38.4600 1503.0000 1.0000
38.4700 1556.0000 1.0000
38.4800 1670.0000 1.0000
38.4900 1807.0000 1.0000
38.5000 1896.0000 1.0000
38.5100 1971.0000 1.0000
38.5200 2058.0000 1.0000
38.5300 2197.0000 1.0000
38.5400 2212.0000 1.0000
38.5500 2274.0000 1.0000
38.5600 2272.0000 1.0000
38.5700 2341.0000 1.0000
38.5800 2311.0000 1.0000
38.5900 2340.0000 1.0000
38.6000 2322.0000 1.0000
38.6100 2375.0000 1.0000
38.6200 2283.0000 1.0000
38.6300 2214.0000 1.0000
38.6400 2114.0000 1.0000
38.6500 2081.0000 1.0000
38.6600 1922.0000 1.0000
38.6700 1829.0000 1.0000
38.6800 1752.0000 1.0000
38.6900 1782.0000 1.0000
38.7000 1591.0000 1.0000
38.7100 1476.0000 1.0000
38.7200 1349.0000 1.0000
38.7300 1302.0000 1.0000
38.7400 1257.0000 1.0000
38.7500 1155.0000 1.0000
38.7600 1090.0000 1.0000
38.7700 988.0000 1.0000
38.7800 929.0000 1.0000
38.7900 882.0000 1.0000
38.8000 871.0000 1.0000
38.8100 817.0000 1.0000
38.8200 732.0000 1.0000
38.8300 732.0000 1.0000
38.8400 699.0000 1.0000
38.8500 678.0000 1.0000
38.8600 668.0000 1.0000
38.8700 634.0000 1.0000
38.8800 569.0000 1.0000
38.8900 573.0000 1.0000
38.9000 549.0000 1.0000
38.9100 544.0000 1.0000
38.9200 526.0000 1.0000
38.9300 496.0000 1.0000
38.9400 491.0000 1.0000
38.9500 496.0000 1.0000
38.9600 497.0000 1.0000
38.9700 504.0000 1.0000
38.9800 490.0000 1.0000
38.9900 497.0000 1.0000
39.0000 465.0000 1.0000
39.0100 460.0000 1.0000
39.0200 477.0000 1.0000
39.0300 451.0000 1.0000
39.0400 484.0000 1.0000
39.0500 450.0000 1.0000
39.0600 461.0000 1.0000
39.0700 444.0000 1.0000
39.0800 425.0000 1.0000
39.0900 386.0000 1.0000
39.1000 410.0000 1.0000
39.1100 421.0000 1.0000
39.1200 410.0000 1.0000
39.1300 365.0000 1.0000
39.1400 412.0000 1.0000
39.1500 373.0000 1.0000
39.1600 429.0000 1.0000
39.1700 400.0000 1.0000
39.1800 397.0000 1.0000
39.1900 396.0000 1.0000
39.2000 409.0000 1.0000
39.2100 418.0000 1.0000
39.2200 403.0000 1.0000
39.2300 393.0000 1.0000
39.2400 414.0000 1.0000
39.2500 402.0000 1.0000
39.2600 391.0000 1.0000
39.2700 369.0000 1.0000
39.2800 381.0000 1.0000
39.2900 360.0000 1.0000
39.3000 338.0000 1.0000
39.3100 380.0000 1.0000
39.3200 386.0000 1.0000
39.3300 367.0000 1.0000
39.3400 385.0000 1.0000
39.3500 386.0000 1.0000
39.3600 403.0000 1.0000
39.3700 395.0000 1.0000
39.3800 382.0000 1.0000
39.3900 385.0000 1.0000
39.4000 394.0000 1.0000
39.4100 394.0000 1.0000
39.4200 385.0000 1.0000
39.4300 372.0000 1.0000
39.4400 384.0000 1.0000
39.4500 399.0000 1.0000
39.4600 392.0000 1.0000
39.4700 360.0000 1.0000
39.4800 404.0000 1.0000
39.4900 356.0000 1.0000
39.5000 383.0000 1.0000
39.5100 412.0000 1.0000
39.5200 391.0000 1.0000
39.5300 417.0000 1.0000
39.5400 380.0000 1.0000
39.5500 373.0000 1.0000
39.5600 405.0000 1.0000
39.5700 393.0000 1.0000
39.5800 397.0000 1.0000
39.5900 399.0000 1.0000
39.6000 444.0000 1.0000
39.6100 403.0000 1.0000
39.6200 392.0000 1.0000
39.6300 403.0000 1.0000
39.6400 352.0000 1.0000
39.6500 386.0000 1.0000
39.6600 411.0000 1.0000
39.6700 397.0000 1.0000
39.6800 416.0000 1.0000
39.6900 390.0000 1.0000
39.7000 415.0000 1.0000
39.7100 376.0000 1.0000
39.7200 371.0000 1.0000
39.7300 407.0000 1.0000
39.7400 376.0000 1.0000
39.7500 377.0000 1.0000
39.7600 358.0000 1.0000
39.7700 355.0000 1.0000
39.7800 382.0000 1.0000
39.7900 370.0000 1.0000
39.8000 385.0000 1.0000
39.8100 365.0000 1.0000
39.8200 391.0000 1.0000
39.8300 385.0000 1.0000
39.8400 372.0000 1.0000
39.8500 359.0000 1.0000
39.8600 396.0000 1.0000
39.8700 395.0000 1.0000
39.8800 360.0000 1.0000
39.8900 363.0000 1.0000
39.9000 355.0000 1.0000
39.9100 367.0000 1.0000
39.9200 338.0000 1.0000
39.9300 368.0000 1.0000
39.9400 376.0000 1.0000
39.9500 346.0000 1.0000
39.9600 390.0000 1.0000
39.9700 366.0000 1.0000
39.9800 358.0000 1.0000
39.9900 368.0000 1.0000
40.0000 342.0000 1.0000
40.0100 399.0000 1.0000
40.0200 360.0000 1.0000
40.0300 355.0000 1.0000
40.0400 348.0000 1.0000
40.0500 394.0000 1.0000
40.0600 360.0000 1.0000
40.0700 343.0000 1.0000
40.0800 364.0000 1.0000
40.0900 336.0000 1.0000
40.1000 391.0000 1.0000
40.1100 382.0000 1.0000
40.1200 391.0000 1.0000
40.1300 378.0000 1.0000
40.1400 387.0000 1.0000
40.1500 379.0000 1.0000
40.1600 343.0000 1.0000
40.1700 371.0000 1.0000
40.1800 354.0000 1.0000
40.1900 377.0000 1.0000
40.2000 358.0000 1.0000
40.2100 367.0000 1.0000
40.2200 395.0000 1.0000
40.2300 404.0000 1.0000
40.2400 408.0000 1.0000
40.2500 357.0000 1.0000
40.2600 357.0000 1.0000
40.2700 369.0000 1.0000
40.2800 369.0000 1.0000
40.2900 371.0000 1.0000
40.3000 330.0000 1.0000
40.3100 370.0000 1.0000
40.3200 351.0000 1.0000
40.3300 357.0000 1.0000
40.3400 371.0000 1.0000
40.3500 346.0000 1.0000
40.3600 347.0000 1.0000
40.3700 362.0000 1.0000
40.3800 367.0000 1.0000
40.3900 315.0000 1.0000
40.4000 344.0000 1.0000
40.4100 355.0000 1.0000
40.4200 357.0000 1.0000
40.4300 350.0000 1.0000
40.4400 355.0000 1.0000
40.4500 364.0000 1.0000
40.4600 384.0000 1.0000
40.4700 382.0000 1.0000
40.4800 338.0000 1.0000
40.4900 355.0000 1.0000
40.5000 355.0000 1.0000
40.5100 347.0000 1.0000
40.5200 361.0000 1.0000
40.5300 366.0000 1.0000
40.5400 374.0000 1.0000
40.5500 361.0000 1.0000
40.5600 357.0000 1.0000
40.5700 328.0000 1.0000
40.5800 368.0000 1.0000
40.5900 352.0000 1.0000
40.6000 352.0000 1.0000
40.6100 363.0000 1.0000
40.6200 379.0000 1.0000
40.6300 359.0000 1.0000
40.6400 389.0000 1.0000
40.6500 376.0000 1.0000
40.6600 334.0000 1.0000
40.6700 335.0000 1.0000
40.6800 315.0000 1.0000
40.6900 359.0000 1.0000
40.7000 349.0000 1.0000
40.7100 355.0000 1.0000
40.7200 328.0000 1.0000
40.7300 342.0000 1.0000
40.7400 354.0000 1.0000
40.7500 354.0000 1.0000
40.7600 341.0000 1.0000
40.7700 348.0000 1.0000
40.7800 344.0000 1.0000
40.7900 337.0000 1.0000
40.8000 350.0000 1.0000
40.8100 361.0000 1.0000
40.8200 374.0000 1.0000
40.8300 364.0000 1.0000
40.8400 335.0000 1.0000
40.8500 345.0000 1.0000
40.8600 338.0000 1.0000
40.8700 344.0000 1.0000
40.8800 369.0000 1.0000
40.8900 387.0000 1.0000
40.9000 332.0000 1.0000
40.9100 326.0000 1.0000
40.9200 322.0000 1.0000
40.9300 305.0000 1.0000
40.9400 351.0000 1.0000
40.9500 343.0000 1.0000
40.9600 337.0000 1.0000
40.9700 390.0000 1.0000
40.9800 386.0000 1.0000
40.9900 373.0000 1.0000
41.0000 348.0000 1.0000
41.0100 333.0000 1.0000
41.0200 355.0000 1.0000
41.0300 361.0000 1.0000
41.0400 341.0000 1.0000
41.0500 330.0000 1.0000
41.0600 374.0000 1.0000
41.0700 335.0000 1.0000
41.0800 325.0000 1.0000
41.0900 327.0000 1.0000
41.1000 348.0000 1.0000
41.1100 341.0000 1.0000
41.1200 334.0000 1.0000
41.1300 347.0000 1.0000
41.1400 339.0000 1.0000
41.1500 335.0000 1.0000
41.1600 350.0000 1.0000
41.1700 333.0000 1.0000
41.1800 356.0000 1.0000
41.1900 359.0000 1.0000
41.2000 365.0000 1.0000
41.2100 325.0000 1.0000
41.2200 335.0000 1.0000
41.2300 355.0000 1.0000
41.2400 363.0000 1.0000
41.2500 354.0000 1.0000
41.2600 341.0000 1.0000
41.2700 356.0000 1.0000
41.2800 357.0000 1.0000
41.2900 372.0000 1.0000
41.3000 362.0000 1.0000
41.3100 362.0000 1.0000
41.3200 351.0000 1.0000
41.3300 343.0000 1.0000
41.3400 344.0000 1.0000
41.3500 345.0000 1.0000
41.3600 318.0000 1.0000
41.3700 336.0000 1.0000
41.3800 347.0000 1.0000
41.3900 345.0000 1.0000
41.4000 337.0000 1.0000
41.4100 346.0000 1.0000
41.4200 342.0000 1.0000
41.4300 324.0000 1.0000
41.4400 326.0000 1.0000
41.4500 368.0000 1.0000
41.4600 323.0000 1.0000
41.4700 323.0000 1.0000
41.4800 321.0000 1.0000
41.4900 367.0000 1.0000
41.5000 336.0000 1.0000
41.5100 323.0000 1.0000
41.5200 362.0000 1.0000
41.5300 354.0000 1.0000
41.5400 361.0000 1.0000
41.5500 356.0000 1.0000
41.5600 377.0000 1.0000
41.5700 362.0000 1.0000
41.5800 380.0000 1.0000
41.5900 364.0000 1.0000
41.6000 367.0000 1.0000
41.6100 352.0000 1.0000
41.6200 328.0000 1.0000
41.6300 334.0000 1.0000
41.6400 355.0000 1.0000
41.6500 364.0000 1.0000
41.6600 345.0000 1.0000
41.6700 329.0000 1.0000
41.6800 364.0000 1.0000
41.6900 375.0000 1.0000
41.7000 350.0000 1.0000
41.7100 382.0000 1.0000
41.7200 351.0000 1.0000
41.7300 349.0000 1.0000
41.7400 342.0000 1.0000
41.7500 332.0000 1.0000
41.7600 330.0000 1.0000
41.7700 367.0000 1.0000
41.7800 347.0000 1.0000
41.7900 349.0000 1.0000
41.8000 329.0000 1.0000
41.8100 367.0000 1.0000
41.8200 357.0000 1.0000
41.8300 361.0000 1.0000
41.8400 359.0000 1.0000
41.8500 358.0000 1.0000
41.8600 344.0000 1.0000
41.8700 338.0000 1.0000
41.8800 336.0000 1.0000
41.8900 356.0000 1.0000
41.9000 345.0000 1.0000
41.9100 328.0000 1.0000
41.9200 339.0000 1.0000
41.9300 345.0000 1.0000
41.9400 346.0000 1.0000
41.9500 327.0000 1.0000
41.9600 312.0000 1.0000
41.9700 340.0000 1.0000
41.9800 343.0000 1.0000
41.9900 347.0000 1.0000
42.0000 366.0000 1.0000
42.0100 354.0000 1.0000
42.0200 326.0000 1.0000
42.0300 341.0000 1.0000
42.0400 356.0000 1.0000
42.0500 349.0000 1.0000
42.0600 348.0000 1.0000
42.0700 337.0000 1.0000
42.0800 342.0000 1.0000
42.0900 384.0000 1.0000
42.1000 335.0000 1.0000
42.1100 362.0000 1.0000
42.1200 369.0000 1.0000
42.1300 347.0000 1.0000
42.1400 329.0000 1.0000
42.1500 320.0000 1.0000
42.1600 346.0000 1.0000
42.1700 348.0000 1.0000
42.1800 334.0000 1.0000
42.1900 327.0000 1.0000
42.2000 321.0000 1.0000
42.2100 322.0000 1.0000
42.2200 333.0000 1.0000
42.2300 315.0000 1.0000
42.2400 359.0000 1.0000
42.2500 355.0000 1.0000
42.2600 340.0000 1.0000
42.2700 368.0000 1.0000
42.2800 339.0000 1.0000
42.2900 335.0000 1.0000
42.3000 348.0000 1.0000
42.3100 317.0000 1.0000
42.3200 340.0000 1.0000
42.3300 349.0000 1.0000
42.3400 329.0000 1.0000
42.3500 353.0000 1.0000
42.3600 376.0000 1.0000
42.3700 337.0000 1.0000
42.3800 352.0000 1.0000
42.3900 335.0000 1.0000
42.4000 362.0000 1.0000
42.4100 326.0000 1.0000
42.4200 329.0000 1.0000
42.4300 342.0000 1.0000
42.4400 361.0000 1.0000
42.4500 328.0000 1.0000
42.4600 334.0000 1.0000
42.4700 333.0000 1.0000
42.4800 339.0000 1.0000
42.4900 365.0000 1.0000
42.5000 369.0000 1.0000
42.5100 349.0000 1.0000
42.5200 345.0000 1.0000
42.5300 355.0000 1.0000
42.5400 331.0000 1.0000
42.5500 331.0000 1.0000
42.5600 346.0000 1.0000
42.5700 329.0000 1.0000
42.5800 319.0000 1.0000
42.5900 337.0000 1.0000
42.6000 332.0000 1.0000
42.6100 350.0000 1.0000
42.6200 320.0000 1.0000
42.6300 355.0000 1.0000
42.6400 315.0000 1.0000
42.6500 330.0000 1.0000
42.6600 327.0000 1.0000
42.6700 323.0000 1.0000
42.6800 320.0000 1.0000
42.6900 315.0000 1.0000
42.7000 344.0000 1.0000
42.7100 366.0000 1.0000
42.7200 340.0000 1.0000
42.7300 352.0000 1.0000
42.7400 333.0000 1.0000
42.7500 346.0000 1.0000
42.7600 364.0000 1.0000
42.7700 340.0000 1.0000
42.7800 329.0000 1.0000
42.7900 342.0000 1.0000
42.8000 309.0000 1.0000
42.8100 325.0000 1.0000
42.8200 311.0000 1.0000
42.8300 331.0000 1.0000
42.8400 334.0000 1.0000
42.8500 344.0000 1.0000
42.8600 322.0000 1.0000
42.8700 323.0000 1.0000
42.8800 322.0000 1.0000
42.8900 378.0000 1.0000
42.9000 357.0000 1.0000
42.9100 340.0000 1.0000
42.9200 356.0000 1.0000
42.9300 348.0000 1.0000
42.9400 367.0000 1.0000
42.9500 368.0000 1.0000
42.9600 338.0000 1.0000
42.9700 340.0000 1.0000
42.9800 324.0000 1.0000
42.9900 366.0000 1.0000
43.0000 361.0000 1.0000
43.0100 346.0000 1.0000
43.0200 339.0000 1.0000
43.0300 364.0000 1.0000
43.0400 359.0000 1.0000
43.0500 390.0000 1.0000
43.0600 322.0000 1.0000
43.0700 346.0000 1.0000
43.0800 358.0000 1.0000
43.0900 355.0000 1.0000
43.1000 350.0000 1.0000
43.1100 341.0000 1.0000
43.1200 367.0000 1.0000
43.1300 325.0000 1.0000
43.1400 334.0000 1.0000
43.1500 368.0000 1.0000
43.1600 348.0000 1.0000
43.1700 358.0000 1.0000
43.1800 366.0000 1.0000
43.1900 328.0000 1.0000
43.2000 369.0000 1.0000
43.2100 346.0000 1.0000
43.2200 360.0000 1.0000
43.2300 376.0000 1.0000
43.2400 351.0000 1.0000
43.2500 363.0000 1.0000
43.2600 368.0000 1.0000
43.2700 354.0000 1.0000
43.2800 395.0000 1.0000
43.2900 392.0000 1.0000
43.3000 373.0000 1.0000
43.3100 367.0000 1.0000
43.3200 356.0000 1.0000
43.3300 337.0000 1.0000
43.3400 358.0000 1.0000
43.3500 354.0000 1.0000
43.3600 382.0000 1.0000
43.3700 360.0000 1.0000
43.3800 353.0000 1.0000
43.3900 341.0000 1.0000
43.4000 377.0000 1.0000
43.4100 340.0000 1.0000
43.4200 346.0000 1.0000
43.4300 356.0000 1.0000
43.4400 355.0000 1.0000
43.4500 344.0000 1.0000
43.4600 350.0000 1.0000
43.4700 367.0000 1.0000
43.4800 364.0000 1.0000
43.4900 340.0000 1.0000
43.5000 348.0000 1.0000
43.5100 328.0000 1.0000
43.5200 363.0000 1.0000
43.5300 358.0000 1.0000
43.5400 352.0000 1.0000
43.5500 339.0000 1.0000
43.5600 333.0000 1.0000
43.5700 327.0000 1.0000
43.5800 337.0000 1.0000
43.5900 358.0000 1.0000
43.6000 356.0000 1.0000
43.6100 316.0000 1.0000
43.6200 331.0000 1.0000
43.6300 354.0000 1.0000
43.6400 358.0000 1.0000
43.6500 338.0000 1.0000
43.6600 350.0000 1.0000
43.6700 325.0000 1.0000
43.6800 308.0000 1.0000
43.6900 328.0000 1.0000
43.7000 344.0000 1.0000
43.7100 353.0000 1.0000
43.7200 373.0000 1.0000
43.7300 319.0000 1.0000
43.7400 318.0000 1.0000
43.7500 338.0000 1.0000
43.7600 345.0000 1.0000
43.7700 321.0000 1.0000
43.7800 317.0000 1.0000
43.7900 352.0000 1.0000
43.8000 333.0000 1.0000
43.8100 332.0000 1.0000
43.8200 341.0000 1.0000
43.8300 299.0000 1.0000
43.8400 323.0000 1.0000
43.8500 309.0000 1.0000
43.8600 311.0000 1.0000
43.8700 335.0000 1.0000
43.8800 334.0000 1.0000
43.8900 327.0000 1.0000
43.9000 333.0000 1.0000
43.9100 332.0000 1.0000
43.9200 338.0000 1.0000
43.9300 308.0000 1.0000
43.9400 337.0000 1.0000
43.9500 315.0000 1.0000
43.9600 328.0000 1.0000
43.9700 334.0000 1.0000
43.9800 349.0000 1.0000
43.9900 319.0000 1.0000
44.0000 338.0000 1.0000
44.0100 343.0000 1.0000
44.0200 313.0000 1.0000
44.0300 314.0000 1.0000
44.0400 314.0000 1.0000
44.0500 327.0000 1.0000
44.0600 352.0000 1.0000
44.0700 343.0000 1.0000
44.0800 338.0000 1.0000
44.0900 336.0000 1.0000
44.1000 328.0000 1.0000
44.1100 328.0000 1.0000
44.1200 302.0000 1.0000
44.1300 315.0000 1.0000
44.1400 364.0000 1.0000
44.1500 350.0000 1.0000
44.1600 368.0000 1.0000
44.1700 337.0000 1.0000
44.1800 324.0000 1.0000
44.1900 336.0000 1.0000
44.2000 345.0000 1.0000
44.2100 336.0000 1.0000
44.2200 338.0000 1.0000
44.2300 324.0000 1.0000
44.2400 322.0000 1.0000
44.2500 315.0000 1.0000
44.2600 323.0000 1.0000
44.2700 331.0000 1.0000
44.2800 305.0000 1.0000
44.2900 326.0000 1.0000
44.3000 311.0000 1.0000
44.3100 330.0000 1.0000
44.3200 332.0000 1.0000
44.3300 331.0000 1.0000
44.3400 316.0000 1.0000
44.3500 325.0000 1.0000
44.3600 339.0000 1.0000
44.3700 344.0000 1.0000
44.3800 353.0000 1.0000
44.3900 309.0000 1.0000
44.4000 329.0000 1.0000
44.4100 309.0000 1.0000
44.4200 326.0000 1.0000
44.4300 349.0000 1.0000
44.4400 332.0000 1.0000
44.4500 327.0000 1.0000
44.4600 333.0000 1.0000
44.4700 345.0000 1.0000
44.4800 334.0000 1.0000
44.4900 325.0000 1.0000
44.5000 313.0000 1.0000
44.5100 319.0000 1.0000
44.5200 356.0000 1.0000
44.5300 371.0000 1.0000
44.5400 323.0000 1.0000
44.5500 329.0000 1.0000
44.5600 329.0000 1.0000
44.5700 334.0000 1.0000
44.5800 332.0000 1.0000
44.5900 342.0000 1.0000
44.6000 335.0000 1.0000
44.6100 352.0000 1.0000
44.6200 316.0000 1.0000
44.6300 325.0000 1.0000
44.6400 322.0000 1.0000
44.6500 331.0000 1.0000
44.6600 312.0000 1.0000
44.6700 385.0000 1.0000
44.6800 356.0000 1.0000
44.6900 331.0000 1.0000
44.7000 344.0000 1.0000
44.7100 325.0000 1.0000
44.7200 339.0000 1.0000
44.7300 345.0000 1.0000
44.7400 299.0000 1.0000
44.7500 303.0000 1.0000
44.7600 328.0000 1.0000
44.7700 330.0000 1.0000
44.7800 304.0000 1.0000
44.7900 328.0000 1.0000
44.8000 310.0000 1.0000
44.8100 339.0000 1.0000
44.8200 342.0000 1.0000
44.8300 316.0000 1.0000
44.8400 317.0000 1.0000
44.8500 347.0000 1.0000
44.8600 345.0000 1.0000
44.8700 324.0000 1.0000
44.8800 311.0000 1.0000
44.8900 347.0000 1.0000
44.9000 334.0000 1.0000
44.9100 311.0000 1.0000
44.9200 303.0000 1.0000
44.9300 330.0000 1.0000
44.9400 311.0000 1.0000
44.9500 324.0000 1.0000
44.9600 309.0000 1.0000
44.9700 341.0000 1.0000
44.9800 334.0000 1.0000
44.9900 333.0000 1.0000
45.0000 318.0000 1.0000
45.0100 315.0000 1.0000
45.0200 310.0000 1.0000
45.0300 299.0000 1.0000
45.0400 323.0000 1.0000
45.0500 339.0000 1.0000
45.0600 358.0000 1.0000
45.0700 340.0000 1.0000
45.0800 342.0000 1.0000
45.0900 297.0000 1.0000
45.1000 351.0000 1.0000
45.1100 346.0000 1.0000
45.1200 322.0000 1.0000
45.1300 313.0000 1.0000
45.1400 297.0000 1.0000
45.1500 346.0000 1.0000
45.1600 348.0000 1.0000
45.1700 313.0000 1.0000
45.1800 322.0000 1.0000
45.1900 319.0000 1.0000
45.2000 337.0000 1.0000
45.2100 340.0000 1.0000
45.2200 322.0000 1.0000
45.2300 304.0000 1.0000
45.2400 321.0000 1.0000
45.2500 318.0000 1.0000
45.2600 295.0000 1.0000
45.2700 317.0000 1.0000
45.2800 305.0000 1.0000
45.2900 306.0000 1.0000
45.3000 303.0000 1.0000
45.3100 316.0000 1.0000
45.3200 308.0000 1.0000
45.3300 327.0000 1.0000
45.3400 321.0000 1.0000
45.3500 328.0000 1.0000
45.3600 336.0000 1.0000
45.3700 321.0000 1.0000
45.3800 299.0000 1.0000
45.3900 296.0000 1.0000
45.4000 344.0000 1.0000
45.4100 308.0000 1.0000
45.4200 324.0000 1.0000
45.4300 295.0000 1.0000
45.4400 303.0000 1.0000
45.4500 319.0000 1.0000
45.4600 314.0000 1.0000
45.4700 327.0000 1.0000
45.4800 344.0000 1.0000
45.4900 334.0000 1.0000
45.5000 304.0000 1.0000
45.5100 323.0000 1.0000
45.5200 306.0000 1.0000
45.5300 319.0000 1.0000
45.5400 314.0000 1.0000
45.5500 319.0000 1.0000
45.5600 302.0000 1.0000
45.5700 307.0000 1.0000
45.5800 319.0000 1.0000
45.5900 331.0000 1.0000
45.6000 312.0000 1.0000
45.6100 297.0000 1.0000
45.6200 302.0000 1.0000
45.6300 304.0000 1.0000
45.6400 341.0000 1.0000
45.6500 326.0000 1.0000
45.6600 314.0000 1.0000
45.6700 320.0000 1.0000
45.6800 335.0000 1.0000
45.6900 341.0000 1.0000
45.7000 332.0000 1.0000
45.7100 305.0000 1.0000
45.7200 314.0000 1.0000
45.7300 319.0000 1.0000
45.7400 309.0000 1.0000
45.7500 299.0000 1.0000
45.7600 318.0000 1.0000
45.7700 292.0000 1.0000
45.7800 310.0000 1.0000
45.7900 322.0000 1.0000
45.8000 309.0000 1.0000
45.8100 329.0000 1.0000
45.8200 298.0000 1.0000
45.8300 310.0000 1.0000
45.8400 305.0000 1.0000
45.8500 337.0000 1.0000
45.8600 312.0000 1.0000
45.8700 313.0000 1.0000
45.8800 292.0000 1.0000
45.8900 320.0000 1.0000
45.9000 343.0000 1.0000
45.9100 321.0000 1.0000
45.9200 326.0000 1.0000
45.9300 322.0000 1.0000
45.9400 314.0000 1.0000
45.9500 324.0000 1.0000
45.9600 311.0000 1.0000
45.9700 344.0000 1.0000
45.9800 317.0000 1.0000
45.9900 296.0000 1.0000
46.0000 291.0000 1.0000
46.0100 307.0000 1.0000
46.0200 307.0000 1.0000
46.0300 309.0000 1.0000
46.0400 329.0000 1.0000
46.0500 324.0000 1.0000
46.0600 342.0000 1.0000
46.0700 312.0000 1.0000
46.0800 318.0000 1.0000
46.0900 325.0000 1.0000
46.1000 324.0000 1.0000
46.1100 328.0000 1.0000
46.1200 326.0000 1.0000
46.1300 325.0000 1.0000
46.1400 319.0000 1.0000
46.1500 314.0000 1.0000
46.1600 326.0000 1.0000
46.1700 321.0000 1.0000
46.1800 316.0000 1.0000
46.1900 346.0000 1.0000
46.2000 332.0000 1.0000
46.2100 322.0000 1.0000
46.2200 304.0000 1.0000
46.2300 303.0000 1.0000
46.2400 332.0000 1.0000
46.2500 305.0000 1.0000
46.2600 297.0000 1.0000
46.2700 324.0000 1.0000
46.2800 320.0000 1.0000
46.2900 335.0000 1.0000
46.3000 322.0000 1.0000
46.3100 336.0000 1.0000
46.3200 315.0000 1.0000
46.3300 320.0000 1.0000
46.3400 294.0000 1.0000
46.3500 364.0000 1.0000
46.3600 330.0000 1.0000
46.3700 335.0000 1.0000
46.3800 314.0000 1.0000
46.3900 305.0000 1.0000
46.4000 330.0000 1.0000
46.4100 343.0000 1.0000
46.4200 316.0000 1.0000
46.4300 333.0000 1.0000
46.4400 312.0000 1.0000
46.4500 304.0000 1.0000
46.4600 299.0000 1.0000
46.4700 284.0000 1.0000
46.4800 314.0000 1.0000
46.4900 324.0000 1.0000
46.5000 312.0000 1.0000
46.5100 315.0000 1.0000
46.5200 324.0000 1.0000
46.5300 321.0000 1.0000
46.5400 322.0000 1.0000
46.5500 294.0000 1.0000
46.5600 314.0000 1.0000
46.5700 307.0000 1.0000
46.5800 320.0000 1.0000
46.5900 311.0000 1.0000
46.6000 310.0000 1.0000
46.6100 297.0000 1.0000
46.6200 303.0000 1.0000
46.6300 309.0000 1.0000
46.6400 307.0000 1.0000
46.6500 324.0000 1.0000
46.6600 326.0000 1.0000
46.6700 307.0000 1.0000
46.6800 288.0000 1.0000
46.6900 298.0000 1.0000
46.7000 318.0000 1.0000
46.7100 328.0000 1.0000
46.7200 304.0000 1.0000
46.7300 313.0000 1.0000
46.7400 315.0000 1.0000
46.7500 309.0000 1.0000
46.7600 323.0000 1.0000
46.7700 304.0000 1.0000
46.7800 333.0000 1.0000
46.7900 304.0000 1.0000
46.8000 293.0000 1.0000
46.8100 322.0000 1.0000
46.8200 308.0000 1.0000
46.8300 303.0000 1.0000
46.8400 298.0000 1.0000
46.8500 330.0000 1.0000
46.8600 307.0000 1.0000
46.8700 307.0000 1.0000
46.8800 318.0000 1.0000
46.8900 300.0000 1.0000
46.9000 287.0000 1.0000
46.9100 304.0000 1.0000
46.9200 319.0000 1.0000
46.9300 316.0000 1.0000
46.9400 346.0000 1.0000
46.9500 348.0000 1.0000
46.9600 311.0000 1.0000
46.9700 310.0000 1.0000
46.9800 335.0000 1.0000
46.9900 344.0000 1.0000
47.0000 324.0000 1.0000
47.0100 332.0000 1.0000
47.0200 293.0000 1.0000
47.0300 312.0000 1.0000
47.0400 369.0000 1.0000
47.0500 302.0000 1.0000
47.0600 308.0000 1.0000
47.0700 337.0000 1.0000
47.0800 342.0000 1.0000
47.0900 340.0000 1.0000
47.1000 336.0000 1.0000
47.1100 299.0000 1.0000
47.1200 326.0000 1.0000
47.1300 309.0000 1.0000
47.1400 328.0000 1.0000
47.1500 307.0000 1.0000
47.1600 315.0000 1.0000
47.1700 301.0000 1.0000
47.1800 303.0000 1.0000
47.1900 321.0000 1.0000
47.2000 320.0000 1.0000
47.2100 336.0000 1.0000
47.2200 321.0000 1.0000
47.2300 330.0000 1.0000
47.2400 324.0000 1.0000
47.2500 289.0000 1.0000
47.2600 314.0000 1.0000
47.2700 303.0000 1.0000
47.2800 316.0000 1.0000
47.2900 299.0000 1.0000
47.3000 310.0000 1.0000
47.3100 318.0000 1.0000
47.3200 312.0000 1.0000
47.3300 319.0000 1.0000
47.3400 330.0000 1.0000
47.3500 306.0000 1.0000
47.3600 302.0000 1.0000
47.3700 330.0000 1.0000
47.3800 343.0000 1.0000
47.3900 302.0000 1.0000
47.4000 318.0000 1.0000
47.4100 314.0000 1.0000
47.4200 313.0000 1.0000
47.4300 316.0000 1.0000
47.4400 329.0000 1.0000
47.4500 338.0000 1.0000
47.4600 312.0000 1.0000
47.4700 308.0000 1.0000
47.4800 317.0000 1.0000
47.4900 289.0000 1.0000
47.5000 320.0000 1.0000
47.5100 317.0000 1.0000
47.5200 322.0000 1.0000
47.5300 294.0000 1.0000
47.5400 282.0000 1.0000
47.5500 298.0000 1.0000
47.5600 281.0000 1.0000
47.5700 299.0000 1.0000
47.5800 314.0000 1.0000
47.5900 304.0000 1.0000
47.6000 309.0000 1.0000
47.6100 327.0000 1.0000
47.6200 310.0000 1.0000
47.6300 323.0000 1.0000
47.6400 308.0000 1.0000
47.6500 289.0000 1.0000
47.6600 312.0000 1.0000
47.6700 308.0000 1.0000
47.6800 297.0000 1.0000
47.6900 336.0000 1.0000
47.7000 292.0000 1.0000
47.7100 297.0000 1.0000
47.7200 301.0000 1.0000
47.7300 322.0000 1.0000
47.7400 304.0000 1.0000
47.7500 303.0000 1.0000
47.7600 306.0000 1.0000
47.7700 290.0000 1.0000
47.7800 291.0000 1.0000
47.7900 308.0000 1.0000
47.8000 278.0000 1.0000
47.8100 329.0000 1.0000
47.8200 302.0000 1.0000
47.8300 310.0000 1.0000
47.8400 304.0000 1.0000
47.8500 322.0000 1.0000
47.8600 324.0000 1.0000
47.8700 292.0000 1.0000
47.8800 292.0000 1.0000
47.8900 281.0000 1.0000
47.9000 324.0000 1.0000
47.9100 297.0000 1.0000
47.9200 292.0000 1.0000
47.9300 294.0000 1.0000
47.9400 320.0000 1.0000
47.9500 298.0000 1.0000
47.9600 326.0000 1.0000
47.9700 296.0000 1.0000
47.9800 305.0000 1.0000
47.9900 307.0000 1.0000
48.0000 296.0000 1.0000
48.0100 298.0000 1.0000
48.0200 331.0000 1.0000
48.0300 297.0000 1.0000
48.0400 317.0000 1.0000
48.0500 300.0000 1.0000
48.0600 298.0000 1.0000
48.0700 289.0000 1.0000
48.0800 312.0000 1.0000
48.0900 305.0000 1.0000
48.1000 293.0000 1.0000
48.1100 314.0000 1.0000
48.1200 323.0000 1.0000
48.1300 312.0000 1.0000
48.1400 293.0000 1.0000
48.1500 310.0000 1.0000
48.1600 325.0000 1.0000
48.1700 283.0000 1.0000
48.1800 319.0000 1.0000
48.1900 316.0000 1.0000
48.2000 308.0000 1.0000
48.2100 286.0000 1.0000
48.2200 328.0000 1.0000
48.2300 315.0000 1.0000
48.2400 290.0000 1.0000
48.2500 308.0000 1.0000
48.2600 291.0000 1.0000
48.2700 291.0000 1.0000
48.2800 292.0000 1.0000
48.2900 325.0000 1.0000
48.3000 313.0000 1.0000
48.3100 297.0000 1.0000
48.3200 308.0000 1.0000
48.3300 315.0000 1.0000
48.3400 297.0000 1.0000
48.3500 283.0000 1.0000
48.3600 255.0000 1.0000
48.3700 297.0000 1.0000
48.3800 292.0000 1.0000
48.3900 309.0000 1.0000
48.4000 299.0000 1.0000
48.4100 274.0000 1.0000
48.4200 301.0000 1.0000
48.4300 332.0000 1.0000
48.4400 318.0000 1.0000
48.4500 273.0000 1.0000
48.4600 293.0000 1.0000
48.4700 293.0000 1.0000
48.4800 287.0000 1.0000
48.4900 341.0000 1.0000
48.5000 306.0000 1.0000
48.5100 288.0000 1.0000
48.5200 286.0000 1.0000
48.5300 309.0000 1.0000
48.5400 291.0000 1.0000
48.5500 306.0000 1.0000
48.5600 308.0000 1.0000
48.5700 299.0000 1.0000
48.5800 297.0000 1.0000
48.5900 269.0000 1.0000
48.6000 282.0000 1.0000
48.6100 306.0000 1.0000
48.6200 312.0000 1.0000
48.6300 276.0000 1.0000
48.6400 293.0000 1.0000
48.6500 292.0000 1.0000
48.6600 290.0000 1.0000
48.6700 303.0000 1.0000
48.6800 309.0000 1.0000
48.6900 270.0000 1.0000
48.7000 313.0000 1.0000
48.7100 282.0000 1.0000
48.7200 309.0000 1.0000
48.7300 322.0000 1.0000
48.7400 272.0000 1.0000
48.7500 316.0000 1.0000
48.7600 321.0000 1.0000
48.7700 308.0000 1.0000
48.7800 315.0000 1.0000
48.7900 288.0000 1.0000
48.8000 287.0000 1.0000
48.8100 315.0000 1.0000
48.8200 319.0000 1.0000
48.8300 298.0000 1.0000
48.8400 290.0000 1.0000
48.8500 295.0000 1.0000
48.8600 308.0000 1.0000
48.8700 286.0000 1.0000
48.8800 300.0000 1.0000
48.8900 291.0000 1.0000
48.9000 293.0000 1.0000
48.9100 285.0000 1.0000
48.9200 308.0000 1.0000
48.9300 325.0000 1.0000
48.9400 275.0000 1.0000
48.9500 300.0000 1.0000
48.9600 309.0000 1.0000
48.9700 283.0000 1.0000
48.9800 297.0000 1.0000
48.9900 321.0000 1.0000
49.0000 285.0000 1.0000
49.0100 298.0000 1.0000
49.0200 299.0000 1.0000
49.0300 300.0000 1.0000
49.0400 291.0000 1.0000
49.0500 288.0000 1.0000
49.0600 305.0000 1.0000
49.0700 291.0000 1.0000
49.0800 300.0000 1.0000
49.0900 310.0000 1.0000
49.1000 306.0000 1.0000
49.1100 289.0000 1.0000
49.1200 295.0000 1.0000
49.1300 281.0000 1.0000
49.1400 265.0000 1.0000
49.1500 295.0000 1.0000
49.1600 283.0000 1.0000
49.1700 287.0000 1.0000
49.1800 300.0000 1.0000
49.1900 300.0000 1.0000
49.2000 299.0000 1.0000
49.2100 268.0000 1.0000
49.2200 285.0000 1.0000
49.2300 305.0000 1.0000
49.2400 298.0000 1.0000
49.2500 289.0000 1.0000
49.2600 290.0000 1.0000
49.2700 311.0000 1.0000
49.2800 295.0000 1.0000
49.2900 305.0000 1.0000
49.3000 297.0000 1.0000
49.3100 323.0000 1.0000
49.3200 300.0000 1.0000
49.3300 298.0000 1.0000
49.3400 319.0000 1.0000
49.3500 286.0000 1.0000
49.3600 297.0000 1.0000
49.3700 321.0000 1.0000
49.3800 289.0000 1.0000
49.3900 270.0000 1.0000
49.4000 306.0000 1.0000
49.4100 301.0000 1.0000
49.4200 292.0000 1.0000
49.4300 301.0000 1.0000
49.4400 284.0000 1.0000
49.4500 291.0000 1.0000
49.4600 296.0000 1.0000
49.4700 280.0000 1.0000
49.4800 301.0000 1.0000
49.4900 280.0000 1.0000
49.5000 284.0000 1.0000
49.5100 316.0000 1.0000
49.5200 290.0000 1.0000
49.5300 294.0000 1.0000
49.5400 269.0000 1.0000
49.5500 303.0000 1.0000
49.5600 270.0000 1.0000
49.5700 318.0000 1.0000
49.5800 300.0000 1.0000
49.5900 272.0000 1.0000
49.6000 321.0000 1.0000
49.6100 323.0000 1.0000
49.6200 305.0000 1.0000
49.6300 302.0000 1.0000
49.6400 285.0000 1.0000
49.6500 318.0000 1.0000
49.6600 288.0000 1.0000
49.6700 260.0000 1.0000
49.6800 284.0000 1.0000
49.6900 289.0000 1.0000
49.7000 307.0000 1.0000
49.7100 303.0000 1.0000
49.7200 283.0000 1.0000
49.7300 277.0000 1.0000
49.7400 291.0000 1.0000
49.7500 301.0000 1.0000
49.7600 318.0000 1.0000
49.7700 289.0000 1.0000
49.7800 298.0000 1.0000
49.7900 282.0000 1.0000
49.8000 297.0000 1.0000
49.8100 283.0000 1.0000
49.8200 301.0000 1.0000
49.8300 268.0000 1.0000
49.8400 284.0000 1.0000
49.8500 268.0000 1.0000
49.8600 275.0000 1.0000
49.8700 300.0000 1.0000
49.8800 296.0000 1.0000
49.8900 296.0000 1.0000
49.9000 293.0000 1.0000
49.9100 288.0000 1.0000
49.9200 299.0000 1.0000
49.9300 327.0000 1.0000
49.9400 308.0000 1.0000
49.9500 292.0000 1.0000
49.9600 326.0000 1.0000
49.9700 269.0000 1.0000
49.9800 285.0000 1.0000
49.9900 264.0000 1.0000
50.0000 283.0000 1.0000
50.0100 294.0000 1.0000
50.0200 287.0000 1.0000
50.0300 297.0000 1.0000
50.0400 319.0000 1.0000
50.0500 295.0000 1.0000
50.0600 256.0000 1.0000
50.0700 265.0000 1.0000
50.0800 273.0000 1.0000
50.0900 297.0000 1.0000
50.1000 315.0000 1.0000
50.1100 307.0000 1.0000
50.1200 309.0000 1.0000
50.1300 310.0000 1.0000
50.1400 339.0000 1.0000
50.1500 315.0000 1.0000
50.1600 311.0000 1.0000
50.1700 290.0000 1.0000
50.1800 296.0000 1.0000
50.1900 305.0000 1.0000
50.2000 315.0000 1.0000
50.2100 321.0000 1.0000
50.2200 303.0000 1.0000
50.2300 303.0000 1.0000
50.2400 298.0000 1.0000
50.2500 309.0000 1.0000
50.2600 292.0000 1.0000
50.2700 312.0000 1.0000
50.2800 325.0000 1.0000
50.2900 310.0000 1.0000
50.3000 305.0000 1.0000
50.3100 311.0000 1.0000
50.3200 296.0000 1.0000
50.3300 304.0000 1.0000
50.3400 309.0000 1.0000
50.3500 297.0000 1.0000
50.3600 328.0000 1.0000
50.3700 309.0000 1.0000
50.3800 323.0000 1.0000
50.3900 302.0000 1.0000
50.4000 304.0000 1.0000
50.4100 309.0000 1.0000
50.4200 316.0000 1.0000
50.4300 302.0000 1.0000
50.4400 309.0000 1.0000
50.4500 314.0000 1.0000
50.4600 325.0000 1.0000
50.4700 335.0000 1.0000
50.4800 291.0000 1.0000
50.4900 300.0000 1.0000
50.5000 319.0000 1.0000
50.5100 315.0000 1.0000
50.5200 284.0000 1.0000
50.5300 309.0000 1.0000
50.5400 299.0000 1.0000
50.5500 300.0000 1.0000
50.5600 297.0000 1.0000
50.5700 323.0000 1.0000
50.5800 317.0000 1.0000
50.5900 312.0000 1.0000
50.6000 290.0000 1.0000
50.6100 300.0000 1.0000
50.6200 329.0000 1.0000
50.6300 275.0000 1.0000
50.6400 290.0000 1.0000
50.6500 291.0000 1.0000
50.6600 311.0000 1.0000
50.6700 314.0000 1.0000
50.6800 312.0000 1.0000
50.6900 315.0000 1.0000
50.7000 284.0000 1.0000
50.7100 281.0000 1.0000
50.7200 318.0000 1.0000
50.7300 323.0000 1.0000
50.7400 303.0000 1.0000
50.7500 292.0000 1.0000
50.7600 301.0000 1.0000
50.7700 325.0000 1.0000
50.7800 308.0000 1.0000
50.7900 331.0000 1.0000
50.8000 285.0000 1.0000
50.8100 306.0000 1.0000
50.8200 314.0000 1.0000
50.8300 348.0000 1.0000
50.8400 316.0000 1.0000
50.8500 326.0000 1.0000
50.8600 311.0000 1.0000
50.8700 318.0000 1.0000
50.8800 300.0000 1.0000
50.8900 276.0000 1.0000
50.9000 304.0000 1.0000
50.9100 272.0000 1.0000
50.9200 285.0000 1.0000
50.9300 280.0000 1.0000
50.9400 281.0000 1.0000
50.9500 312.0000 1.0000
50.9600 323.0000 1.0000
50.9700 327.0000 1.0000
50.9800 325.0000 1.0000
50.9900 312.0000 1.0000
51.0000 302.0000 1.0000
51.0100 283.0000 1.0000
51.0200 301.0000 1.0000
51.0300 291.0000 1.0000
51.0400 275.0000 1.0000
51.0500 314.0000 1.0000
51.0600 311.0000 1.0000
51.0700 295.0000 1.0000
51.0800 307.0000 1.0000
51.0900 299.0000 1.0000
51.1000 316.0000 1.0000
51.1100 323.0000 1.0000
51.1200 316.0000 1.0000
51.1300 298.0000 1.0000
51.1400 352.0000 1.0000
51.1500 321.0000 1.0000
51.1600 299.0000 1.0000
51.1700 292.0000 1.0000
51.1800 277.0000 1.0000
51.1900 305.0000 1.0000
51.2000 321.0000 1.0000
51.2100 292.0000 1.0000
51.2200 322.0000 1.0000
51.2300 278.0000 1.0000
51.2400 303.0000 1.0000
51.2500 283.0000 1.0000
51.2600 299.0000 1.0000
51.2700 302.0000 1.0000
51.2800 302.0000 1.0000
51.2900 315.0000 1.0000
51.3000 278.0000 1.0000
51.3100 315.0000 1.0000
51.3200 289.0000 1.0000
51.3300 316.0000 1.0000
51.3400 296.0000 1.0000
51.3500 343.0000 1.0000
51.3600 309.0000 1.0000
51.3700 313.0000 1.0000
51.3800 307.0000 1.0000
51.3900 298.0000 1.0000
51.4000 267.0000 1.0000
51.4100 283.0000 1.0000
51.4200 310.0000 1.0000
51.4300 316.0000 1.0000
51.4400 292.0000 1.0000
51.4500 299.0000 1.0000
51.4600 328.0000 1.0000
51.4700 306.0000 1.0000
51.4800 314.0000 1.0000
51.4900 298.0000 1.0000
51.5000 297.0000 1.0000
51.5100 327.0000 1.0000
51.5200 298.0000 1.0000
51.5300 316.0000 1.0000
51.5400 303.0000 1.0000
51.5500 300.0000 1.0000
51.5600 295.0000 1.0000
51.5700 316.0000 1.0000
51.5800 304.0000 1.0000
51.5900 314.0000 1.0000
51.6000 347.0000 1.0000
51.6100 316.0000 1.0000
51.6200 313.0000 1.0000
51.6300 308.0000 1.0000
51.6400 296.0000 1.0000
51.6500 308.0000 1.0000
51.6600 316.0000 1.0000
51.6700 308.0000 1.0000
51.6800 305.0000 1.0000
51.6900 297.0000 1.0000
51.7000 339.0000 1.0000
51.7100 316.0000 1.0000
51.7200 308.0000 1.0000
51.7300 297.0000 1.0000
51.7400 329.0000 1.0000
51.7500 347.0000 1.0000
51.7600 342.0000 1.0000
51.7700 331.0000 1.0000
51.7800 324.0000 1.0000
51.7900 327.0000 1.0000
51.8000 312.0000 1.0000
51.8100 335.0000 1.0000
51.8200 371.0000 1.0000
51.8300 329.0000 1.0000
51.8400 309.0000 1.0000
51.8500 344.0000 1.0000
51.8600 370.0000 1.0000
51.8700 345.0000 1.0000
51.8800 343.0000 1.0000
51.8900 345.0000 1.0000
51.9000 325.0000 1.0000
51.9100 352.0000 1.0000
51.9200 366.0000 1.0000
51.9300 361.0000 1.0000
51.9400 374.0000 1.0000
51.9500 392.0000 1.0000
51.9600 382.0000 1.0000
51.9700 397.0000 1.0000
51.9800 415.0000 1.0000
51.9900 457.0000 1.0000
52.0000 466.0000 1.0000
52.0100 440.0000 1.0000
52.0200 476.0000 1.0000
52.0300 507.0000 1.0000
52.0400 490.0000 1.0000
52.0500 505.0000 1.0000
52.0600 519.0000 1.0000
52.0700 547.0000 1.0000
52.0800 564.0000 1.0000
52.0900 545.0000 1.0000
52.1000 572.0000 1.0000
52.1100 612.0000 1.0000
52.1200 666.0000 1.0000
52.1300 673.0000 1.0000
52.1400 708.0000 1.0000
52.1500 751.0000 1.0000
52.1600 829.0000 1.0000
52.1700 887.0000 1.0000
52.1800 1003.0000 1.0000
52.1900 1059.0000 1.0000
52.2000 1134.0000 1.0000
52.2100 1222.0000 1.0000
52.2200 1370.0000 1.0000
52.2300 1446.0000 1.0000
52.2400 1537.0000 1.0000
52.2500 1687.0000 1.0000
52.2600 1810.0000 1.0000
52.2700 1848.0000 1.0000
52.2800 1982.0000 1.0000
52.2900 2099.0000 1.0000
52.3000 2202.0000 1.0000
52.3100 2202.0000 1.0000
52.3200 2222.0000 1.0000
52.3300 2189.0000 1.0000
52.3400 2120.0000 1.0000
52.3500 2037.0000 1.0000
52.3600 2020.0000 1.0000
52.3700 1989.0000 1.0000
52.3800 1914.0000 1.0000
52.3900 1805.0000 1.0000
52.4000 1752.0000 1.0000
52.4100 1730.0000 1.0000
52.4200 1751.0000 1.0000
52.4300 1613.0000 1.0000
52.4400 1539.0000 1.0000
52.4500 1590.0000 1.0000
52.4600 1477.0000 1.0000
52.4700 1439.0000 1.0000
52.4800 1429.0000 1.0000
52.4900 1225.0000 1.0000
52.5000 1176.0000 1.0000
52.5100 1143.0000 1.0000
52.5200 1017.0000 1.0000
52.5300 977.0000 1.0000
52.5400 889.0000 1.0000
52.5500 826.0000 1.0000
52.5600 762.0000 1.0000
52.5700 754.0000 1.0000
52.5800 718.0000 1.0000
52.5900 652.0000 1.0000
52.6000 621.0000 1.0000
52.6100 599.0000 1.0000
52.6200 534.0000 1.0000
52.6300 547.0000 1.0000
52.6400 532.0000 1.0000
52.6500 509.0000 1.0000
52.6600 509.0000 1.0000
52.6700 495.0000 1.0000
52.6800 476.0000 1.0000
52.6900 450.0000 1.0000
52.7000 420.0000 1.0000
52.7100 426.0000 1.0000
52.7200 415.0000 1.0000
52.7300 412.0000 1.0000
52.7400 396.0000 1.0000
52.7500 394.0000 1.0000
52.7600 411.0000 1.0000
52.7700 351.0000 1.0000
52.7800 389.0000 1.0000
52.7900 377.0000 1.0000
52.8000 348.0000 1.0000
52.8100 355.0000 1.0000
52.8200 354.0000 1.0000
52.8300 339.0000 1.0000
52.8400 332.0000 1.0000
52.8500 343.0000 1.0000
52.8600 355.0000 1.0000
52.8700 362.0000 1.0000
52.8800 332.0000 1.0000
52.8900 327.0000 1.0000
52.9000 344.0000 1.0000
52.9100 334.0000 1.0000
52.9200 301.0000 1.0000
52.9300 313.0000 1.0000
52.9400 315.0000 1.0000
52.9500 331.0000 1.0000
52.9600 319.0000 1.0000
52.9700 313.0000 1.0000
52.9800 358.0000 1.0000
52.9900 325.0000 1.0000
53.0000 355.0000 1.0000
53.0100 335.0000 1.0000
53.0200 342.0000 1.0000
53.0300 323.0000 1.0000
53.0400 320.0000 1.0000
53.0500 325.0000 1.0000
53.0600 324.0000 1.0000
53.0700 307.0000 1.0000
53.0800 327.0000 1.0000
53.0900 301.0000 1.0000
53.1000 333.0000 1.0000
53.1100 329.0000 1.0000
53.1200 331.0000 1.0000
53.1300 331.0000 1.0000
53.1400 281.0000 1.0000
53.1500 307.0000 1.0000
53.1600 314.0000 1.0000
53.1700 307.0000 1.0000
53.1800 312.0000 1.0000
53.1900 303.0000 1.0000
53.2000 305.0000 1.0000
53.2100 310.0000 1.0000
53.2200 316.0000 1.0000
53.2300 318.0000 1.0000
53.2400 295.0000 1.0000
53.2500 283.0000 1.0000
53.2600 294.0000 1.0000
53.2700 295.0000 1.0000
53.2800 262.0000 1.0000
53.2900 298.0000 1.0000
53.3000 303.0000 1.0000
53.3100 312.0000 1.0000
53.3200 308.0000 1.0000
53.3300 303.0000 1.0000
53.3400 273.0000 1.0000
53.3500 293.0000 1.0000
53.3600 286.0000 1.0000
53.3700 317.0000 1.0000
53.3800 308.0000 1.0000
53.3900 277.0000 1.0000
53.4000 282.0000 1.0000
53.4100 286.0000 1.0000
53.4200 287.0000 1.0000
53.4300 323.0000 1.0000
53.4400 329.0000 1.0000
53.4500 316.0000 1.0000
53.4600 303.0000 1.0000
53.4700 304.0000 1.0000
53.4800 295.0000 1.0000
53.4900 297.0000 1.0000
53.5000 300.0000 1.0000
53.5100 321.0000 1.0000
53.5200 304.0000 1.0000
53.5300 319.0000 1.0000
53.5400 313.0000 1.0000
53.5500 291.0000 1.0000
53.5600 297.0000 1.0000
53.5700 321.0000 1.0000
53.5800 300.0000 1.0000
53.5900 295.0000 1.0000
53.6000 276.0000 1.0000
53.6100 293.0000 1.0000
53.6200 308.0000 1.0000
53.6300 303.0000 1.0000
53.6400 300.0000 1.0000
53.6500 310.0000 1.0000
53.6600 260.0000 1.0000
53.6700 273.0000 1.0000
53.6800 266.0000 1.0000
53.6900 289.0000 1.0000
53.7000 283.0000 1.0000
53.7100 292.0000 1.0000
53.7200 299.0000 1.0000
53.7300 327.0000 1.0000
53.7400 286.0000 1.0000
53.7500 281.0000 1.0000
53.7600 288.0000 1.0000
53.7700 304.0000 1.0000
53.7800 292.0000 1.0000
53.7900 273.0000 1.0000
53.8000 258.0000 1.0000
53.8100 289.0000 1.0000
53.8200 282.0000 1.0000
53.8300 311.0000 1.0000
53.8400 297.0000 1.0000
53.8500 278.0000 1.0000
53.8600 295.0000 1.0000
53.8700 275.0000 1.0000
53.8800 331.0000 1.0000
53.8900 304.0000 1.0000
53.9000 300.0000 1.0000
53.9100 298.0000 1.0000
53.9200 272.0000 1.0000
53.9300 310.0000 1.0000
53.9400 306.0000 1.0000
53.9500 279.0000 1.0000
53.9600 299.0000 1.0000
53.9700 288.0000 1.0000
53.9800 265.0000 1.0000
53.9900 295.0000 1.0000
54.0000 302.0000 1.0000
54.0100 301.0000 1.0000
54.0200 303.0000 1.0000
54.0300 269.0000 1.0000
54.0400 283.0000 1.0000
54.0500 314.0000 1.0000
54.0600 299.0000 1.0000
54.0700 298.0000 1.0000
54.0800 302.0000 1.0000
54.0900 290.0000 1.0000
54.1000 290.0000 1.0000
54.1100 293.0000 1.0000
54.1200 288.0000 1.0000
54.1300 272.0000 1.0000
54.1400 278.0000 1.0000
54.1500 313.0000 1.0000
54.1600 292.0000 1.0000
54.1700 270.0000 1.0000
54.1800 310.0000 1.0000
54.1900 308.0000 1.0000
54.2000 301.0000 1.0000
54.2100 269.0000 1.0000
54.2200 273.0000 1.0000
54.2300 273.0000 1.0000
54.2400 272.0000 1.0000
54.2500 290.0000 1.0000
54.2600 310.0000 1.0000
54.2700 309.0000 1.0000
54.2800 280.0000 1.0000
54.2900 276.0000 1.0000
54.3000 298.0000 1.0000
54.3100 290.0000 1.0000
54.3200 269.0000 1.0000
54.3300 303.0000 1.0000
54.3400 287.0000 1.0000
54.3500 293.0000 1.0000
54.3600 273.0000 1.0000
54.3700 274.0000 1.0000
54.3800 259.0000 1.0000
54.3900 281.0000 1.0000
54.4000 292.0000 1.0000
54.4100 282.0000 1.0000
54.4200 273.0000 1.0000
54.4300 289.0000 1.0000
54.4400 311.0000 1.0000
54.4500 308.0000 1.0000
54.4600 309.0000 1.0000
54.4700 298.0000 1.0000
54.4800 278.0000 1.0000
54.4900 303.0000 1.0000
54.5000 300.0000 1.0000
54.5100 300.0000 1.0000
54.5200 297.0000 1.0000
54.5300 277.0000 1.0000
54.5400 299.0000 1.0000
54.5500 296.0000 1.0000
54.5600 291.0000 1.0000
54.5700 296.0000 1.0000
54.5800 311.0000 1.0000
54.5900 302.0000 1.0000
54.6000 281.0000 1.0000
54.6100 303.0000 1.0000
54.6200 319.0000 1.0000
54.6300 287.0000 1.0000
54.6400 317.0000 1.0000
54.6500 292.0000 1.0000
54.6600 325.0000 1.0000
54.6700 299.0000 1.0000
54.6800 288.0000 1.0000
54.6900 285.0000 1.0000
54.7000 291.0000 1.0000
54.7100 290.0000 1.0000
54.7200 287.0000 1.0000
54.7300 298.0000 1.0000
54.7400 272.0000 1.0000
54.7500 287.0000 1.0000
54.7600 287.0000 1.0000
54.7700 292.0000 1.0000
54.7800 289.0000 1.0000
54.7900 310.0000 1.0000
54.8000 327.0000 1.0000
54.8100 309.0000 1.0000
54.8200 330.0000 1.0000
54.8300 321.0000 1.0000
54.8400 307.0000 1.0000
54.8500 305.0000 1.0000
54.8600 325.0000 1.0000
54.8700 308.0000 1.0000
54.8800 313.0000 1.0000
54.8900 315.0000 1.0000
54.9000 282.0000 1.0000
54.9100 306.0000 1.0000
54.9200 310.0000 1.0000
54.9300 333.0000 1.0000
54.9400 303.0000 1.0000
54.9500 300.0000 1.0000
54.9600 312.0000 1.0000
54.9700 339.0000 1.0000
54.9800 307.0000 1.0000
54.9900 348.0000 1.0000
55.0000 319.0000 1.0000
55.0100 302.0000 1.0000
55.0200 319.0000 1.0000
55.0300 306.0000 1.0000
55.0400 331.0000 1.0000
55.0500 345.0000 1.0000
55.0600 320.0000 1.0000
55.0700 351.0000 1.0000
55.0800 327.0000 1.0000
55.0900 316.0000 1.0000
55.1000 345.0000 1.0000
55.1100 344.0000 1.0000
55.1200 332.0000 1.0000
55.1300 302.0000 1.0000
55.1400 340.0000 1.0000
55.1500 335.0000 1.0000
55.1600 350.0000 1.0000
55.1700 335.0000 1.0000
55.1800 321.0000 1.0000
55.1900 349.0000 1.0000
55.2000 368.0000 1.0000
55.2100 388.0000 1.0000
55.2200 380.0000 1.0000
55.2300 403.0000 1.0000
55.2400 422.0000 1.0000
55.2500 408.0000 1.0000
55.2600 428.0000 1.0000
55.2700 413.0000 1.0000
55.2800 433.0000 1.0000
55.2900 417.0000 1.0000
55.3000 399.0000 1.0000
55.3100 464.0000 1.0000
55.3200 440.0000 1.0000
55.3300 421.0000 1.0000
55.3400 418.0000 1.0000
55.3500 423.0000 1.0000
55.3600 417.0000 1.0000
55.3700 441.0000 1.0000
55.3800 422.0000 1.0000
55.3900 432.0000 1.0000
55.4000 456.0000 1.0000
55.4100 438.0000 1.0000
55.4200 450.0000 1.0000
55.4300 411.0000 1.0000
55.4400 406.0000 1.0000
55.4500 426.0000 1.0000
55.4600 370.0000 1.0000
55.4700 401.0000 1.0000
55.4800 375.0000 1.0000
55.4900 369.0000 1.0000
55.5000 396.0000 1.0000
55.5100 375.0000 1.0000
55.5200 359.0000 1.0000
55.5300 391.0000 1.0000
55.5400 360.0000 1.0000
55.5500 366.0000 1.0000
55.5600 342.0000 1.0000
55.5700 343.0000 1.0000
55.5800 337.0000 1.0000
55.5900 336.0000 1.0000
55.6000 344.0000 1.0000
55.6100 334.0000 1.0000
55.6200 348.0000 1.0000
55.6300 359.0000 1.0000
55.6400 318.0000 1.0000
55.6500 314.0000 1.0000
55.6600 328.0000 1.0000
55.6700 339.0000 1.0000
55.6800 338.0000 1.0000
55.6900 320.0000 1.0000
55.7000 322.0000 1.0000
55.7100 338.0000 1.0000
55.7200 330.0000 1.0000
55.7300 310.0000 1.0000
55.7400 274.0000 1.0000
55.7500 291.0000 1.0000
55.7600 307.0000 1.0000
55.7700 250.0000 1.0000
55.7800 306.0000 1.0000
55.7900 318.0000 1.0000
55.8000 288.0000 1.0000
55.8100 283.0000 1.0000
55.8200 308.0000 1.0000
55.8300 307.0000 1.0000
55.8400 306.0000 1.0000
55.8500 274.0000 1.0000
55.8600 317.0000 1.0000
55.8700 300.0000 1.0000
55.8800 294.0000 1.0000
55.8900 299.0000 1.0000
55.9000 292.0000 1.0000
55.9100 290.0000 1.0000
55.9200 291.0000 1.0000
55.9300 265.0000 1.0000
55.9400 299.0000 1.0000
55.9500 269.0000 1.0000
55.9600 275.0000 1.0000
55.9700 297.0000 1.0000
55.9800 306.0000 1.0000
55.9900 311.0000 1.0000
56.0000 304.0000 1.0000
56.0100 273.0000 1.0000
56.0200 296.0000 1.0000
56.0300 305.0000 1.0000
56.0400 303.0000 1.0000
56.0500 284.0000 1.0000
56.0600 282.0000 1.0000
56.0700 279.0000 1.0000
56.0800 285.0000 1.0000
56.0900 299.0000 1.0000
56.1000 295.0000 1.0000
56.1100 294.0000 1.0000
56.1200 283.0000 1.0000
56.1300 258.0000 1.0000
56.1400 303.0000 1.0000
56.1500 301.0000 1.0000
56.1600 265.0000 1.0000
56.1700 292.0000 1.0000
56.1800 284.0000 1.0000
56.1900 289.0000 1.0000
56.2000 286.0000 1.0000
56.2100 322.0000 1.0000
56.2200 279.0000 1.0000
56.2300 281.0000 1.0000
56.2400 270.0000 1.0000
56.2500 283.0000 1.0000
56.2600 294.0000 1.0000
56.2700 282.0000 1.0000
56.2800 273.0000 1.0000
56.2900 264.0000 1.0000
56.3000 289.0000 1.0000
56.3100 299.0000 1.0000
56.3200 294.0000 1.0000
56.3300 285.0000 1.0000
56.3400 263.0000 1.0000
56.3500 253.0000 1.0000
56.3600 262.0000 1.0000
56.3700 268.0000 1.0000
56.3800 260.0000 1.0000
56.3900 255.0000 1.0000
56.4000 263.0000 1.0000
56.4100 293.0000 1.0000
56.4200 320.0000 1.0000
56.4300 297.0000 1.0000
56.4400 278.0000 1.0000
56.4500 289.0000 1.0000
56.4600 270.0000 1.0000
56.4700 280.0000 1.0000
56.4800 273.0000 1.0000
56.4900 270.0000 1.0000
56.5000 281.0000 1.0000
56.5100 316.0000 1.0000
56.5200 304.0000 1.0000
56.5300 302.0000 1.0000
56.5400 284.0000 1.0000
56.5500 283.0000 1.0000
56.5600 282.0000 1.0000
56.5700 277.0000 1.0000
56.5800 271.0000 1.0000
56.5900 309.0000 1.0000
56.6000 289.0000 1.0000
56.6100 269.0000 1.0000
56.6200 267.0000 1.0000
56.6300 278.0000 1.0000
56.6400 297.0000 1.0000
56.6500 299.0000 1.0000
56.6600 291.0000 1.0000
56.6700 306.0000 1.0000
56.6800 292.0000 1.0000
56.6900 285.0000 1.0000
56.7000 274.0000 1.0000
56.7100 273.0000 1.0000
56.7200 291.0000 1.0000
56.7300 278.0000 1.0000
56.7400 271.0000 1.0000
56.7500 278.0000 1.0000
56.7600 277.0000 1.0000
56.7700 286.0000 1.0000
56.7800 273.0000 1.0000
56.7900 277.0000 1.0000
56.8000 259.0000 1.0000
56.8100 277.0000 1.0000
56.8200 271.0000 1.0000
56.8300 288.0000 1.0000
56.8400 273.0000 1.0000
56.8500 285.0000 1.0000
56.8600 301.0000 1.0000
56.8700 290.0000 1.0000
56.8800 269.0000 1.0000
56.8900 275.0000 1.0000
56.9000 259.0000 1.0000
56.9100 255.0000 1.0000
56.9200 278.0000 1.0000
56.9300 274.0000 1.0000
56.9400 271.0000 1.0000
56.9500 239.0000 1.0000
56.9600 281.0000 1.0000
56.9700 284.0000 1.0000
56.9800 278.0000 1.0000
56.9900 309.0000 1.0000
57.0000 280.0000 1.0000
57.0100 278.0000 1.0000
57.0200 271.0000 1.0000
57.0300 275.0000 1.0000
57.0400 285.0000 1.0000
57.0500 275.0000 1.0000
57.0600 286.0000 1.0000
57.0700 271.0000 1.0000
57.0800 261.0000 1.0000
57.0900 292.0000 1.0000
57.1000 289.0000 1.0000
57.1100 281.0000 1.0000
57.1200 268.0000 1.0000
57.1300 268.0000 1.0000
57.1400 283.0000 1.0000
57.1500 301.0000 1.0000
57.1600 254.0000 1.0000
57.1700 266.0000 1.0000
57.1800 252.0000 1.0000
57.1900 274.0000 1.0000
57.2000 263.0000 1.0000
57.2100 253.0000 1.0000
57.2200 292.0000 1.0000
57.2300 284.0000 1.0000
57.2400 272.0000 1.0000
57.2500 275.0000 1.0000
57.2600 263.0000 1.0000
57.2700 280.0000 1.0000
57.2800 280.0000 1.0000
57.2900 268.0000 1.0000
57.3000 259.0000 1.0000
57.3100 256.0000 1.0000
57.3200 274.0000 1.0000
57.3300 261.0000 1.0000
57.3400 263.0000 1.0000
57.3500 302.0000 1.0000
57.3600 301.0000 1.0000
57.3700 281.0000 1.0000
57.3800 275.0000 1.0000
57.3900 257.0000 1.0000
57.4000 269.0000 1.0000
57.4100 248.0000 1.0000
57.4200 269.0000 1.0000
57.4300 290.0000 1.0000
57.4400 280.0000 1.0000
57.4500 271.0000 1.0000
57.4600 287.0000 1.0000
57.4700 279.0000 1.0000
57.4800 287.0000 1.0000
57.4900 263.0000 1.0000
57.5000 292.0000 1.0000
57.5100 262.0000 1.0000
57.5200 249.0000 1.0000
57.5300 288.0000 1.0000
57.5400 282.0000 1.0000
57.5500 259.0000 1.0000
57.5600 269.0000 1.0000
57.5700 283.0000 1.0000
57.5800 285.0000 1.0000
57.5900 272.0000 1.0000
57.6000 284.0000 1.0000
57.6100 265.0000 1.0000
57.6200 311.0000 1.0000
57.6300 281.0000 1.0000
57.6400 277.0000 1.0000
57.6500 263.0000 1.0000
57.6600 282.0000 1.0000
57.6700 251.0000 1.0000
57.6800 282.0000 1.0000
57.6900 288.0000 1.0000
57.7000 278.0000 1.0000
57.7100 284.0000 1.0000
57.7200 291.0000 1.0000
57.7300 278.0000 1.0000
57.7400 292.0000 1.0000
57.7500 268.0000 1.0000
57.7600 278.0000 1.0000
57.7700 292.0000 1.0000
57.7800 282.0000 1.0000
57.7900 257.0000 1.0000
57.8000 288.0000 1.0000
57.8100 260.0000 1.0000
57.8200 275.0000 1.0000
57.8300 285.0000 1.0000
57.8400 265.0000 1.0000
57.8500 277.0000 1.0000
57.8600 275.0000 1.0000
57.8700 283.0000 1.0000
57.8800 278.0000 1.0000
57.8900 300.0000 1.0000
57.9000 302.0000 1.0000
57.9100 262.0000 1.0000
57.9200 269.0000 1.0000
57.9300 264.0000 1.0000
57.9400 281.0000 1.0000
57.9500 295.0000 1.0000
57.9600 278.0000 1.0000
57.9700 275.0000 1.0000
57.9800 288.0000 1.0000
57.9900 279.0000 1.0000
58.0000 268.0000 1.0000
58.0100 253.0000 1.0000
58.0200 255.0000 1.0000
58.0300 276.0000 1.0000
58.0400 247.0000 1.0000
58.0500 276.0000 1.0000
58.0600 258.0000 1.0000
58.0700 270.0000 1.0000
58.0800 290.0000 1.0000
58.0900 293.0000 1.0000
58.1000 297.0000 1.0000
58.1100 281.0000 1.0000
58.1200 269.0000 1.0000
58.1300 282.0000 1.0000
58.1400 310.0000 1.0000
58.1500 334.0000 1.0000
58.1600 286.0000 1.0000
58.1700 289.0000 1.0000
58.1800 295.0000 1.0000
58.1900 284.0000 1.0000
58.2000 287.0000 1.0000
58.2100 274.0000 1.0000
58.2200 279.0000 1.0000
58.2300 290.0000 1.0000
58.2400 264.0000 1.0000
58.2500 283.0000 1.0000
58.2600 281.0000 1.0000
58.2700 257.0000 1.0000
58.2800 278.0000 1.0000
58.2900 274.0000 1.0000
58.3000 286.0000 1.0000
58.3100 293.0000 1.0000
58.3200 304.0000 1.0000
58.3300 294.0000 1.0000
58.3400 305.0000 1.0000
58.3500 284.0000 1.0000
58.3600 302.0000 1.0000
58.3700 306.0000 1.0000
58.3800 291.0000 1.0000
58.3900 277.0000 1.0000
58.4000 292.0000 1.0000
58.4100 291.0000 1.0000
58.4200 293.0000 1.0000
58.4300 305.0000 1.0000
58.4400 290.0000 1.0000
58.4500 281.0000 1.0000
58.4600 283.0000 1.0000
58.4700 292.0000 1.0000
58.4800 285.0000 1.0000
58.4900 281.0000 1.0000
58.5000 281.0000 1.0000
58.5100 307.0000 1.0000
58.5200 266.0000 1.0000
58.5300 302.0000 1.0000
58.5400 300.0000 1.0000
58.5500 291.0000 1.0000
58.5600 271.0000 1.0000
58.5700 295.0000 1.0000
58.5800 284.0000 1.0000
58.5900 298.0000 1.0000
58.6000 287.0000 1.0000
58.6100 267.0000 1.0000
58.6200 288.0000 1.0000
58.6300 291.0000 1.0000
58.6400 288.0000 1.0000
58.6500 265.0000 1.0000
58.6600 236.0000 1.0000
58.6700 268.0000 1.0000
58.6800 230.0000 1.0000
58.6900 260.0000 1.0000
58.7000 293.0000 1.0000
58.7100 269.0000 1.0000
58.7200 266.0000 1.0000
58.7300 276.0000 1.0000
58.7400 284.0000 1.0000
58.7500 261.0000 1.0000
58.7600 270.0000 1.0000
58.7700 288.0000 1.0000
58.7800 293.0000 1.0000
58.7900 275.0000 1.0000
58.8000 263.0000 1.0000
58.8100 288.0000 1.0000
58.8200 294.0000 1.0000
58.8300 267.0000 1.0000
58.8400 260.0000 1.0000
58.8500 293.0000 1.0000
58.8600 283.0000 1.0000
58.8700 281.0000 1.0000
58.8800 274.0000 1.0000
58.8900 296.0000 1.0000
58.9000 266.0000 1.0000
58.9100 285.0000 1.0000
58.9200 254.0000 1.0000
58.9300 261.0000 1.0000
58.9400 272.0000 1.0000
58.9500 280.0000 1.0000
58.9600 274.0000 1.0000
58.9700 283.0000 1.0000
58.9800 257.0000 1.0000
58.9900 288.0000 1.0000
59.0000 284.0000 1.0000
59.0100 280.0000 1.0000
59.0200 283.0000 1.0000
59.0300 270.0000 1.0000
59.0400 271.0000 1.0000
59.0500 286.0000 1.0000
59.0600 286.0000 1.0000
59.0700 280.0000 1.0000
59.0800 254.0000 1.0000
59.0900 272.0000 1.0000
59.1000 276.0000 1.0000
59.1100 278.0000 1.0000
59.1200 283.0000 1.0000
59.1300 292.0000 1.0000
59.1400 311.0000 1.0000
59.1500 299.0000 1.0000
59.1600 276.0000 1.0000
59.1700 264.0000 1.0000
59.1800 280.0000 1.0000
59.1900 263.0000 1.0000
59.2000 275.0000 1.0000
59.2100 266.0000 1.0000
59.2200 262.0000 1.0000
59.2300 251.0000 1.0000
59.2400 286.0000 1.0000
59.2500 267.0000 1.0000
59.2600 288.0000 1.0000
59.2700 296.0000 1.0000
59.2800 255.0000 1.0000
59.2900 272.0000 1.0000
59.3000 282.0000 1.0000
59.3100 250.0000 1.0000
59.3200 261.0000 1.0000
59.3300 255.0000 1.0000
59.3400 288.0000 1.0000
59.3500 302.0000 1.0000
59.3600 301.0000 1.0000
59.3700 283.0000 1.0000
59.3800 309.0000 1.0000
59.3900 269.0000 1.0000
59.4000 268.0000 1.0000
59.4100 296.0000 1.0000
59.4200 270.0000 1.0000
59.4300 278.0000 1.0000
59.4400 271.0000 1.0000
59.4500 257.0000 1.0000
59.4600 261.0000 1.0000
59.4700 268.0000 1.0000
59.4800 292.0000 1.0000
59.4900 285.0000 1.0000
59.5000 256.0000 1.0000
59.5100 275.0000 1.0000
59.5200 284.0000 1.0000
59.5300 250.0000 1.0000
59.5400 278.0000 1.0000
59.5500 296.0000 1.0000
59.5600 297.0000 1.0000
59.5700 253.0000 1.0000
59.5800 253.0000 1.0000
59.5900 262.0000 1.0000
59.6000 270.0000 1.0000
59.6100 257.0000 1.0000
59.6200 260.0000 1.0000
59.6300 279.0000 1.0000
59.6400 269.0000 1.0000
59.6500 275.0000 1.0000
59.6600 256.0000 1.0000
59.6700 271.0000 1.0000
59.6800 254.0000 1.0000
59.6900 265.0000 1.0000
59.7000 273.0000 1.0000
59.7100 275.0000 1.0000
59.7200 277.0000 1.0000
59.7300 270.0000 1.0000
59.7400 269.0000 1.0000
59.7500 254.0000 1.0000
59.7600 256.0000 1.0000
59.7700 267.0000 1.0000
59.7800 251.0000 1.0000
59.7900 275.0000 1.0000
59.8000 259.0000 1.0000
59.8100 271.0000 1.0000
59.8200 272.0000 1.0000
59.8300 275.0000 1.0000
59.8400 270.0000 1.0000
59.8500 269.0000 1.0000
59.8600 288.0000 1.0000
59.8700 275.0000 1.0000
59.8800 284.0000 1.0000
59.8900 279.0000 1.0000
59.9000 240.0000 1.0000
59.9100 288.0000 1.0000
59.9200 256.0000 1.0000
59.9300 262.0000 1.0000
59.9400 250.0000 1.0000
59.9500 283.0000 1.0000
59.9600 251.0000 1.0000
59.9700 303.0000 1.0000
59.9800 253.0000 1.0000
59.9900 282.0000 1.0000
60.0000 251.0000 1.0000
60.0100 281.0000 1.0000
60.0200 307.0000 1.0000
60.0300 275.0000 1.0000
60.0400 251.0000 1.0000
60.0500 261.0000 1.0000
60.0600 295.0000 1.0000
60.0700 276.0000 1.0000
60.0800 265.0000 1.0000
60.0900 276.0000 1.0000
60.1000 255.0000 1.0000
60.1100 260.0000 1.0000
60.1200 254.0000 1.0000
60.1300 266.0000 1.0000
60.1400 269.0000 1.0000
60.1500 289.0000 1.0000
60.1600 257.0000 1.0000
60.1700 274.0000 1.0000
60.1800 256.0000 1.0000
60.1900 270.0000 1.0000
60.2000 283.0000 1.0000
60.2100 283.0000 1.0000
60.2200 257.0000 1.0000
60.2300 272.0000 1.0000
60.2400 270.0000 1.0000
60.2500 273.0000 1.0000
60.2600 271.0000 1.0000
60.2700 265.0000 1.0000
60.2800 244.0000 1.0000
60.2900 257.0000 1.0000
60.3000 288.0000 1.0000
60.3100 271.0000 1.0000
60.3200 261.0000 1.0000
60.3300 255.0000 1.0000
60.3400 277.0000 1.0000
60.3500 282.0000 1.0000
60.3600 262.0000 1.0000
60.3700 239.0000 1.0000
60.3800 271.0000 1.0000
60.3900 276.0000 1.0000
60.4000 260.0000 1.0000
60.4100 273.0000 1.0000
60.4200 267.0000 1.0000
60.4300 282.0000 1.0000
60.4400 269.0000 1.0000
60.4500 247.0000 1.0000
60.4600 285.0000 1.0000
60.4700 282.0000 1.0000
60.4800 252.0000 1.0000
60.4900 272.0000 1.0000
60.5000 305.0000 1.0000
60.5100 288.0000 1.0000
60.5200 271.0000 1.0000
60.5300 265.0000 1.0000
60.5400 259.0000 1.0000
60.5500 263.0000 1.0000
60.5600 271.0000 1.0000
60.5700 276.0000 1.0000
60.5800 254.0000 1.0000
60.5900 269.0000 1.0000
60.6000 277.0000 1.0000
60.6100 294.0000 1.0000
60.6200 267.0000 1.0000
60.6300 266.0000 1.0000
60.6400 264.0000 1.0000
60.6500 276.0000 1.0000
60.6600 277.0000 1.0000
60.6700 278.0000 1.0000
60.6800 270.0000 1.0000
60.6900 286.0000 1.0000
60.7000 275.0000 1.0000
60.7100 272.0000 1.0000
60.7200 275.0000 1.0000
60.7300 288.0000 1.0000
60.7400 273.0000 1.0000
60.7500 286.0000 1.0000
60.7600 263.0000 1.0000
60.7700 244.0000 1.0000
60.7800 271.0000 1.0000
60.7900 292.0000 1.0000
60.8000 262.0000 1.0000
60.8100 295.0000 1.0000
60.8200 290.0000 1.0000
60.8300 266.0000 1.0000
60.8400 287.0000 1.0000
60.8500 289.0000 1.0000
60.8600 272.0000 1.0000
60.8700 267.0000 1.0000
60.8800 254.0000 1.0000
60.8900 275.0000 1.0000
60.9000 274.0000 1.0000
60.9100 251.0000 1.0000
60.9200 274.0000 1.0000
60.9300 261.0000 1.0000
60.9400 259.0000 1.0000
60.9500 271.0000 1.0000
60.9600 262.0000 1.0000
60.9700 258.0000 1.0000
60.9800 265.0000 1.0000
60.9900 266.0000 1.0000
61.0000 260.0000 1.0000
61.0100 257.0000 1.0000
61.0200 242.0000 1.0000
61.0300 259.0000 1.0000
61.0400 261.0000 1.0000
61.0500 282.0000 1.0000
61.0600 275.0000 1.0000
61.0700 253.0000 1.0000
61.0800 272.0000 1.0000
61.0900 278.0000 1.0000
61.1000 247.0000 1.0000
61.1100 249.0000 1.0000
61.1200 267.0000 1.0000
61.1300 292.0000 1.0000
61.1400 299.0000 1.0000
61.1500 247.0000 1.0000
61.1600 264.0000 1.0000
61.1700 268.0000 1.0000
61.1800 260.0000 1.0000
61.1900 256.0000 1.0000
61.2000 274.0000 1.0000
61.2100 256.0000 1.0000
61.2200 291.0000 1.0000
61.2300 286.0000 1.0000
61.2400 252.0000 1.0000
61.2500 270.0000 1.0000
61.2600 279.0000 1.0000
61.2700 285.0000 1.0000
61.2800 276.0000 1.0000
61.2900 289.0000 1.0000
61.3000 274.0000 1.0000
61.3100 269.0000 1.0000
61.3200 300.0000 1.0000
61.3300 273.0000 1.0000
61.3400 262.0000 1.0000
61.3500 262.0000 1.0000
61.3600 255.0000 1.0000
61.3700 281.0000 1.0000
61.3800 257.0000 1.0000
61.3900 261.0000 1.0000
61.4000 287.0000 1.0000
61.4100 303.0000 1.0000
61.4200 286.0000 1.0000
61.4300 272.0000 1.0000
61.4400 257.0000 1.0000
61.4500 268.0000 1.0000
61.4600 249.0000 1.0000
61.4700 277.0000 1.0000
61.4800 260.0000 1.0000
61.4900 298.0000 1.0000
61.5000 298.0000 1.0000
61.5100 319.0000 1.0000
61.5200 269.0000 1.0000
61.5300 281.0000 1.0000
61.5400 256.0000 1.0000
61.5500 262.0000 1.0000
61.5600 278.0000 1.0000
61.5700 284.0000 1.0000
61.5800 274.0000 1.0000
61.5900 277.0000 1.0000
61.6000 282.0000 1.0000
61.6100 296.0000 1.0000
61.6200 253.0000 1.0000
61.6300 273.0000 1.0000
61.6400 254.0000 1.0000
61.6500 253.0000 1.0000
61.6600 291.0000 1.0000
61.6700 271.0000 1.0000
61.6800 301.0000 1.0000
61.6900 293.0000 1.0000
61.7000 303.0000 1.0000
61.7100 286.0000 1.0000
61.7200 279.0000 1.0000
61.7300 267.0000 1.0000
61.7400 279.0000 1.0000
61.7500 268.0000 1.0000
61.7600 302.0000 1.0000
61.7700 292.0000 1.0000
61.7800 281.0000 1.0000
61.7900 277.0000 1.0000
61.8000 268.0000 1.0000
61.8100 287.0000 1.0000
61.8200 284.0000 1.0000
61.8300 282.0000 1.0000
61.8400 311.0000 1.0000
61.8500 305.0000 1.0000
61.8600 294.0000 1.0000
61.8700 281.0000 1.0000
61.8800 287.0000 1.0000
61.8900 324.0000 1.0000
61.9000 294.0000 1.0000
61.9100 300.0000 1.0000
61.9200 320.0000 1.0000
61.9300 277.0000 1.0000
61.9400 294.0000 1.0000
61.9500 291.0000 1.0000
61.9600 343.0000 1.0000
61.9700 324.0000 1.0000
61.9800 310.0000 1.0000
61.9900 302.0000 1.0000
62.0000 345.0000 1.0000
62.0100 344.0000 1.0000
62.0200 346.0000 1.0000
62.0300 323.0000 1.0000
62.0400 337.0000 1.0000
62.0500 334.0000 1.0000
62.0600 340.0000 1.0000
62.0700 377.0000 1.0000
62.0800 374.0000 1.0000
62.0900 385.0000 1.0000
62.1000 357.0000 1.0000
62.1100 409.0000 1.0000
62.1200 422.0000 1.0000
62.1300 392.0000 1.0000
62.1400 416.0000 1.0000
62.1500 426.0000 1.0000
62.1600 480.0000 1.0000
62.1700 433.0000 1.0000
62.1800 450.0000 1.0000
62.1900 473.0000 1.0000
62.2000 497.0000 1.0000
62.2100 508.0000 1.0000
62.2200 517.0000 1.0000
62.2300 543.0000 1.0000
62.2400 546.0000 1.0000
62.2500 523.0000 1.0000
62.2600 513.0000 1.0000
62.2700 531.0000 1.0000
62.2800 547.0000 1.0000
62.2900 570.0000 1.0000
62.3000 562.0000 1.0000
62.3100 591.0000 1.0000
62.3200 577.0000 1.0000
62.3300 594.0000 1.0000
62.3400 593.0000 1.0000
62.3500 612.0000 1.0000
62.3600 601.0000 1.0000
62.3700 615.0000 1.0000
62.3800 591.0000 1.0000
62.3900 611.0000 1.0000
62.4000 604.0000 1.0000
62.4100 581.0000 1.0000
62.4200 544.0000 1.0000
62.4300 601.0000 1.0000
62.4400 597.0000 1.0000
62.4500 570.0000 1.0000
62.4600 571.0000 1.0000
62.4700 550.0000 1.0000
62.4800 563.0000 1.0000
62.4900 547.0000 1.0000
62.5000 521.0000 1.0000
62.5100 540.0000 1.0000
62.5200 483.0000 1.0000
62.5300 488.0000 1.0000
62.5400 456.0000 1.0000
62.5500 454.0000 1.0000
62.5600 451.0000 1.0000
62.5700 461.0000 1.0000
62.5800 405.0000 1.0000
62.5900 432.0000 1.0000
62.6000 423.0000 1.0000
62.6100 401.0000 1.0000
62.6200 413.0000 1.0000
62.6300 413.0000 1.0000
62.6400 397.0000 1.0000
62.6500 387.0000 1.0000
62.6600 381.0000 1.0000
62.6700 355.0000 1.0000
62.6800 407.0000 1.0000
62.6900 388.0000 1.0000
62.7000 329.0000 1.0000
62.7100 336.0000 1.0000
62.7200 346.0000 1.0000
62.7300 361.0000 1.0000
62.7400 356.0000 1.0000
62.7500 359.0000 1.0000
62.7600 335.0000 1.0000
62.7700 333.0000 1.0000
62.7800 309.0000 1.0000
62.7900 334.0000 1.0000
62.8000 331.0000 1.0000
62.8100 312.0000 1.0000
62.8200 324.0000 1.0000
62.8300 331.0000 1.0000
62.8400 310.0000 1.0000
62.8500 288.0000 1.0000
62.8600 303.0000 1.0000
62.8700 291.0000 1.0000
62.8800 315.0000 1.0000
62.8900 291.0000 1.0000
62.9000 288.0000 1.0000
62.9100 298.0000 1.0000
62.9200 303.0000 1.0000
62.9300 267.0000 1.0000
62.9400 291.0000 1.0000
62.9500 287.0000 1.0000
62.9600 274.0000 1.0000
62.9700 304.0000 1.0000
62.9800 288.0000 1.0000
62.9900 300.0000 1.0000
63.0000 304.0000 1.0000
63.0100 301.0000 1.0000
63.0200 288.0000 1.0000
63.0300 302.0000 1.0000
63.0400 312.0000 1.0000
63.0500 279.0000 1.0000
63.0600 306.0000 1.0000
63.0700 332.0000 1.0000
63.0800 303.0000 1.0000
63.0900 280.0000 1.0000
63.1000 280.0000 1.0000
63.1100 259.0000 1.0000
63.1200 271.0000 1.0000
63.1300 313.0000 1.0000
63.1400 302.0000 1.0000
63.1500 276.0000 1.0000
63.1600 331.0000 1.0000
63.1700 306.0000 1.0000
63.1800 317.0000 1.0000
63.1900 290.0000 1.0000
63.2000 302.0000 1.0000
63.2100 299.0000 1.0000
63.2200 268.0000 1.0000
63.2300 294.0000 1.0000
63.2400 309.0000 1.0000
63.2500 279.0000 1.0000
63.2600 272.0000 1.0000
63.2700 298.0000 1.0000
63.2800 287.0000 1.0000
63.2900 311.0000 1.0000
63.3000 272.0000 1.0000
63.3100 275.0000 1.0000
63.3200 287.0000 1.0000
63.3300 272.0000 1.0000
63.3400 302.0000 1.0000
63.3500 276.0000 1.0000
63.3600 292.0000 1.0000
63.3700 305.0000 1.0000
63.3800 301.0000 1.0000
63.3900 300.0000 1.0000
63.4000 297.0000 1.0000
63.4100 297.0000 1.0000
63.4200 276.0000 1.0000
63.4300 274.0000 1.0000
63.4400 248.0000 1.0000
63.4500 302.0000 1.0000
63.4600 274.0000 1.0000
63.4700 293.0000 1.0000
63.4800 285.0000 1.0000
63.4900 256.0000 1.0000
63.5000 280.0000 1.0000
63.5100 272.0000 1.0000
63.5200 272.0000 1.0000
63.5300 269.0000 1.0000
63.5400 269.0000 1.0000
63.5500 264.0000 1.0000
63.5600 284.0000 1.0000
63.5700 258.0000 1.0000
63.5800 276.0000 1.0000
63.5900 261.0000 1.0000
63.6000 263.0000 1.0000
63.6100 322.0000 1.0000
63.6200 256.0000 1.0000
63.6300 271.0000 1.0000
63.6400 271.0000 1.0000
63.6500 257.0000 1.0000
63.6600 302.0000 1.0000
63.6700 299.0000 1.0000
63.6800 254.0000 1.0000
63.6900 260.0000 1.0000
63.7000 263.0000 1.0000
63.7100 269.0000 1.0000
63.7200 273.0000 1.0000
63.7300 241.0000 1.0000
63.7400 271.0000 1.0000
63.7500 268.0000 1.0000
63.7600 257.0000 1.0000
63.7700 281.0000 1.0000
63.7800 279.0000 1.0000
63.7900 310.0000 1.0000
63.8000 276.0000 1.0000
63.8100 282.0000 1.0000
63.8200 268.0000 1.0000
63.8300 251.0000 1.0000
63.8400 278.0000 1.0000
63.8500 288.0000 1.0000
63.8600 310.0000 1.0000
63.8700 282.0000 1.0000
63.8800 292.0000 1.0000
63.8900 280.0000 1.0000
63.9000 289.0000 1.0000
63.9100 270.0000 1.0000
63.9200 272.0000 1.0000
63.9300 277.0000 1.0000
63.9400 277.0000 1.0000
63.9500 313.0000 1.0000
63.9600 292.0000 1.0000
63.9700 274.0000 1.0000
63.9800 273.0000 1.0000
63.9900 229.0000 1.0000
64.0000 268.0000 1.0000
64.0100 266.0000 1.0000
64.0200 289.0000 1.0000
64.0300 285.0000 1.0000
64.0400 274.0000 1.0000
64.0500 288.0000 1.0000
64.0600 289.0000 1.0000
64.0700 254.0000 1.0000
64.0800 283.0000 1.0000
64.0900 288.0000 1.0000
64.1000 277.0000 1.0000
64.1100 263.0000 1.0000
64.1200 271.0000 1.0000
64.1300 271.0000 1.0000
64.1400 258.0000 1.0000
64.1500 267.0000 1.0000
64.1600 277.0000 1.0000
64.1700 255.0000 1.0000
64.1800 284.0000 1.0000
64.1900 277.0000 1.0000
64.2000 254.0000 1.0000
64.2100 300.0000 1.0000
64.2200 281.0000 1.0000
64.2300 288.0000 1.0000
64.2400 268.0000 1.0000
64.2500 270.0000 1.0000
64.2600 267.0000 1.0000
64.2700 291.0000 1.0000
64.2800 272.0000 1.0000
64.2900 301.0000 1.0000
64.3000 272.0000 1.0000
64.3100 291.0000 1.0000
64.3200 300.0000 1.0000
64.3300 297.0000 1.0000
64.3400 298.0000 1.0000
64.3500 300.0000 1.0000
64.3600 302.0000 1.0000
64.3700 277.0000 1.0000
64.3800 272.0000 1.0000
64.3900 281.0000 1.0000
64.4000 318.0000 1.0000
64.4100 319.0000 1.0000
64.4200 296.0000 1.0000
64.4300 296.0000 1.0000
64.4400 293.0000 1.0000
64.4500 270.0000 1.0000
64.4600 311.0000 1.0000
64.4700 290.0000 1.0000
64.4800 318.0000 1.0000
64.4900 332.0000 1.0000
64.5000 298.0000 1.0000
64.5100 295.0000 1.0000
64.5200 276.0000 1.0000
64.5300 319.0000 1.0000
64.5400 293.0000 1.0000
64.5500 299.0000 1.0000
64.5600 320.0000 1.0000
64.5700 339.0000 1.0000
64.5800 327.0000 1.0000
64.5900 343.0000 1.0000
64.6000 294.0000 1.0000
64.6100 325.0000 1.0000
64.6200 341.0000 1.0000
64.6300 367.0000 1.0000
64.6400 341.0000 1.0000
64.6500 345.0000 1.0000
64.6600 371.0000 1.0000
64.6700 370.0000 1.0000
64.6800 344.0000 1.0000
64.6900 375.0000 1.0000
64.7000 374.0000 1.0000
64.7100 352.0000 1.0000
64.7200 354.0000 1.0000
64.7300 393.0000 1.0000
64.7400 366.0000 1.0000
64.7500 369.0000 1.0000
64.7600 399.0000 1.0000
64.7700 381.0000 1.0000
64.7800 358.0000 1.0000
64.7900 358.0000 1.0000
64.8000 400.0000 1.0000
64.8100 369.0000 1.0000
64.8200 361.0000 1.0000
64.8300 346.0000 1.0000
64.8400 354.0000 1.0000
64.8500 376.0000 1.0000
64.8600 355.0000 1.0000
64.8700 310.0000 1.0000
64.8800 344.0000 1.0000
64.8900 364.0000 1.0000
64.9000 353.0000 1.0000
64.9100 328.0000 1.0000
64.9200 349.0000 1.0000
64.9300 342.0000 1.0000
64.9400 318.0000 1.0000
64.9500 323.0000 1.0000
64.9600 333.0000 1.0000
64.9700 358.0000 1.0000
64.9800 293.0000 1.0000
64.9900 288.0000 1.0000
65.0000 325.0000 1.0000
65.0100 329.0000 1.0000
65.0200 344.0000 1.0000
65.0300 351.0000 1.0000
65.0400 328.0000 1.0000
65.0500 342.0000 1.0000
65.0600 323.0000 1.0000
65.0700 299.0000 1.0000
65.0800 316.0000 1.0000
65.0900 299.0000 1.0000
65.1000 311.0000 1.0000
65.1100 300.0000 1.0000
65.1200 313.0000 1.0000
65.1300 311.0000 1.0000
65.1400 274.0000 1.0000
65.1500 270.0000 1.0000
65.1600 299.0000 1.0000
65.1700 304.0000 1.0000
65.1800 284.0000 1.0000
65.1900 289.0000 1.0000
65.2000 320.0000 1.0000
65.2100 288.0000 1.0000
65.2200 318.0000 1.0000
65.2300 314.0000 1.0000
65.2400 292.0000 1.0000
65.2500 281.0000 1.0000
65.2600 282.0000 1.0000
65.2700 297.0000 1.0000
65.2800 271.0000 1.0000
65.2900 274.0000 1.0000
65.3000 278.0000 1.0000
65.3100 293.0000 1.0000
65.3200 297.0000 1.0000
65.3300 274.0000 1.0000
65.3400 265.0000 1.0000
65.3500 274.0000 1.0000
65.3600 272.0000 1.0000
65.3700 285.0000 1.0000
65.3800 297.0000 1.0000
65.3900 293.0000 1.0000
65.4000 299.0000 1.0000
65.4100 288.0000 1.0000
65.4200 292.0000 1.0000
65.4300 279.0000 1.0000
65.4400 283.0000 1.0000
65.4500 282.0000 1.0000
65.4600 299.0000 1.0000
65.4700 323.0000 1.0000
65.4800 290.0000 1.0000
65.4900 281.0000 1.0000
65.5000 291.0000 1.0000
65.5100 282.0000 1.0000
65.5200 308.0000 1.0000
65.5300 305.0000 1.0000
65.5400 291.0000 1.0000
65.5500 291.0000 1.0000
65.5600 284.0000 1.0000
65.5700 276.0000 1.0000
65.5800 297.0000 1.0000
65.5900 319.0000 1.0000
65.6000 293.0000 1.0000
65.6100 296.0000 1.0000
65.6200 306.0000 1.0000
65.6300 289.0000 1.0000
65.6400 323.0000 1.0000
65.6500 312.0000 1.0000
65.6600 287.0000 1.0000
65.6700 276.0000 1.0000
65.6800 270.0000 1.0000
65.6900 296.0000 1.0000
65.7000 308.0000 1.0000
65.7100 305.0000 1.0000
65.7200 312.0000 1.0000
65.7300 321.0000 1.0000
65.7400 306.0000 1.0000
65.7500 296.0000 1.0000
65.7600 319.0000 1.0000
65.7700 302.0000 1.0000
65.7800 279.0000 1.0000
65.7900 313.0000 1.0000
65.8000 306.0000 1.0000
65.8100 282.0000 1.0000
65.8200 309.0000 1.0000
65.8300 319.0000 1.0000
65.8400 319.0000 1.0000
65.8500 338.0000 1.0000
65.8600 322.0000 1.0000
65.8700 317.0000 1.0000
65.8800 321.0000 1.0000
65.8900 320.0000 1.0000
65.9000 322.0000 1.0000
65.9100 317.0000 1.0000
65.9200 336.0000 1.0000
65.9300 348.0000 1.0000
65.9400 335.0000 1.0000
65.9500 365.0000 1.0000
65.9600 347.0000 1.0000
65.9700 330.0000 1.0000
65.9800 346.0000 1.0000
65.9900 388.0000 1.0000
66.0000 408.0000 1.0000
66.0100 397.0000 1.0000
66.0200 425.0000 1.0000
66.0300 377.0000 1.0000
66.0400 405.0000 1.0000
66.0500 432.0000 1.0000
66.0600 468.0000 1.0000
66.0700 430.0000 1.0000
66.0800 454.0000 1.0000
66.0900 495.0000 1.0000
66.1000 479.0000 1.0000
66.1100 500.0000 1.0000
66.1200 517.0000 1.0000
66.1300 537.0000 1.0000
66.1400 570.0000 1.0000
66.1500 608.0000 1.0000
66.1600 648.0000 1.0000
66.1700 658.0000 1.0000
66.1800 693.0000 1.0000
66.1900 727.0000 1.0000
66.2000 763.0000 1.0000
66.2100 789.0000 1.0000
66.2200 835.0000 1.0000
66.2300 869.0000 1.0000
66.2400 919.0000 1.0000
66.2500 992.0000 1.0000
66.2600 941.0000 1.0000
66.2700 1055.0000 1.0000
66.2800 1097.0000 1.0000
66.2900 1068.0000 1.0000
66.3000 1108.0000 1.0000
66.3100 1108.0000 1.0000
66.3200 1119.0000 1.0000
66.3300 1076.0000 1.0000
66.3400 1041.0000 1.0000
66.3500 1013.0000 1.0000
66.3600 1102.0000 1.0000
66.3700 1056.0000 1.0000
66.3800 988.0000 1.0000
66.3900 1021.0000 1.0000
66.4000 1001.0000 1.0000
66.4100 959.0000 1.0000
66.4200 949.0000 1.0000
66.4300 904.0000 1.0000
66.4400 914.0000 1.0000
66.4500 928.0000 1.0000
66.4600 905.0000 1.0000
66.4700 895.0000 1.0000
66.4800 899.0000 1.0000
66.4900 862.0000 1.0000
66.5000 831.0000 1.0000
66.5100 852.0000 1.0000
66.5200 828.0000 1.0000
66.5300 726.0000 1.0000
66.5400 724.0000 1.0000
66.5500 696.0000 1.0000
66.5600 671.0000 1.0000
66.5700 648.0000 1.0000
66.5800 594.0000 1.0000
66.5900 627.0000 1.0000
66.6000 634.0000 1.0000
66.6100 566.0000 1.0000
66.6200 527.0000 1.0000
66.6300 500.0000 1.0000
66.6400 492.0000 1.0000
66.6500 487.0000 1.0000
66.6600 431.0000 1.0000
66.6700 457.0000 1.0000
66.6800 416.0000 1.0000
66.6900 415.0000 1.0000
66.7000 400.0000 1.0000
66.7100 436.0000 1.0000
66.7200 389.0000 1.0000
66.7300 361.0000 1.0000
66.7400 373.0000 1.0000
66.7500 354.0000 1.0000
66.7600 349.0000 1.0000
66.7700 340.0000 1.0000
66.7800 353.0000 1.0000
66.7900 371.0000 1.0000
66.8000 371.0000 1.0000
66.8100 348.0000 1.0000
66.8200 372.0000 1.0000
66.8300 356.0000 1.0000
66.8400 295.0000 1.0000
66.8500 280.0000 1.0000
66.8600 302.0000 1.0000
66.8700 306.0000 1.0000
66.8800 301.0000 1.0000
66.8900 321.0000 1.0000
66.9000 303.0000 1.0000
66.9100 305.0000 1.0000
66.9200 292.0000 1.0000
66.9300 283.0000 1.0000
66.9400 290.0000 1.0000
66.9500 281.0000 1.0000
66.9600 293.0000 1.0000
66.9700 309.0000 1.0000
66.9800 319.0000 1.0000
66.9900 310.0000 1.0000
67.0000 307.0000 1.0000
67.0100 298.0000 1.0000
67.0200 256.0000 1.0000
67.0300 252.0000 1.0000
67.0400 264.0000 1.0000
67.0500 269.0000 1.0000
67.0600 275.0000 1.0000
67.0700 277.0000 1.0000
67.0800 287.0000 1.0000
67.0900 303.0000 1.0000
67.1000 311.0000 1.0000
67.1100 257.0000 1.0000
67.1200 283.0000 1.0000
67.1300 269.0000 1.0000
67.1400 298.0000 1.0000
67.1500 257.0000 1.0000
67.1600 272.0000 1.0000
67.1700 270.0000 1.0000
67.1800 277.0000 1.0000
67.1900 248.0000 1.0000
67.2000 278.0000 1.0000
67.2100 260.0000 1.0000
67.2200 263.0000 1.0000
67.2300 263.0000 1.0000
67.2400 261.0000 1.0000
67.2500 264.0000 1.0000
67.2600 272.0000 1.0000
67.2700 252.0000 1.0000
67.2800 258.0000 1.0000
67.2900 245.0000 1.0000
67.3000 271.0000 1.0000
67.3100 279.0000 1.0000
67.3200 276.0000 1.0000
67.3300 266.0000 1.0000
67.3400 260.0000 1.0000
67.3500 283.0000 1.0000
67.3600 259.0000 1.0000
67.3700 252.0000 1.0000
67.3800 289.0000 1.0000
67.3900 261.0000 1.0000
67.4000 262.0000 1.0000
67.4100 240.0000 1.0000
67.4200 241.0000 1.0000
67.4300 264.0000 1.0000
67.4400 284.0000 1.0000
67.4500 269.0000 1.0000
67.4600 265.0000 1.0000
67.4700 266.0000 1.0000
67.4800 270.0000 1.0000
67.4900 272.0000 1.0000
67.5000 269.0000 1.0000
67.5100 243.0000 1.0000
67.5200 262.0000 1.0000
67.5300 275.0000 1.0000
67.5400 285.0000 1.0000
67.5500 257.0000 1.0000
67.5600 273.0000 1.0000
67.5700 279.0000 1.0000
67.5800 265.0000 1.0000
67.5900 287.0000 1.0000
67.6000 268.0000 1.0000
67.6100 250.0000 1.0000
67.6200 292.0000 1.0000
67.6300 279.0000 1.0000
67.6400 261.0000 1.0000
67.6500 244.0000 1.0000
67.6600 263.0000 1.0000
67.6700 257.0000 1.0000
67.6800 251.0000 1.0000
67.6900 255.0000 1.0000
67.7000 255.0000 1.0000
67.7100 262.0000 1.0000
67.7200 297.0000 1.0000
67.7300 263.0000 1.0000
67.7400 243.0000 1.0000
67.7500 222.0000 1.0000
67.7600 259.0000 1.0000
67.7700 272.0000 1.0000
67.7800 258.0000 1.0000
67.7900 246.0000 1.0000
67.8000 254.0000 1.0000
67.8100 265.0000 1.0000
67.8200 259.0000 1.0000
67.8300 246.0000 1.0000
67.8400 261.0000 1.0000
67.8500 267.0000 1.0000
67.8600 276.0000 1.0000
67.8700 255.0000 1.0000
67.8800 259.0000 1.0000
67.8900 254.0000 1.0000
67.9000 254.0000 1.0000
67.9100 267.0000 1.0000
67.9200 250.0000 1.0000
67.9300 264.0000 1.0000
67.9400 268.0000 1.0000
67.9500 263.0000 1.0000
67.9600 223.0000 1.0000
67.9700 243.0000 1.0000
67.9800 254.0000 1.0000
67.9900 252.0000 1.0000
68.0000 263.0000 1.0000
68.0100 242.0000 1.0000
68.0200 276.0000 1.0000
68.0300 247.0000 1.0000
68.0400 256.0000 1.0000
68.0500 283.0000 1.0000
68.0600 240.0000 1.0000
68.0700 250.0000 1.0000
68.0800 239.0000 1.0000
68.0900 246.0000 1.0000
68.1000 243.0000 1.0000
68.1100 256.0000 1.0000
68.1200 262.0000 1.0000
68.1300 254.0000 1.0000
68.1400 281.0000 1.0000
68.1500 252.0000 1.0000
68.1600 245.0000 1.0000
68.1700 245.0000 1.0000
68.1800 257.0000 1.0000
68.1900 259.0000 1.0000
68.2000 262.0000 1.0000
68.2100 251.0000 1.0000
68.2200 224.0000 1.0000
68.2300 243.0000 1.0000
68.2400 243.0000 1.0000
68.2500 225.0000 1.0000
68.2600 243.0000 1.0000
68.2700 262.0000 1.0000
68.2800 245.0000 1.0000
68.2900 238.0000 1.0000
68.3000 256.0000 1.0000
68.3100 223.0000 1.0000
68.3200 234.0000 1.0000
68.3300 247.0000 1.0000
68.3400 278.0000 1.0000
68.3500 252.0000 1.0000
68.3600 271.0000 1.0000
68.3700 241.0000 1.0000
68.3800 248.0000 1.0000
68.3900 237.0000 1.0000
68.4000 253.0000 1.0000
68.4100 275.0000 1.0000
68.4200 249.0000 1.0000
68.4300 236.0000 1.0000
68.4400 243.0000 1.0000
68.4500 228.0000 1.0000
68.4600 235.0000 1.0000
68.4700 252.0000 1.0000
68.4800 262.0000 1.0000
68.4900 236.0000 1.0000
68.5000 255.0000 1.0000
68.5100 239.0000 1.0000
68.5200 268.0000 1.0000
68.5300 265.0000 1.0000
68.5400 251.0000 1.0000
68.5500 252.0000 1.0000
68.5600 241.0000 1.0000
68.5700 248.0000 1.0000
68.5800 236.0000 1.0000
68.5900 246.0000 1.0000
68.6000 246.0000 1.0000
68.6100 258.0000 1.0000
68.6200 230.0000 1.0000
68.6300 247.0000 1.0000
68.6400 235.0000 1.0000
68.6500 235.0000 1.0000
68.6600 251.0000 1.0000
68.6700 240.0000 1.0000
68.6800 234.0000 1.0000
68.6900 249.0000 1.0000
68.7000 233.0000 1.0000
68.7100 249.0000 1.0000
68.7200 240.0000 1.0000
68.7300 245.0000 1.0000
68.7400 252.0000 1.0000
68.7500 263.0000 1.0000
68.7600 238.0000 1.0000
68.7700 244.0000 1.0000
68.7800 257.0000 1.0000
68.7900 236.0000 1.0000
68.8000 230.0000 1.0000
68.8100 240.0000 1.0000
68.8200 247.0000 1.0000
68.8300 251.0000 1.0000
68.8400 243.0000 1.0000
68.8500 244.0000 1.0000
68.8600 237.0000 1.0000
68.8700 242.0000 1.0000
68.8800 250.0000 1.0000
68.8900 270.0000 1.0000
68.9000 247.0000 1.0000
68.9100 247.0000 1.0000
68.9200 228.0000 1.0000
68.9300 250.0000 1.0000
68.9400 246.0000 1.0000
68.9500 272.0000 1.0000
68.9600 257.0000 1.0000
68.9700 251.0000 1.0000
68.9800 242.0000 1.0000
68.9900 243.0000 1.0000
69.0000 263.0000 1.0000
69.0100 242.0000 1.0000
69.0200 229.0000 1.0000
69.0300 242.0000 1.0000
69.0400 251.0000 1.0000
69.0500 248.0000 1.0000
69.0600 210.0000 1.0000
69.0700 247.0000 1.0000
69.0800 246.0000 1.0000
69.0900 251.0000 1.0000
69.1000 248.0000 1.0000
69.1100 249.0000 1.0000
69.1200 239.0000 1.0000
69.1300 264.0000 1.0000
69.1400 232.0000 1.0000
69.1500 229.0000 1.0000
69.1600 227.0000 1.0000
69.1700 227.0000 1.0000
69.1800 247.0000 1.0000
69.1900 256.0000 1.0000
69.2000 242.0000 1.0000
69.2100 242.0000 1.0000
69.2200 236.0000 1.0000
69.2300 228.0000 1.0000
69.2400 239.0000 1.0000
69.2500 247.0000 1.0000
69.2600 263.0000 1.0000
69.2700 220.0000 1.0000
69.2800 252.0000 1.0000
69.2900 243.0000 1.0000
69.3000 263.0000 1.0000
69.3100 236.0000 1.0000
69.3200 237.0000 1.0000
69.3300 268.0000 1.0000
69.3400 268.0000 1.0000
69.3500 265.0000 1.0000
69.3600 258.0000 1.0000
69.3700 239.0000 1.0000
69.3800 240.0000 1.0000
69.3900 238.0000 1.0000
69.4000 254.0000 1.0000
69.4100 240.0000 1.0000
69.4200 261.0000 1.0000
69.4300 239.0000 1.0000
69.4400 246.0000 1.0000
69.4500 261.0000 1.0000
69.4600 249.0000 1.0000
69.4700 243.0000 1.0000
69.4800 238.0000 1.0000
69.4900 223.0000 1.0000
69.5000 246.0000 1.0000
69.5100 250.0000 1.0000
69.5200 231.0000 1.0000
69.5300 263.0000 1.0000
69.5400 254.0000 1.0000
69.5500 257.0000 1.0000
69.5600 271.0000 1.0000
69.5700 246.0000 1.0000
69.5800 264.0000 1.0000
69.5900 247.0000 1.0000
69.6000 250.0000 1.0000
69.6100 240.0000 1.0000
69.6200 254.0000 1.0000
69.6300 250.0000 1.0000
69.6400 226.0000 1.0000
69.6500 250.0000 1.0000
69.6600 257.0000 1.0000
69.6700 255.0000 1.0000
69.6800 238.0000 1.0000
69.6900 239.0000 1.0000
69.7000 252.0000 1.0000
69.7100 249.0000 1.0000
69.7200 250.0000 1.0000
69.7300 245.0000 1.0000
69.7400 253.0000 1.0000
69.7500 255.0000 1.0000
69.7600 247.0000 1.0000
69.7700 234.0000 1.0000
69.7800 226.0000 1.0000
69.7900 243.0000 1.0000
69.8000 240.0000 1.0000
69.8100 223.0000 1.0000
69.8200 263.0000 1.0000
69.8300 253.0000 1.0000
69.8400 252.0000 1.0000
69.8500 239.0000 1.0000
69.8600 248.0000 1.0000
69.8700 211.0000 1.0000
69.8800 240.0000 1.0000
69.8900 219.0000 1.0000
69.9000 258.0000 1.0000
69.9100 240.0000 1.0000
69.9200 271.0000 1.0000
69.9300 252.0000 1.0000
69.9400 243.0000 1.0000
69.9500 244.0000 1.0000
69.9600 225.0000 1.0000
69.9700 226.0000 1.0000
69.9800 236.0000 1.0000
69.9900 248.0000 1.0000
70.0000 238.0000 1.0000
*RAS_INT_END
*RAS_TEMPERATURE_START
*RAS_TEMPERATURE_END
*RAS_DATA_END
