*RAS_DATA_START
*RAS_HEADER_START
*DISP_FMT_X "%.2f"
*DISP_FMT_Y "%.0f"
*DISP_FULLSCALE "12780.0000000000"
*DISP_LINE_COLOR "255.0000000000"
*DISP_LINE_STYLE "0.0000000000"
*DISP_LINE_WIDTH "0.2500000000"
*DISP_NOTE "測定データ-4"
*DISP_OFFSET_Y "0.0000000000"
*DISP_PEAKSEARCH_UNIT_Y "cps"
*DISP_RANGE_BOTTOM "0.0000000000"
*DISP_RANGE_LEFT "20.0000000000"
*DISP_RANGE_LOGCUTOFF "0.0100000000"
*DISP_RANGE_RIGHT "70.0000000000"
*DISP_RANGE_TOP "12780.0000000000"
*DISP_SCALE_MODE_Y "0.0000000000"
*DISP_TAB_NAME "2θ/θ"
*DISP_TITLE_Y "強度"
*DISP_UNIT_Y "cps"
*DISP_WINDOW_NAME "MSG_MACROENGINE"
*FILE_COMMENT " "
*FILE_MD5 ""
*FILE_MEMO " "
*FILE_OPERATOR "Administrator"
*FILE_SAMPLE " "
*FILE_TYPE "RAS_RAW"
*FILE_USERGROUP "システムマネージャ"
*FILE_VERSION "1.0000000000"
*HW_ATTACHMENT_ID "ATT0025"
*HW_ATTACHMENT_NAME "標準|Standard"
*HW_COUNTER_ID-0 "CUT0025"
*HW_COUNTER_ID-1 "CUT0020"
*HW_COUNTER_ID-2 "CUT0020"
*HW_COUNTER_ID-3 "CSL0021"
*HW_COUNTER_ID-4 "CMC0021"
*HW_COUNTER_NAME-0 "D/teX Ultra|D/teX Ultra"
*HW_COUNTER_NAME-1 "None|None"
*HW_COUNTER_NAME-2 "None|None"
*HW_COUNTER_NAME-3 "BBM|BBM"
*HW_COUNTER_NAME-4 "検出器モノクロメータ|Detector monochromator"
*HW_COUNTER_SELECT_NAME "D/teX Ultra|D/teX Ultra"
*HW_GONIOMETER_ID "GON0023"
*HW_GONIOMETER_NAME "SmartLab|SmartLab"
*HW_GONIOMETER_RADIUS-0 "90.0"
*HW_GONIOMETER_RADIUS-1 "114.0"
*HW_GONIOMETER_RADIUS-2 "190.0"
*HW_GONIOMETER_RADIUS-3 "300.0"
*HW_GONIOMETER_RADIUS-4 "187.0"
*HW_GONIOMETER_RADIUS-5 "300.0"
*HW_GONIOMETER_RADIUS-6 "113.0"
*HW_GONIOMETER_RADIUS-7 "331.0"
*HW_I_OPT_ID-0 "CBO0021"
*HW_I_OPT_ID-1 "ICR0023"
*HW_I_OPT_ID-2 "ISL0021"
*HW_I_OPT_ID-3 "ISO0021"
*HW_I_OPT_ID-4 "IAD0021"
*HW_I_OPT_ID-5 "IPR0001"
*HW_I_OPT_NAME-0 "CBOユニット|CBO unit"
*HW_I_OPT_NAME-1 "標準入射光学ユニット|Standard incident optical unit"
*HW_I_OPT_NAME-2 "標準入射スリットボックス|Standard incident slit box"
*HW_I_OPT_NAME-3 "入射平行スリット|Incident parallel slit"
*HW_I_OPT_NAME-4 "長手制限スリット|Length limiting slit"
*HW_I_OPT_NAME-5 "None|None"
*HW_R_ATTENUATER_AUTOMODE "0"
*HW_R_OPT_ID-0 "RSS0021"
*HW_R_OPT_ID-1 "RCR0023"
*HW_R_OPT_ID-2 "RSO0021"
*HW_R_OPT_ID-3 "RRS0021"
*HW_R_OPT_ID-4 "ATN0021"
*HW_R_OPT_ID-5 "RFL0021"
*HW_R_OPT_ID-6 "RAD0021"
*HW_R_OPT_NAME-0 "標準受光スリットボックス1|Standard receiving slit box # 1"
*HW_R_OPT_NAME-1 "標準受光光学ユニット1|Standard receiving unit # 1"
*HW_R_OPT_NAME-2 "標準受光光学ユニット2|Standard receiving optical unit # 2"
*HW_R_OPT_NAME-3 "標準受光スリットボックス2|Standard receiving slit box # 2"
*HW_R_OPT_NAME-4 "標準アッテネータ|Standard Attenuator"
*HW_R_OPT_NAME-5 "Cu Kβ|Cu K-beta"
*HW_R_OPT_NAME-6 "調整用受光スリット|Alignment receiving slit"
*HW_SAMPLE_HOLDER_ID "SMP0023"
*HW_SAMPLE_HOLDER_NAME "標準Zステージ|Standard Z stage"
*HW_XG_CURRENT_MAX "50"
*HW_XG_CURRENT_MIN "2"
*HW_XG_CURRENT_RESOLUTION "1"
*HW_XG_CURRENT_UNIT "mA"
*HW_XG_FOCUS "1mm x 10mm"
*HW_XG_FOCUS_TYPE "Normal"
*HW_XG_ID ""
*HW_XG_NAME "3kW 封入管(ID:1200)|3kW Sealed tube(ID:1200)"
*HW_XG_TARGET_ATOMIC_NUMBER "29.0000000000"
*HW_XG_TARGET_NAME "Cu"
*HW_XG_TYPE "Hermetic"
*HW_XG_VOLTAGE_MAX "60"
*HW_XG_VOLTAGE_MIN "20"
*HW_XG_VOLTAGE_RESOLUTION "1"
*HW_XG_VOLTAGE_UNIT "kV"
*HW_XG_WATT_MAX "1.500"
*HW_XG_WATT_UNIT "kW"
*HW_XG_WAVE_LENGTH_ALPHA1 "1.540593"
*HW_XG_WAVE_LENGTH_ALPHA2 "1.544414"
*HW_XG_WAVE_LENGTH_BETA "1.392250"
*MEAS_COND_AXIS_NAME-0 "2θ/θ"
*MEAS_COND_AXIS_NAME-1 "2θ"
*MEAS_COND_AXIS_NAME-2 "ω"
*MEAS_COND_AXIS_NAME-3 "Z"
*MEAS_COND_AXIS_NAME-4 "2θ/ω"
*MEAS_COND_AXIS_NAME-5 "θs"
*MEAS_COND_AXIS_NAME-6 "θd"
*MEAS_COND_AXIS_NAME-7 "Ts"
*MEAS_COND_AXIS_NAME-8 "CBO選択スリット"
*MEAS_COND_AXIS_NAME-9 "M"
*MEAS_COND_AXIS_NAME-10 "入射平行スリット"
*MEAS_COND_AXIS_NAME-11 "入射スリット"
*MEAS_COND_AXIS_NAME-12 ""
*MEAS_COND_AXIS_NAME-13 "Zs"
*MEAS_COND_AXIS_NAME-14 "入射光学素子"
*MEAS_COND_AXIS_NAME-15 "長手制限スリット"
*MEAS_COND_AXIS_NAME-16 "センタースリット"
*MEAS_COND_AXIS_NAME-17 "フィルター"
*MEAS_COND_AXIS_NAME-18 "受光スリット1"
*MEAS_COND_AXIS_NAME-19 "受光スリット2"
*MEAS_COND_AXIS_NAME-20 "受光光学素子"
*MEAS_COND_AXIS_NAME-21 "受光平行スリット"
*MEAS_COND_AXIS_NAME-22 "調整用受光スリット"
*MEAS_COND_AXIS_NAME-23 ""
*MEAS_COND_AXIS_NAME-24 ""
*MEAS_COND_AXIS_NAME-25 "Zd"
*MEAS_COND_AXIS_NAME-26 "アッテネータ"
*MEAS_COND_AXIS_NAME-27 "検出器モノクロメータ"
*MEAS_COND_AXIS_NAME-28 "モノクロメータスリット"
*MEAS_COND_AXIS_NAME-29 "プライマリビーム"
*MEAS_COND_AXIS_NAME-30 "PHA"
*MEAS_COND_AXIS_NAME_INTERNAL-0 "TwoThetaTheta"
*MEAS_COND_AXIS_NAME_INTERNAL-1 "TwoTheta"
*MEAS_COND_AXIS_NAME_INTERNAL-2 "Omega"
*MEAS_COND_AXIS_NAME_INTERNAL-3 "Z"
*MEAS_COND_AXIS_NAME_INTERNAL-4 "TwoThetaOmega"
*MEAS_COND_AXIS_NAME_INTERNAL-5 "ThetaS"
*MEAS_COND_AXIS_NAME_INTERNAL-6 "ThetaD"
*MEAS_COND_AXIS_NAME_INTERNAL-7 "Ts"
*MEAS_COND_AXIS_NAME_INTERNAL-8 "CBO"
*MEAS_COND_AXIS_NAME_INTERNAL-9 "CBO-M"
*MEAS_COND_AXIS_NAME_INTERNAL-10 "IncidentSollerSlit"
*MEAS_COND_AXIS_NAME_INTERNAL-11 "IncidentSlitBox"
*MEAS_COND_AXIS_NAME_INTERNAL-12 "IncidentSlitBox-_Axis"
*MEAS_COND_AXIS_NAME_INTERNAL-13 "Zs"
*MEAS_COND_AXIS_NAME_INTERNAL-14 "IncidentMonochromator"
*MEAS_COND_AXIS_NAME_INTERNAL-15 "IncidentAxdSlit"
*MEAS_COND_AXIS_NAME_INTERNAL-16 "CenterSlit"
*MEAS_COND_AXIS_NAME_INTERNAL-17 "Filter"
*MEAS_COND_AXIS_NAME_INTERNAL-18 "ReceivingSlitBox1"
*MEAS_COND_AXIS_NAME_INTERNAL-19 "ReceivingSlitBox2"
*MEAS_COND_AXIS_NAME_INTERNAL-20 "ReceivingOptics"
*MEAS_COND_AXIS_NAME_INTERNAL-21 "ReceivingSollerSlit"
*MEAS_COND_AXIS_NAME_INTERNAL-22 "ReceivingAxdSlit"
*MEAS_COND_AXIS_NAME_INTERNAL-23 "ReceivingSlitBox1-_Axis"
*MEAS_COND_AXIS_NAME_INTERNAL-24 "ReceivingSlitBox2-_Axis"
*MEAS_COND_AXIS_NAME_INTERNAL-25 "ReceivingSlitBox2-Zd"
*MEAS_COND_AXIS_NAME_INTERNAL-26 "Attenuator"
*MEAS_COND_AXIS_NAME_INTERNAL-27 "CounterMonochromator"
*MEAS_COND_AXIS_NAME_INTERNAL-28 "CounterSlit"
*MEAS_COND_AXIS_NAME_INTERNAL-29 "IncidentPrimary"
*MEAS_COND_AXIS_NAME_INTERNAL-30 "PHA"
*MEAS_COND_AXIS_NAME_MAGICNO-0 "83951616.0000000000"
*MEAS_COND_AXIS_NAME_MAGICNO-1 "268632064.0000000000"
*MEAS_COND_AXIS_NAME_MAGICNO-2 "268500992.0000000000"
*MEAS_COND_AXIS_NAME_MAGICNO-3 "285278208.0000000000"
*MEAS_COND_AXIS_NAME_MAGICNO-4 "83951616.0000000000"
*MEAS_COND_AXIS_NAME_MAGICNO-5 "131072.0000000000"
*MEAS_COND_AXIS_NAME_MAGICNO-6 "131072.0000000000"
*MEAS_COND_AXIS_NAME_MAGICNO-7 "318898176.0000000000"
*MEAS_COND_AXIS_NAME_MAGICNO-8 "20971521.0000000000"
*MEAS_COND_AXIS_NAME_MAGICNO-9 "285343744.0000000000"
*MEAS_COND_AXIS_NAME_MAGICNO-10 "20971521.0000000000"
*MEAS_COND_AXIS_NAME_MAGICNO-11 "22020097.0000000000"
*MEAS_COND_AXIS_NAME_MAGICNO-12 "25165824.0000000000"
*MEAS_COND_AXIS_NAME_MAGICNO-13 "318898176.0000000000"
*MEAS_COND_AXIS_NAME_MAGICNO-14 "1.0000000000"
*MEAS_COND_AXIS_NAME_MAGICNO-15 "20971521.0000000000"
*MEAS_COND_AXIS_NAME_MAGICNO-16 "20971521.0000000000"
*MEAS_COND_AXIS_NAME_MAGICNO-17 "20971521.0000000000"
*MEAS_COND_AXIS_NAME_MAGICNO-18 "23068673.0000000000"
*MEAS_COND_AXIS_NAME_MAGICNO-19 "23068673.0000000000"
*MEAS_COND_AXIS_NAME_MAGICNO-20 "20971521.0000000000"
*MEAS_COND_AXIS_NAME_MAGICNO-21 "20971521.0000000000"
*MEAS_COND_AXIS_NAME_MAGICNO-22 "20971521.0000000000"
*MEAS_COND_AXIS_NAME_MAGICNO-23 "25165824.0000000000"
*MEAS_COND_AXIS_NAME_MAGICNO-24 "25165824.0000000000"
*MEAS_COND_AXIS_NAME_MAGICNO-25 "285343744.0000000000"
*MEAS_COND_AXIS_NAME_MAGICNO-26 "17301505.0000000000"
*MEAS_COND_AXIS_NAME_MAGICNO-27 "20971521.0000000000"
*MEAS_COND_AXIS_NAME_MAGICNO-28 "20971521.0000000000"
*MEAS_COND_AXIS_NAME_MAGICNO-29 "20971521.0000000000"
*MEAS_COND_AXIS_NAME_MAGICNO-30 "0.0000000000"
*MEAS_COND_AXIS_OFFSET-0 "-"
*MEAS_COND_AXIS_OFFSET-1 "-0.1081000000"
*MEAS_COND_AXIS_OFFSET-2 "0.3758000000"
*MEAS_COND_AXIS_OFFSET-3 "-"
*MEAS_COND_AXIS_OFFSET-4 "-"
*MEAS_COND_AXIS_OFFSET-5 "0.3758000000"
*MEAS_COND_AXIS_OFFSET-6 "-0.4839000000"
*MEAS_COND_AXIS_OFFSET-7 "-"
*MEAS_COND_AXIS_OFFSET-8 "-"
*MEAS_COND_AXIS_OFFSET-9 "-"
*MEAS_COND_AXIS_OFFSET-10 "-"
*MEAS_COND_AXIS_OFFSET-11 "-"
*MEAS_COND_AXIS_OFFSET-12 "-"
*MEAS_COND_AXIS_OFFSET-13 "-"
*MEAS_COND_AXIS_OFFSET-14 "-"
*MEAS_COND_AXIS_OFFSET-15 "-"
*MEAS_COND_AXIS_OFFSET-16 "-"
*MEAS_COND_AXIS_OFFSET-17 "-"
*MEAS_COND_AXIS_OFFSET-18 "-"
*MEAS_COND_AXIS_OFFSET-19 "-"
*MEAS_COND_AXIS_OFFSET-20 "-"
*MEAS_COND_AXIS_OFFSET-21 "-"
*MEAS_COND_AXIS_OFFSET-22 "-"
*MEAS_COND_AXIS_OFFSET-23 "-"
*MEAS_COND_AXIS_OFFSET-24 "-"
*MEAS_COND_AXIS_OFFSET-25 "-"
*MEAS_COND_AXIS_OFFSET-26 "-"
*MEAS_COND_AXIS_OFFSET-27 "-"
*MEAS_COND_AXIS_OFFSET-28 "-"
*MEAS_COND_AXIS_OFFSET-29 "-"
*MEAS_COND_AXIS_OFFSET-30 "-"
*MEAS_COND_AXIS_POSITION-0 "0.0000000000"
*MEAS_COND_AXIS_POSITION-1 "0.0000000000"
*MEAS_COND_AXIS_POSITION-2 "0.0000000000"
*MEAS_COND_AXIS_POSITION-3 "-0.5500000000"
*MEAS_COND_AXIS_POSITION-4 "0.0000000000"
*MEAS_COND_AXIS_POSITION-5 "0.0000000000"
*MEAS_COND_AXIS_POSITION-6 "0.0000000000"
*MEAS_COND_AXIS_POSITION-7 "-0.4278800000"
*MEAS_COND_AXIS_POSITION-8 "BB"
*MEAS_COND_AXIS_POSITION-9 "0.0000000000"
*MEAS_COND_AXIS_POSITION-10 "Soller_slit_5.0deg"
*MEAS_COND_AXIS_POSITION-11 "2/3deg"
*MEAS_COND_AXIS_POSITION-12 "2.2088000000"
*MEAS_COND_AXIS_POSITION-13 "-0.4140600000"
*MEAS_COND_AXIS_POSITION-14 "0.0000000000"
*MEAS_COND_AXIS_POSITION-15 "10.0mm"
*MEAS_COND_AXIS_POSITION-16 "None"
*MEAS_COND_AXIS_POSITION-17 "Cu_K-beta"
*MEAS_COND_AXIS_POSITION-18 "13.000mm"
*MEAS_COND_AXIS_POSITION-19 "13.000mm"
*MEAS_COND_AXIS_POSITION-20 "No_unit"
*MEAS_COND_AXIS_POSITION-21 "Soller_slit_5.0deg"
*MEAS_COND_AXIS_POSITION-22 "None"
*MEAS_COND_AXIS_POSITION-23 "13.0000000000"
*MEAS_COND_AXIS_POSITION-24 "13.0000000000"
*MEAS_COND_AXIS_POSITION-25 "0.0109400000"
*MEAS_COND_AXIS_POSITION-26 "Open"
*MEAS_COND_AXIS_POSITION-27 "None"
*MEAS_COND_AXIS_POSITION-28 "None"
*MEAS_COND_AXIS_POSITION-29 "None"
*MEAS_COND_AXIS_POSITION-30 "38.0000000000"
*MEAS_COND_AXIS_UNIT-0 "deg"
*MEAS_COND_AXIS_UNIT-1 "deg"
*MEAS_COND_AXIS_UNIT-2 "deg"
*MEAS_COND_AXIS_UNIT-3 "mm"
*MEAS_COND_AXIS_UNIT-4 "deg"
*MEAS_COND_AXIS_UNIT-5 "deg"
*MEAS_COND_AXIS_UNIT-6 "deg"
*MEAS_COND_AXIS_UNIT-7 "mm"
*MEAS_COND_AXIS_UNIT-8 ""
*MEAS_COND_AXIS_UNIT-9 "pulse"
*MEAS_COND_AXIS_UNIT-10 ""
*MEAS_COND_AXIS_UNIT-11 ""
*MEAS_COND_AXIS_UNIT-12 "mm"
*MEAS_COND_AXIS_UNIT-13 "mm"
*MEAS_COND_AXIS_UNIT-14 ""
*MEAS_COND_AXIS_UNIT-15 ""
*MEAS_COND_AXIS_UNIT-16 ""
*MEAS_COND_AXIS_UNIT-17 ""
*MEAS_COND_AXIS_UNIT-18 ""
*MEAS_COND_AXIS_UNIT-19 ""
*MEAS_COND_AXIS_UNIT-20 ""
*MEAS_COND_AXIS_UNIT-21 ""
*MEAS_COND_AXIS_UNIT-22 ""
*MEAS_COND_AXIS_UNIT-23 "mm"
*MEAS_COND_AXIS_UNIT-24 "mm"
*MEAS_COND_AXIS_UNIT-25 "mm"
*MEAS_COND_AXIS_UNIT-26 ""
*MEAS_COND_AXIS_UNIT-27 ""
*MEAS_COND_AXIS_UNIT-28 ""
*MEAS_COND_AXIS_UNIT-29 ""
*MEAS_COND_AXIS_UNIT-30 "div"
*MEAS_COND_COUNTER_CNTLOSS_CORR "0.0000000000"
*MEAS_COND_COUNTER_PHABASE "38.0000000000"
*MEAS_COND_COUNTER_PHAWINDOW "16.0000000000"
*MEAS_COND_COUNTER_PHA_UNIT "div"
*MEAS_COND_COUNTER_TAUDIFF "30.0000000000"
*MEAS_COND_COUNTER_TAUINT "0.0000000000"
*MEAS_COND_IRRADIATION_MODE "OFF"
*MEAS_COND_IRRADIATION_WIDTH ""
*MEAS_COND_OPT_ATTR "集中法"
*MEAS_COND_OPT_NAME "@集中法"
*MEAS_COND_UNSYMMETRIC_MODE "OFF"
*MEAS_COND_XG_CURRENT "30.0000000000"
*MEAS_COND_XG_VOLTAGE "40.0000000000"
*MEAS_COND_XG_WAVE_TYPE "Ka"
*MEAS_DATA_COUNT "5001.0000000000"
*MEAS_SCAN_AXIS_X "2θ/θ"
*MEAS_SCAN_AXIS_X_INTERNAL "TwoThetaTheta"
*MEAS_SCAN_END_TIME "07/28/21 12:28:22"
*MEAS_SCAN_MODE "CONTINUOUS"
*MEAS_SCAN_MONITOR "0"
*MEAS_SCAN_RESOLUTION_X "0.0002"
*MEAS_SCAN_SPEED "2.5"
*MEAS_SCAN_SPEED_UNIT "deg/min"
*MEAS_SCAN_START "20.0000000000"
*MEAS_SCAN_START_TIME "07/28/21 12:06:58"
*MEAS_SCAN_STEP "0.0100000000"
*MEAS_SCAN_STOP "70.0000000000"
*MEAS_SCAN_UNIT_X "deg"
*MEAS_SCAN_UNIT_Y "counts"
*RAS_HEADER_END
*RAS_INT_START
20.0000 625.0000 1.0000
20.0100 576.0000 1.0000
20.0200 600.0000 1.0000
20.0300 604.0000 1.0000
20.0400 601.0000 1.0000
20.0500 601.0000 1.0000
20.0600 615.0000 1.0000
20.0700 636.0000 1.0000
20.0800 630.0000 1.0000
20.0900 629.0000 1.0000
20.1000 584.0000 1.0000
20.1100 609.0000 1.0000
20.1200 641.0000 1.0000
20.1300 600.0000 1.0000
20.1400 642.0000 1.0000
20.1500 603.0000 1.0000
20.1600 639.0000 1.0000
20.1700 616.0000 1.0000
20.1800 573.0000 1.0000
20.1900 657.0000 1.0000
20.2000 613.0000 1.0000
20.2100 646.0000 1.0000
20.2200 660.0000 1.0000
20.2300 623.0000 1.0000
20.2400 633.0000 1.0000
20.2500 595.0000 1.0000
20.2600 649.0000 1.0000
20.2700 608.0000 1.0000
20.2800 616.0000 1.0000
20.2900 676.0000 1.0000
20.3000 645.0000 1.0000
20.3100 658.0000 1.0000
20.3200 655.0000 1.0000
20.3300 672.0000 1.0000
20.3400 603.0000 1.0000
20.3500 635.0000 1.0000
20.3600 641.0000 1.0000
20.3700 624.0000 1.0000
20.3800 600.0000 1.0000
20.3900 631.0000 1.0000
20.4000 643.0000 1.0000
20.4100 595.0000 1.0000
20.4200 615.0000 1.0000
20.4300 628.0000 1.0000
20.4400 582.0000 1.0000
20.4500 596.0000 1.0000
20.4600 586.0000 1.0000
20.4700 659.0000 1.0000
20.4800 613.0000 1.0000
20.4900 625.0000 1.0000
20.5000 605.0000 1.0000
20.5100 640.0000 1.0000
20.5200 642.0000 1.0000
20.5300 568.0000 1.0000
20.5400 614.0000 1.0000
20.5500 600.0000 1.0000
20.5600 631.0000 1.0000
20.5700 627.0000 1.0000
20.5800 592.0000 1.0000
20.5900 644.0000 1.0000
20.6000 669.0000 1.0000
20.6100 649.0000 1.0000
20.6200 624.0000 1.0000
20.6300 562.0000 1.0000
20.6400 633.0000 1.0000
20.6500 613.0000 1.0000
20.6600 625.0000 1.0000
20.6700 573.0000 1.0000
20.6800 617.0000 1.0000
20.6900 644.0000 1.0000
20.7000 626.0000 1.0000
20.7100 631.0000 1.0000
20.7200 624.0000 1.0000
20.7300 663.0000 1.0000
20.7400 596.0000 1.0000
20.7500 626.0000 1.0000
20.7600 617.0000 1.0000
20.7700 598.0000 1.0000
20.7800 618.0000 1.0000
20.7900 634.0000 1.0000
20.8000 585.0000 1.0000
20.8100 619.0000 1.0000
20.8200 651.0000 1.0000
20.8300 586.0000 1.0000
20.8400 636.0000 1.0000
20.8500 650.0000 1.0000
20.8600 656.0000 1.0000
20.8700 639.0000 1.0000
20.8800 656.0000 1.0000
20.8900 612.0000 1.0000
20.9000 632.0000 1.0000
20.9100 618.0000 1.0000
20.9200 619.0000 1.0000
20.9300 604.0000 1.0000
20.9400 598.0000 1.0000
20.9500 622.0000 1.0000
20.9600 659.0000 1.0000
20.9700 616.0000 1.0000
20.9800 633.0000 1.0000
20.9900 625.0000 1.0000
21.0000 589.0000 1.0000
21.0100 561.0000 1.0000
21.0200 617.0000 1.0000
21.0300 663.0000 1.0000
21.0400 670.0000 1.0000
21.0500 650.0000 1.0000
21.0600 623.0000 1.0000
21.0700 657.0000 1.0000
21.0800 624.0000 1.0000
21.0900 633.0000 1.0000
21.1000 629.0000 1.0000
21.1100 618.0000 1.0000
21.1200 643.0000 1.0000
21.1300 631.0000 1.0000
21.1400 643.0000 1.0000
21.1500 630.0000 1.0000
21.1600 620.0000 1.0000
21.1700 648.0000 1.0000
21.1800 580.0000 1.0000
21.1900 623.0000 1.0000
21.2000 623.0000 1.0000
21.2100 595.0000 1.0000
21.2200 605.0000 1.0000
21.2300 633.0000 1.0000
21.2400 628.0000 1.0000
21.2500 627.0000 1.0000
21.2600 620.0000 1.0000
21.2700 610.0000 1.0000
21.2800 650.0000 1.0000
21.2900 667.0000 1.0000
21.3000 585.0000 1.0000
21.3100 593.0000 1.0000
21.3200 665.0000 1.0000
21.3300 641.0000 1.0000
21.3400 613.0000 1.0000
21.3500 588.0000 1.0000
21.3600 604.0000 1.0000
21.3700 636.0000 1.0000
21.3800 620.0000 1.0000
21.3900 653.0000 1.0000
21.4000 633.0000 1.0000
21.4100 618.0000 1.0000
21.4200 630.0000 1.0000
21.4300 582.0000 1.0000
21.4400 630.0000 1.0000
21.4500 665.0000 1.0000
21.4600 622.0000 1.0000
21.4700 642.0000 1.0000
21.4800 619.0000 1.0000
21.4900 601.0000 1.0000
21.5000 602.0000 1.0000
21.5100 619.0000 1.0000
21.5200 594.0000 1.0000
21.5300 598.0000 1.0000
21.5400 633.0000 1.0000
21.5500 595.0000 1.0000
21.5600 602.0000 1.0000
21.5700 630.0000 1.0000
21.5800 659.0000 1.0000
21.5900 622.0000 1.0000
21.6000 597.0000 1.0000
21.6100 621.0000 1.0000
21.6200 622.0000 1.0000
21.6300 638.0000 1.0000
21.6400 630.0000 1.0000
21.6500 599.0000 1.0000
21.6600 637.0000 1.0000
21.6700 618.0000 1.0000
21.6800 647.0000 1.0000
21.6900 618.0000 1.0000
21.7000 653.0000 1.0000
21.7100 611.0000 1.0000
21.7200 628.0000 1.0000
21.7300 669.0000 1.0000
21.7400 628.0000 1.0000
21.7500 600.0000 1.0000
21.7600 642.0000 1.0000
21.7700 584.0000 1.0000
21.7800 600.0000 1.0000
21.7900 598.0000 1.0000
21.8000 622.0000 1.0000
21.8100 613.0000 1.0000
21.8200 617.0000 1.0000
21.8300 638.0000 1.0000
21.8400 636.0000 1.0000
21.8500 631.0000 1.0000
21.8600 657.0000 1.0000
21.8700 629.0000 1.0000
21.8800 632.0000 1.0000
21.8900 631.0000 1.0000
21.9000 606.0000 1.0000
21.9100 663.0000 1.0000
21.9200 657.0000 1.0000
21.9300 657.0000 1.0000
21.9400 639.0000 1.0000
21.9500 608.0000 1.0000
21.9600 615.0000 1.0000
21.9700 576.0000 1.0000
21.9800 616.0000 1.0000
21.9900 610.0000 1.0000
22.0000 634.0000 1.0000
22.0100 608.0000 1.0000
22.0200 614.0000 1.0000
22.0300 638.0000 1.0000
22.0400 602.0000 1.0000
22.0500 579.0000 1.0000
22.0600 636.0000 1.0000
22.0700 638.0000 1.0000
22.0800 628.0000 1.0000
22.0900 639.0000 1.0000
22.1000 605.0000 1.0000
22.1100 631.0000 1.0000
22.1200 627.0000 1.0000
22.1300 638.0000 1.0000
22.1400 673.0000 1.0000
22.1500 640.0000 1.0000
22.1600 646.0000 1.0000
22.1700 603.0000 1.0000
22.1800 642.0000 1.0000
22.1900 646.0000 1.0000
22.2000 648.0000 1.0000
22.2100 631.0000 1.0000
22.2200 636.0000 1.0000
22.2300 600.0000 1.0000
22.2400 630.0000 1.0000
22.2500 636.0000 1.0000
22.2600 631.0000 1.0000
22.2700 625.0000 1.0000
22.2800 604.0000 1.0000
22.2900 601.0000 1.0000
22.3000 648.0000 1.0000
22.3100 582.0000 1.0000
22.3200 600.0000 1.0000
22.3300 655.0000 1.0000
22.3400 613.0000 1.0000
22.3500 636.0000 1.0000
22.3600 635.0000 1.0000
22.3700 699.0000 1.0000
22.3800 650.0000 1.0000
22.3900 618.0000 1.0000
22.4000 588.0000 1.0000
22.4100 631.0000 1.0000
22.4200 614.0000 1.0000
22.4300 644.0000 1.0000
22.4400 657.0000 1.0000
22.4500 657.0000 1.0000
22.4600 668.0000 1.0000
22.4700 621.0000 1.0000
22.4800 608.0000 1.0000
22.4900 629.0000 1.0000
22.5000 638.0000 1.0000
22.5100 617.0000 1.0000
22.5200 628.0000 1.0000
22.5300 635.0000 1.0000
22.5400 618.0000 1.0000
22.5500 645.0000 1.0000
22.5600 617.0000 1.0000
22.5700 671.0000 1.0000
22.5800 623.0000 1.0000
22.5900 679.0000 1.0000
22.6000 647.0000 1.0000
22.6100 613.0000 1.0000
22.6200 615.0000 1.0000
22.6300 615.0000 1.0000
22.6400 668.0000 1.0000
22.6500 640.0000 1.0000
22.6600 661.0000 1.0000
22.6700 616.0000 1.0000
22.6800 621.0000 1.0000
22.6900 685.0000 1.0000
22.7000 630.0000 1.0000
22.7100 639.0000 1.0000
22.7200 650.0000 1.0000
22.7300 628.0000 1.0000
22.7400 673.0000 1.0000
22.7500 631.0000 1.0000
22.7600 610.0000 1.0000
22.7700 609.0000 1.0000
22.7800 643.0000 1.0000
22.7900 652.0000 1.0000
22.8000 656.0000 1.0000
22.8100 640.0000 1.0000
22.8200 643.0000 1.0000
22.8300 663.0000 1.0000
22.8400 644.0000 1.0000
22.8500 634.0000 1.0000
22.8600 639.0000 1.0000
22.8700 622.0000 1.0000
22.8800 631.0000 1.0000
22.8900 635.0000 1.0000
22.9000 659.0000 1.0000
22.9100 618.0000 1.0000
22.9200 723.0000 1.0000
22.9300 654.0000 1.0000
22.9400 639.0000 1.0000
22.9500 652.0000 1.0000
22.9600 679.0000 1.0000
22.9700 675.0000 1.0000
22.9800 665.0000 1.0000
22.9900 647.0000 1.0000
23.0000 645.0000 1.0000
23.0100 630.0000 1.0000
23.0200 601.0000 1.0000
23.0300 645.0000 1.0000
23.0400 602.0000 1.0000
23.0500 624.0000 1.0000
23.0600 678.0000 1.0000
23.0700 700.0000 1.0000
23.0800 616.0000 1.0000
23.0900 622.0000 1.0000
23.1000 647.0000 1.0000
23.1100 623.0000 1.0000
23.1200 655.0000 1.0000
23.1300 646.0000 1.0000
23.1400 653.0000 1.0000
23.1500 641.0000 1.0000
23.1600 658.0000 1.0000
23.1700 638.0000 1.0000
23.1800 652.0000 1.0000
23.1900 671.0000 1.0000
23.2000 616.0000 1.0000
23.2100 629.0000 1.0000
23.2200 622.0000 1.0000
23.2300 651.0000 1.0000
23.2400 666.0000 1.0000
23.2500 637.0000 1.0000
23.2600 648.0000 1.0000
23.2700 639.0000 1.0000
23.2800 659.0000 1.0000
23.2900 657.0000 1.0000
23.3000 636.0000 1.0000
23.3100 598.0000 1.0000
23.3200 636.0000 1.0000
23.3300 703.0000 1.0000
23.3400 642.0000 1.0000
23.3500 636.0000 1.0000
23.3600 646.0000 1.0000
23.3700 648.0000 1.0000
23.3800 633.0000 1.0000
23.3900 631.0000 1.0000
23.4000 646.0000 1.0000
23.4100 647.0000 1.0000
23.4200 628.0000 1.0000
23.4300 638.0000 1.0000
23.4400 650.0000 1.0000
23.4500 613.0000 1.0000
23.4600 649.0000 1.0000
23.4700 660.0000 1.0000
23.4800 689.0000 1.0000
23.4900 644.0000 1.0000
23.5000 600.0000 1.0000
23.5100 640.0000 1.0000
23.5200 638.0000 1.0000
23.5300 669.0000 1.0000
23.5400 653.0000 1.0000
23.5500 638.0000 1.0000
23.5600 646.0000 1.0000
23.5700 646.0000 1.0000
23.5800 659.0000 1.0000
23.5900 641.0000 1.0000
23.6000 648.0000 1.0000
23.6100 602.0000 1.0000
23.6200 628.0000 1.0000
23.6300 669.0000 1.0000
23.6400 605.0000 1.0000
23.6500 680.0000 1.0000
23.6600 619.0000 1.0000
23.6700 663.0000 1.0000
23.6800 672.0000 1.0000
23.6900 628.0000 1.0000
23.7000 637.0000 1.0000
23.7100 635.0000 1.0000
23.7200 640.0000 1.0000
23.7300 665.0000 1.0000
23.7400 643.0000 1.0000
23.7500 628.0000 1.0000
23.7600 633.0000 1.0000
23.7700 667.0000 1.0000
23.7800 630.0000 1.0000
23.7900 673.0000 1.0000
23.8000 674.0000 1.0000
23.8100 720.0000 1.0000
23.8200 658.0000 1.0000
23.8300 673.0000 1.0000
23.8400 639.0000 1.0000
23.8500 690.0000 1.0000
23.8600 637.0000 1.0000
23.8700 674.0000 1.0000
23.8800 646.0000 1.0000
23.8900 628.0000 1.0000
23.9000 643.0000 1.0000
23.9100 691.0000 1.0000
23.9200 646.0000 1.0000
23.9300 677.0000 1.0000
23.9400 630.0000 1.0000
23.9500 646.0000 1.0000
23.9600 678.0000 1.0000
23.9700 627.0000 1.0000
23.9800 650.0000 1.0000
23.9900 695.0000 1.0000
24.0000 649.0000 1.0000
24.0100 644.0000 1.0000
24.0200 661.0000 1.0000
24.0300 659.0000 1.0000
24.0400 646.0000 1.0000
24.0500 677.0000 1.0000
24.0600 605.0000 1.0000
24.0700 662.0000 1.0000
24.0800 635.0000 1.0000
24.0900 628.0000 1.0000
24.1000 649.0000 1.0000
24.1100 656.0000 1.0000
24.1200 634.0000 1.0000
24.1300 656.0000 1.0000
24.1400 653.0000 1.0000
24.1500 699.0000 1.0000
24.1600 620.0000 1.0000
24.1700 643.0000 1.0000
24.1800 641.0000 1.0000
24.1900 663.0000 1.0000
24.2000 668.0000 1.0000
24.2100 662.0000 1.0000
24.2200 633.0000 1.0000
24.2300 679.0000 1.0000
24.2400 618.0000 1.0000
24.2500 637.0000 1.0000
24.2600 624.0000 1.0000
24.2700 699.0000 1.0000
24.2800 652.0000 1.0000
24.2900 663.0000 1.0000
24.3000 649.0000 1.0000
24.3100 658.0000 1.0000
24.3200 662.0000 1.0000
24.3300 664.0000 1.0000
24.3400 682.0000 1.0000
24.3500 685.0000 1.0000
24.3600 687.0000 1.0000
24.3700 661.0000 1.0000
24.3800 657.0000 1.0000
24.3900 664.0000 1.0000
24.4000 640.0000 1.0000
24.4100 637.0000 1.0000
24.4200 657.0000 1.0000
24.4300 636.0000 1.0000
24.4400 676.0000 1.0000
24.4500 677.0000 1.0000
24.4600 628.0000 1.0000
24.4700 627.0000 1.0000
24.4800 633.0000 1.0000
24.4900 645.0000 1.0000
24.5000 696.0000 1.0000
24.5100 670.0000 1.0000
24.5200 649.0000 1.0000
24.5300 627.0000 1.0000
24.5400 685.0000 1.0000
24.5500 676.0000 1.0000
24.5600 651.0000 1.0000
24.5700 645.0000 1.0000
24.5800 702.0000 1.0000
24.5900 656.0000 1.0000
24.6000 679.0000 1.0000
24.6100 642.0000 1.0000
24.6200 648.0000 1.0000
24.6300 647.0000 1.0000
24.6400 626.0000 1.0000
24.6500 682.0000 1.0000
24.6600 679.0000 1.0000
24.6700 663.0000 1.0000
24.6800 645.0000 1.0000
24.6900 669.0000 1.0000
24.7000 674.0000 1.0000
24.7100 643.0000 1.0000
24.7200 697.0000 1.0000
24.7300 683.0000 1.0000
24.7400 665.0000 1.0000
24.7500 655.0000 1.0000
24.7600 679.0000 1.0000
24.7700 662.0000 1.0000
24.7800 614.0000 1.0000
24.7900 671.0000 1.0000
24.8000 654.0000 1.0000
24.8100 637.0000 1.0000
24.8200 659.0000 1.0000
24.8300 648.0000 1.0000
24.8400 704.0000 1.0000
24.8500 635.0000 1.0000
24.8600 671.0000 1.0000
24.8700 660.0000 1.0000
24.8800 739.0000 1.0000
24.8900 643.0000 1.0000
24.9000 690.0000 1.0000
24.9100 697.0000 1.0000
24.9200 683.0000 1.0000
24.9300 678.0000 1.0000
24.9400 657.0000 1.0000
24.9500 707.0000 1.0000
24.9600 714.0000 1.0000
24.9700 652.0000 1.0000
24.9800 677.0000 1.0000
24.9900 685.0000 1.0000
25.0000 672.0000 1.0000
25.0100 641.0000 1.0000
25.0200 681.0000 1.0000
25.0300 681.0000 1.0000
25.0400 715.0000 1.0000
25.0500 693.0000 1.0000
25.0600 668.0000 1.0000
25.0700 726.0000 1.0000
25.0800 702.0000 1.0000
25.0900 703.0000 1.0000
25.1000 706.0000 1.0000
25.1100 637.0000 1.0000
25.1200 696.0000 1.0000
25.1300 678.0000 1.0000
25.1400 706.0000 1.0000
25.1500 699.0000 1.0000
25.1600 695.0000 1.0000
25.1700 684.0000 1.0000
25.1800 676.0000 1.0000
25.1900 715.0000 1.0000
25.2000 679.0000 1.0000
25.2100 700.0000 1.0000
25.2200 713.0000 1.0000
25.2300 674.0000 1.0000
25.2400 676.0000 1.0000
25.2500 678.0000 1.0000
25.2600 647.0000 1.0000
25.2700 665.0000 1.0000
25.2800 682.0000 1.0000
25.2900 658.0000 1.0000
25.3000 669.0000 1.0000
25.3100 740.0000 1.0000
25.3200 671.0000 1.0000
25.3300 708.0000 1.0000
25.3400 670.0000 1.0000
25.3500 680.0000 1.0000
25.3600 680.0000 1.0000
25.3700 681.0000 1.0000
25.3800 663.0000 1.0000
25.3900 681.0000 1.0000
25.4000 712.0000 1.0000
25.4100 657.0000 1.0000
25.4200 684.0000 1.0000
25.4300 664.0000 1.0000
25.4400 662.0000 1.0000
25.4500 627.0000 1.0000
25.4600 668.0000 1.0000
25.4700 661.0000 1.0000
25.4800 652.0000 1.0000
25.4900 663.0000 1.0000
25.5000 694.0000 1.0000
25.5100 663.0000 1.0000
25.5200 652.0000 1.0000
25.5300 691.0000 1.0000
25.5400 666.0000 1.0000
25.5500 683.0000 1.0000
25.5600 660.0000 1.0000
25.5700 680.0000 1.0000
25.5800 699.0000 1.0000
25.5900 656.0000 1.0000
25.6000 654.0000 1.0000
25.6100 630.0000 1.0000
25.6200 656.0000 1.0000
25.6300 646.0000 1.0000
25.6400 674.0000 1.0000
25.6500 682.0000 1.0000
25.6600 671.0000 1.0000
25.6700 683.0000 1.0000
25.6800 666.0000 1.0000
25.6900 621.0000 1.0000
25.7000 664.0000 1.0000
25.7100 668.0000 1.0000
25.7200 645.0000 1.0000
25.7300 659.0000 1.0000
25.7400 709.0000 1.0000
25.7500 681.0000 1.0000
25.7600 656.0000 1.0000
25.7700 662.0000 1.0000
25.7800 704.0000 1.0000
25.7900 662.0000 1.0000
25.8000 676.0000 1.0000
25.8100 685.0000 1.0000
25.8200 708.0000 1.0000
25.8300 656.0000 1.0000
25.8400 651.0000 1.0000
25.8500 677.0000 1.0000
25.8600 655.0000 1.0000
25.8700 673.0000 1.0000
25.8800 629.0000 1.0000
25.8900 718.0000 1.0000
25.9000 660.0000 1.0000
25.9100 624.0000 1.0000
25.9200 687.0000 1.0000
25.9300 686.0000 1.0000
25.9400 666.0000 1.0000
25.9500 660.0000 1.0000
25.9600 700.0000 1.0000
25.9700 660.0000 1.0000
25.9800 696.0000 1.0000
25.9900 644.0000 1.0000
26.0000 682.0000 1.0000
26.0100 676.0000 1.0000
26.0200 664.0000 1.0000
26.0300 656.0000 1.0000
26.0400 667.0000 1.0000
26.0500 694.0000 1.0000
26.0600 645.0000 1.0000
26.0700 668.0000 1.0000
26.0800 673.0000 1.0000
26.0900 686.0000 1.0000
26.1000 687.0000 1.0000
26.1100 677.0000 1.0000
26.1200 675.0000 1.0000
26.1300 702.0000 1.0000
26.1400 645.0000 1.0000
26.1500 640.0000 1.0000
26.1600 630.0000 1.0000
26.1700 634.0000 1.0000
26.1800 689.0000 1.0000
26.1900 646.0000 1.0000
26.2000 669.0000 1.0000
26.2100 723.0000 1.0000
26.2200 703.0000 1.0000
26.2300 666.0000 1.0000
26.2400 639.0000 1.0000
26.2500 656.0000 1.0000
26.2600 694.0000 1.0000
26.2700 674.0000 1.0000
26.2800 698.0000 1.0000
26.2900 680.0000 1.0000
26.3000 688.0000 1.0000
26.3100 628.0000 1.0000
26.3200 662.0000 1.0000
26.3300 647.0000 1.0000
26.3400 681.0000 1.0000
26.3500 672.0000 1.0000
26.3600 674.0000 1.0000
26.3700 688.0000 1.0000
26.3800 740.0000 1.0000
26.3900 735.0000 1.0000
26.4000 748.0000 1.0000
26.4100 716.0000 1.0000
26.4200 724.0000 1.0000
26.4300 687.0000 1.0000
26.4400 709.0000 1.0000
26.4500 706.0000 1.0000
26.4600 687.0000 1.0000
26.4700 688.0000 1.0000
26.4800 702.0000 1.0000
26.4900 674.0000 1.0000
26.5000 708.0000 1.0000
26.5100 710.0000 1.0000
26.5200 702.0000 1.0000
26.5300 706.0000 1.0000
26.5400 747.0000 1.0000
26.5500 707.0000 1.0000
26.5600 710.0000 1.0000
26.5700 678.0000 1.0000
26.5800 691.0000 1.0000
26.5900 719.0000 1.0000
26.6000 720.0000 1.0000
26.6100 723.0000 1.0000
26.6200 701.0000 1.0000
26.6300 713.0000 1.0000
26.6400 692.0000 1.0000
26.6500 728.0000 1.0000
26.6600 712.0000 1.0000
26.6700 750.0000 1.0000
26.6800 720.0000 1.0000
26.6900 738.0000 1.0000
26.7000 714.0000 1.0000
26.7100 736.0000 1.0000
26.7200 676.0000 1.0000
26.7300 716.0000 1.0000
26.7400 741.0000 1.0000
26.7500 704.0000 1.0000
26.7600 708.0000 1.0000
26.7700 701.0000 1.0000
26.7800 729.0000 1.0000
26.7900 795.0000 1.0000
26.8000 759.0000 1.0000
26.8100 748.0000 1.0000
26.8200 719.0000 1.0000
26.8300 747.0000 1.0000
26.8400 723.0000 1.0000
26.8500 745.0000 1.0000
26.8600 800.0000 1.0000
26.8700 717.0000 1.0000
26.8800 760.0000 1.0000
26.8900 734.0000 1.0000
26.9000 759.0000 1.0000
26.9100 820.0000 1.0000
26.9200 790.0000 1.0000
26.9300 793.0000 1.0000
26.9400 795.0000 1.0000
26.9500 808.0000 1.0000
26.9600 819.0000 1.0000
26.9700 821.0000 1.0000
26.9800 843.0000 1.0000
26.9900 874.0000 1.0000
27.0000 903.0000 1.0000
27.0100 902.0000 1.0000
27.0200 941.0000 1.0000
27.0300 931.0000 1.0000
27.0400 925.0000 1.0000
27.0500 938.0000 1.0000
27.0600 977.0000 1.0000
27.0700 946.0000 1.0000
27.0800 1012.0000 1.0000
27.0900 1054.0000 1.0000
27.1000 1038.0000 1.0000
27.1100 1059.0000 1.0000
27.1200 1133.0000 1.0000
27.1300 1193.0000 1.0000
27.1400 1269.0000 1.0000
27.1500 1213.0000 1.0000
27.1600 1296.0000 1.0000
27.1700 1341.0000 1.0000
27.1800 1385.0000 1.0000
27.1900 1452.0000 1.0000
27.2000 1556.0000 1.0000
27.2100 1633.0000 1.0000
27.2200 1659.0000 1.0000
27.2300 1732.0000 1.0000
27.2400 1840.0000 1.0000
27.2500 1956.0000 1.0000
27.2600 2076.0000 1.0000
27.2700 2186.0000 1.0000
27.2800 2227.0000 1.0000
27.2900 2360.0000 1.0000
27.3000 2386.0000 1.0000
27.3100 2523.0000 1.0000
27.3200 2512.0000 1.0000
27.3300 2556.0000 1.0000
27.3400 2516.0000 1.0000
27.3500 2453.0000 1.0000
27.3600 2414.0000 1.0000
27.3700 2331.0000 1.0000
27.3800 2254.0000 1.0000
27.3900 2175.0000 1.0000
27.4000 2052.0000 1.0000
27.4100 2023.0000 1.0000
27.4200 1986.0000 1.0000
27.4300 1793.0000 1.0000
27.4400 1734.0000 1.0000
27.4500 1631.0000 1.0000
27.4600 1536.0000 1.0000
27.4700 1474.0000 1.0000
27.4800 1440.0000 1.0000
27.4900 1305.0000 1.0000
27.5000 1264.0000 1.0000
27.5100 1269.0000 1.0000
27.5200 1248.0000 1.0000
27.5300 1216.0000 1.0000
27.5400 1135.0000 1.0000
27.5500 1178.0000 1.0000
27.5600 1049.0000 1.0000
27.5700 1047.0000 1.0000
27.5800 1016.0000 1.0000
27.5900 968.0000 1.0000
27.6000 1017.0000 1.0000
27.6100 954.0000 1.0000
27.6200 874.0000 1.0000
27.6300 919.0000 1.0000
27.6400 903.0000 1.0000
27.6500 862.0000 1.0000
27.6600 864.0000 1.0000
27.6700 837.0000 1.0000
27.6800 788.0000 1.0000
27.6900 846.0000 1.0000
27.7000 797.0000 1.0000
27.7100 816.0000 1.0000
27.7200 809.0000 1.0000
27.7300 810.0000 1.0000
27.7400 801.0000 1.0000
27.7500 816.0000 1.0000
27.7600 762.0000 1.0000
27.7700 757.0000 1.0000
27.7800 730.0000 1.0000
27.7900 738.0000 1.0000
27.8000 795.0000 1.0000
27.8100 727.0000 1.0000
27.8200 736.0000 1.0000
27.8300 727.0000 1.0000
27.8400 727.0000 1.0000
27.8500 744.0000 1.0000
27.8600 789.0000 1.0000
27.8700 714.0000 1.0000
27.8800 731.0000 1.0000
27.8900 799.0000 1.0000
27.9000 718.0000 1.0000
27.9100 718.0000 1.0000
27.9200 740.0000 1.0000
27.9300 745.0000 1.0000
27.9400 744.0000 1.0000
27.9500 760.0000 1.0000
27.9600 729.0000 1.0000
27.9700 725.0000 1.0000
27.9800 708.0000 1.0000
27.9900 689.0000 1.0000
28.0000 672.0000 1.0000
28.0100 692.0000 1.0000
28.0200 681.0000 1.0000
28.0300 674.0000 1.0000
28.0400 716.0000 1.0000
28.0500 707.0000 1.0000
28.0600 703.0000 1.0000
28.0700 708.0000 1.0000
28.0800 742.0000 1.0000
28.0900 715.0000 1.0000
28.1000 721.0000 1.0000
28.1100 726.0000 1.0000
28.1200 663.0000 1.0000
28.1300 686.0000 1.0000
28.1400 697.0000 1.0000
28.1500 677.0000 1.0000
28.1600 692.0000 1.0000
28.1700 655.0000 1.0000
28.1800 677.0000 1.0000
28.1900 710.0000 1.0000
28.2000 677.0000 1.0000
28.2100 688.0000 1.0000
28.2200 701.0000 1.0000
28.2300 644.0000 1.0000
28.2400 647.0000 1.0000
28.2500 680.0000 1.0000
28.2600 687.0000 1.0000
28.2700 694.0000 1.0000
28.2800 684.0000 1.0000
28.2900 651.0000 1.0000
28.3000 675.0000 1.0000
28.3100 684.0000 1.0000
28.3200 669.0000 1.0000
28.3300 682.0000 1.0000
28.3400 679.0000 1.0000
28.3500 667.0000 1.0000
28.3600 681.0000 1.0000
28.3700 672.0000 1.0000
28.3800 670.0000 1.0000
28.3900 657.0000 1.0000
28.4000 674.0000 1.0000
28.4100 675.0000 1.0000
28.4200 696.0000 1.0000
28.4300 689.0000 1.0000
28.4400 651.0000 1.0000
28.4500 660.0000 1.0000
28.4600 729.0000 1.0000
28.4700 722.0000 1.0000
28.4800 640.0000 1.0000
28.4900 663.0000 1.0000
28.5000 682.0000 1.0000
28.5100 695.0000 1.0000
28.5200 718.0000 1.0000
28.5300 661.0000 1.0000
28.5400 685.0000 1.0000
28.5500 627.0000 1.0000
28.5600 685.0000 1.0000
28.5700 637.0000 1.0000
28.5800 635.0000 1.0000
28.5900 650.0000 1.0000
28.6000 648.0000 1.0000
28.6100 677.0000 1.0000
28.6200 684.0000 1.0000
28.6300 668.0000 1.0000
28.6400 668.0000 1.0000
28.6500 714.0000 1.0000
28.6600 668.0000 1.0000
28.6700 685.0000 1.0000
28.6800 662.0000 1.0000
28.6900 629.0000 1.0000
28.7000 652.0000 1.0000
28.7100 643.0000 1.0000
28.7200 674.0000 1.0000
28.7300 668.0000 1.0000
28.7400 633.0000 1.0000
28.7500 661.0000 1.0000
28.7600 660.0000 1.0000
28.7700 650.0000 1.0000
28.7800 704.0000 1.0000
28.7900 668.0000 1.0000
28.8000 647.0000 1.0000
28.8100 661.0000 1.0000
28.8200 634.0000 1.0000
28.8300 654.0000 1.0000
28.8400 670.0000 1.0000
28.8500 649.0000 1.0000
28.8600 658.0000 1.0000
28.8700 648.0000 1.0000
28.8800 702.0000 1.0000
28.8900 634.0000 1.0000
28.9000 609.0000 1.0000
28.9100 678.0000 1.0000
28.9200 644.0000 1.0000
28.9300 610.0000 1.0000
28.9400 677.0000 1.0000
28.9500 637.0000 1.0000
28.9600 628.0000 1.0000
28.9700 609.0000 1.0000
28.9800 663.0000 1.0000
28.9900 645.0000 1.0000
29.0000 670.0000 1.0000
29.0100 655.0000 1.0000
29.0200 660.0000 1.0000
29.0300 642.0000 1.0000
29.0400 634.0000 1.0000
29.0500 602.0000 1.0000
29.0600 652.0000 1.0000
29.0700 635.0000 1.0000
29.0800 639.0000 1.0000
29.0900 651.0000 1.0000
29.1000 658.0000 1.0000
29.1100 593.0000 1.0000
29.1200 635.0000 1.0000
29.1300 629.0000 1.0000
29.1400 595.0000 1.0000
29.1500 618.0000 1.0000
29.1600 628.0000 1.0000
29.1700 635.0000 1.0000
29.1800 611.0000 1.0000
29.1900 651.0000 1.0000
29.2000 671.0000 1.0000
29.2100 652.0000 1.0000
29.2200 657.0000 1.0000
29.2300 656.0000 1.0000
29.2400 626.0000 1.0000
29.2500 633.0000 1.0000
29.2600 647.0000 1.0000
29.2700 646.0000 1.0000
29.2800 664.0000 1.0000
29.2900 606.0000 1.0000
29.3000 637.0000 1.0000
29.3100 629.0000 1.0000
29.3200 635.0000 1.0000
29.3300 686.0000 1.0000
29.3400 687.0000 1.0000
29.3500 672.0000 1.0000
29.3600 636.0000 1.0000
29.3700 600.0000 1.0000
29.3800 613.0000 1.0000
29.3900 648.0000 1.0000
29.4000 712.0000 1.0000
29.4100 653.0000 1.0000
29.4200 609.0000 1.0000
29.4300 667.0000 1.0000
29.4400 629.0000 1.0000
29.4500 640.0000 1.0000
29.4600 632.0000 1.0000
29.4700 620.0000 1.0000
29.4800 621.0000 1.0000
29.4900 611.0000 1.0000
29.5000 606.0000 1.0000
29.5100 562.0000 1.0000
29.5200 633.0000 1.0000
29.5300 650.0000 1.0000
29.5400 675.0000 1.0000
29.5500 651.0000 1.0000
29.5600 662.0000 1.0000
29.5700 672.0000 1.0000
29.5800 572.0000 1.0000
29.5900 625.0000 1.0000
29.6000 622.0000 1.0000
29.6100 638.0000 1.0000
29.6200 586.0000 1.0000
29.6300 614.0000 1.0000
29.6400 649.0000 1.0000
29.6500 658.0000 1.0000
29.6600 627.0000 1.0000
29.6700 610.0000 1.0000
29.6800 611.0000 1.0000
29.6900 654.0000 1.0000
29.7000 655.0000 1.0000
29.7100 631.0000 1.0000
29.7200 589.0000 1.0000
29.7300 629.0000 1.0000
29.7400 608.0000 1.0000
29.7500 632.0000 1.0000
29.7600 638.0000 1.0000
29.7700 615.0000 1.0000
29.7800 616.0000 1.0000
29.7900 613.0000 1.0000
29.8000 601.0000 1.0000
29.8100 633.0000 1.0000
29.8200 634.0000 1.0000
29.8300 600.0000 1.0000
29.8400 644.0000 1.0000
29.8500 627.0000 1.0000
29.8600 602.0000 1.0000
29.8700 599.0000 1.0000
29.8800 640.0000 1.0000
29.8900 648.0000 1.0000
29.9000 620.0000 1.0000
29.9100 655.0000 1.0000
29.9200 619.0000 1.0000
29.9300 630.0000 1.0000
29.9400 635.0000 1.0000
29.9500 643.0000 1.0000
29.9600 614.0000 1.0000
29.9700 627.0000 1.0000
29.9800 635.0000 1.0000
29.9900 641.0000 1.0000
30.0000 623.0000 1.0000
30.0100 649.0000 1.0000
30.0200 601.0000 1.0000
30.0300 620.0000 1.0000
30.0400 609.0000 1.0000
30.0500 661.0000 1.0000
30.0600 588.0000 1.0000
30.0700 656.0000 1.0000
30.0800 627.0000 1.0000
30.0900 603.0000 1.0000
30.1000 640.0000 1.0000
30.1100 612.0000 1.0000
30.1200 595.0000 1.0000
30.1300 635.0000 1.0000
30.1400 644.0000 1.0000
30.1500 632.0000 1.0000
30.1600 662.0000 1.0000
30.1700 646.0000 1.0000
30.1800 639.0000 1.0000
30.1900 643.0000 1.0000
30.2000 610.0000 1.0000
30.2100 575.0000 1.0000
30.2200 602.0000 1.0000
30.2300 603.0000 1.0000
30.2400 617.0000 1.0000
30.2500 638.0000 1.0000
30.2600 611.0000 1.0000
30.2700 610.0000 1.0000
30.2800 606.0000 1.0000
30.2900 622.0000 1.0000
30.3000 599.0000 1.0000
30.3100 621.0000 1.0000
30.3200 619.0000 1.0000
30.3300 638.0000 1.0000
30.3400 613.0000 1.0000
30.3500 609.0000 1.0000
30.3600 585.0000 1.0000
30.3700 616.0000 1.0000
30.3800 612.0000 1.0000
30.3900 624.0000 1.0000
30.4000 594.0000 1.0000
30.4100 623.0000 1.0000
30.4200 598.0000 1.0000
30.4300 589.0000 1.0000
30.4400 590.0000 1.0000
30.4500 585.0000 1.0000
30.4600 599.0000 1.0000
30.4700 635.0000 1.0000
30.4800 611.0000 1.0000
30.4900 614.0000 1.0000
30.5000 616.0000 1.0000
30.5100 640.0000 1.0000
30.5200 620.0000 1.0000
30.5300 648.0000 1.0000
30.5400 606.0000 1.0000
30.5500 606.0000 1.0000
30.5600 600.0000 1.0000
30.5700 630.0000 1.0000
30.5800 623.0000 1.0000
30.5900 604.0000 1.0000
30.6000 593.0000 1.0000
30.6100 586.0000 1.0000
30.6200 601.0000 1.0000
30.6300 618.0000 1.0000
30.6400 557.0000 1.0000
30.6500 572.0000 1.0000
30.6600 579.0000 1.0000
30.6700 612.0000 1.0000
30.6800 660.0000 1.0000
30.6900 613.0000 1.0000
30.7000 636.0000 1.0000
30.7100 623.0000 1.0000
30.7200 647.0000 1.0000
30.7300 635.0000 1.0000
30.7400 596.0000 1.0000
30.7500 592.0000 1.0000
30.7600 612.0000 1.0000
30.7700 649.0000 1.0000
30.7800 604.0000 1.0000
30.7900 607.0000 1.0000
30.8000 618.0000 1.0000
30.8100 617.0000 1.0000
30.8200 595.0000 1.0000
30.8300 596.0000 1.0000
30.8400 586.0000 1.0000
30.8500 616.0000 1.0000
30.8600 607.0000 1.0000
30.8700 584.0000 1.0000
30.8800 627.0000 1.0000
30.8900 587.0000 1.0000
30.9000 601.0000 1.0000
30.9100 551.0000 1.0000
30.9200 610.0000 1.0000
30.9300 592.0000 1.0000
30.9400 601.0000 1.0000
30.9500 609.0000 1.0000
30.9600 611.0000 1.0000
30.9700 608.0000 1.0000
30.9800 596.0000 1.0000
30.9900 609.0000 1.0000
31.0000 610.0000 1.0000
31.0100 609.0000 1.0000
31.0200 585.0000 1.0000
31.0300 582.0000 1.0000
31.0400 568.0000 1.0000
31.0500 627.0000 1.0000
31.0600 589.0000 1.0000
31.0700 557.0000 1.0000
31.0800 586.0000 1.0000
31.0900 621.0000 1.0000
31.1000 617.0000 1.0000
31.1100 568.0000 1.0000
31.1200 628.0000 1.0000
31.1300 598.0000 1.0000
31.1400 594.0000 1.0000
31.1500 582.0000 1.0000
31.1600 592.0000 1.0000
31.1700 622.0000 1.0000
31.1800 618.0000 1.0000
31.1900 581.0000 1.0000
31.2000 581.0000 1.0000
31.2100 574.0000 1.0000
31.2200 592.0000 1.0000
31.2300 601.0000 1.0000
31.2400 602.0000 1.0000
31.2500 580.0000 1.0000
31.2600 600.0000 1.0000
31.2700 597.0000 1.0000
31.2800 609.0000 1.0000
31.2900 569.0000 1.0000
31.3000 578.0000 1.0000
31.3100 571.0000 1.0000
31.3200 571.0000 1.0000
31.3300 587.0000 1.0000
31.3400 605.0000 1.0000
31.3500 564.0000 1.0000
31.3600 559.0000 1.0000
31.3700 566.0000 1.0000
31.3800 614.0000 1.0000
31.3900 595.0000 1.0000
31.4000 576.0000 1.0000
31.4100 612.0000 1.0000
31.4200 577.0000 1.0000
31.4300 562.0000 1.0000
31.4400 584.0000 1.0000
31.4500 612.0000 1.0000
31.4600 588.0000 1.0000
31.4700 585.0000 1.0000
31.4800 633.0000 1.0000
31.4900 549.0000 1.0000
31.5000 580.0000 1.0000
31.5100 613.0000 1.0000
31.5200 588.0000 1.0000
31.5300 582.0000 1.0000
31.5400 615.0000 1.0000
31.5500 581.0000 1.0000
31.5600 571.0000 1.0000
31.5700 535.0000 1.0000
31.5800 592.0000 1.0000
31.5900 564.0000 1.0000
31.6000 624.0000 1.0000
31.6100 580.0000 1.0000
31.6200 578.0000 1.0000
31.6300 577.0000 1.0000
31.6400 602.0000 1.0000
31.6500 596.0000 1.0000
31.6600 607.0000 1.0000
31.6700 568.0000 1.0000
31.6800 530.0000 1.0000
31.6900 591.0000 1.0000
31.7000 579.0000 1.0000
31.7100 593.0000 1.0000
31.7200 587.0000 1.0000
31.7300 572.0000 1.0000
31.7400 573.0000 1.0000
31.7500 592.0000 1.0000
31.7600 596.0000 1.0000
31.7700 555.0000 1.0000
31.7800 601.0000 1.0000
31.7900 568.0000 1.0000
31.8000 572.0000 1.0000
31.8100 622.0000 1.0000
31.8200 575.0000 1.0000
31.8300 572.0000 1.0000
31.8400 563.0000 1.0000
31.8500 548.0000 1.0000
31.8600 562.0000 1.0000
31.8700 594.0000 1.0000
31.8800 585.0000 1.0000
31.8900 598.0000 1.0000
31.9000 607.0000 1.0000
31.9100 590.0000 1.0000
31.9200 616.0000 1.0000
31.9300 590.0000 1.0000
31.9400 602.0000 1.0000
31.9500 599.0000 1.0000
31.9600 607.0000 1.0000
31.9700 545.0000 1.0000
31.9800 613.0000 1.0000
31.9900 609.0000 1.0000
32.0000 608.0000 1.0000
32.0100 594.0000 1.0000
32.0200 615.0000 1.0000
32.0300 591.0000 1.0000
32.0400 631.0000 1.0000
32.0500 604.0000 1.0000
32.0600 612.0000 1.0000
32.0700 572.0000 1.0000
32.0800 631.0000 1.0000
32.0900 597.0000 1.0000
32.1000 601.0000 1.0000
32.1100 582.0000 1.0000
32.1200 589.0000 1.0000
32.1300 564.0000 1.0000
32.1400 588.0000 1.0000
32.1500 605.0000 1.0000
32.1600 587.0000 1.0000
32.1700 532.0000 1.0000
32.1800 587.0000 1.0000
32.1900 574.0000 1.0000
32.2000 589.0000 1.0000
32.2100 571.0000 1.0000
32.2200 573.0000 1.0000
32.2300 540.0000 1.0000
32.2400 566.0000 1.0000
32.2500 567.0000 1.0000
32.2600 606.0000 1.0000
32.2700 576.0000 1.0000
32.2800 573.0000 1.0000
32.2900 535.0000 1.0000
32.3000 567.0000 1.0000
32.3100 556.0000 1.0000
32.3200 562.0000 1.0000
32.3300 545.0000 1.0000
32.3400 578.0000 1.0000
32.3500 572.0000 1.0000
32.3600 586.0000 1.0000
32.3700 581.0000 1.0000
32.3800 570.0000 1.0000
32.3900 545.0000 1.0000
32.4000 594.0000 1.0000
32.4100 560.0000 1.0000
32.4200 534.0000 1.0000
32.4300 584.0000 1.0000
32.4400 577.0000 1.0000
32.4500 564.0000 1.0000
32.4600 556.0000 1.0000
32.4700 575.0000 1.0000
32.4800 518.0000 1.0000
32.4900 574.0000 1.0000
32.5000 590.0000 1.0000
32.5100 557.0000 1.0000
32.5200 575.0000 1.0000
32.5300 588.0000 1.0000
32.5400 567.0000 1.0000
32.5500 541.0000 1.0000
32.5600 572.0000 1.0000
32.5700 562.0000 1.0000
32.5800 597.0000 1.0000
32.5900 584.0000 1.0000
32.6000 587.0000 1.0000
32.6100 555.0000 1.0000
32.6200 554.0000 1.0000
32.6300 576.0000 1.0000
32.6400 553.0000 1.0000
32.6500 546.0000 1.0000
32.6600 539.0000 1.0000
32.6700 561.0000 1.0000
32.6800 554.0000 1.0000
32.6900 543.0000 1.0000
32.7000 550.0000 1.0000
32.7100 563.0000 1.0000
32.7200 553.0000 1.0000
32.7300 543.0000 1.0000
32.7400 588.0000 1.0000
32.7500 572.0000 1.0000
32.7600 581.0000 1.0000
32.7700 545.0000 1.0000
32.7800 573.0000 1.0000
32.7900 504.0000 1.0000
32.8000 574.0000 1.0000
32.8100 597.0000 1.0000
32.8200 601.0000 1.0000
32.8300 593.0000 1.0000
32.8400 579.0000 1.0000
32.8500 591.0000 1.0000
32.8600 601.0000 1.0000
32.8700 612.0000 1.0000
32.8800 547.0000 1.0000
32.8900 547.0000 1.0000
32.9000 542.0000 1.0000
32.9100 527.0000 1.0000
32.9200 548.0000 1.0000
32.9300 551.0000 1.0000
32.9400 526.0000 1.0000
32.9500 546.0000 1.0000
32.9600 565.0000 1.0000
32.9700 544.0000 1.0000
32.9800 575.0000 1.0000
32.9900 572.0000 1.0000
33.0000 581.0000 1.0000
33.0100 534.0000 1.0000
33.0200 550.0000 1.0000
33.0300 557.0000 1.0000
33.0400 541.0000 1.0000
33.0500 563.0000 1.0000
33.0600 549.0000 1.0000
33.0700 561.0000 1.0000
33.0800 548.0000 1.0000
33.0900 566.0000 1.0000
33.1000 548.0000 1.0000
33.1100 538.0000 1.0000
33.1200 529.0000 1.0000
33.1300 571.0000 1.0000
33.1400 510.0000 1.0000
33.1500 554.0000 1.0000
33.1600 530.0000 1.0000
33.1700 585.0000 1.0000
33.1800 548.0000 1.0000
33.1900 501.0000 1.0000
33.2000 539.0000 1.0000
33.2100 547.0000 1.0000
33.2200 577.0000 1.0000
33.2300 556.0000 1.0000
33.2400 545.0000 1.0000
33.2500 547.0000 1.0000
33.2600 544.0000 1.0000
33.2700 589.0000 1.0000
33.2800 579.0000 1.0000
33.2900 542.0000 1.0000
33.3000 559.0000 1.0000
33.3100 561.0000 1.0000
33.3200 546.0000 1.0000
33.3300 552.0000 1.0000
33.3400 544.0000 1.0000
33.3500 541.0000 1.0000
33.3600 552.0000 1.0000
33.3700 549.0000 1.0000
33.3800 604.0000 1.0000
33.3900 537.0000 1.0000
33.4000 565.0000 1.0000
33.4100 566.0000 1.0000
33.4200 558.0000 1.0000
33.4300 572.0000 1.0000
33.4400 573.0000 1.0000
33.4500 542.0000 1.0000
33.4600 571.0000 1.0000
33.4700 555.0000 1.0000
33.4800 542.0000 1.0000
33.4900 580.0000 1.0000
33.5000 575.0000 1.0000
33.5100 539.0000 1.0000
33.5200 530.0000 1.0000
33.5300 560.0000 1.0000
33.5400 579.0000 1.0000
33.5500 561.0000 1.0000
33.5600 581.0000 1.0000
33.5700 556.0000 1.0000
33.5800 543.0000 1.0000
33.5900 549.0000 1.0000
33.6000 520.0000 1.0000
33.6100 570.0000 1.0000
33.6200 601.0000 1.0000
33.6300 578.0000 1.0000
33.6400 584.0000 1.0000
33.6500 567.0000 1.0000
33.6600 577.0000 1.0000
33.6700 565.0000 1.0000
33.6800 557.0000 1.0000
33.6900 574.0000 1.0000
33.7000 556.0000 1.0000
33.7100 532.0000 1.0000
33.7200 558.0000 1.0000
33.7300 561.0000 1.0000
33.7400 576.0000 1.0000
33.7500 591.0000 1.0000
33.7600 531.0000 1.0000
33.7700 562.0000 1.0000
33.7800 587.0000 1.0000
33.7900 584.0000 1.0000
33.8000 590.0000 1.0000
33.8100 636.0000 1.0000
33.8200 554.0000 1.0000
33.8300 559.0000 1.0000
33.8400 567.0000 1.0000
33.8500 590.0000 1.0000
33.8600 597.0000 1.0000
33.8700 578.0000 1.0000
33.8800 627.0000 1.0000
33.8900 607.0000 1.0000
33.9000 615.0000 1.0000
33.9100 648.0000 1.0000
33.9200 652.0000 1.0000
33.9300 609.0000 1.0000
33.9400 628.0000 1.0000
33.9500 608.0000 1.0000
33.9600 634.0000 1.0000
33.9700 617.0000 1.0000
33.9800 646.0000 1.0000
33.9900 650.0000 1.0000
34.0000 608.0000 1.0000
34.0100 667.0000 1.0000
34.0200 624.0000 1.0000
34.0300 585.0000 1.0000
34.0400 655.0000 1.0000
34.0500 641.0000 1.0000
34.0600 620.0000 1.0000
34.0700 589.0000 1.0000
34.0800 612.0000 1.0000
34.0900 622.0000 1.0000
34.1000 614.0000 1.0000
34.1100 582.0000 1.0000
34.1200 585.0000 1.0000
34.1300 603.0000 1.0000
34.1400 584.0000 1.0000
34.1500 580.0000 1.0000
34.1600 631.0000 1.0000
34.1700 601.0000 1.0000
34.1800 613.0000 1.0000
34.1900 616.0000 1.0000
34.2000 610.0000 1.0000
34.2100 647.0000 1.0000
34.2200 651.0000 1.0000
34.2300 669.0000 1.0000
34.2400 623.0000 1.0000
34.2500 676.0000 1.0000
34.2600 670.0000 1.0000
34.2700 718.0000 1.0000
34.2800 764.0000 1.0000
34.2900 744.0000 1.0000
34.3000 743.0000 1.0000
34.3100 750.0000 1.0000
34.3200 779.0000 1.0000
34.3300 786.0000 1.0000
34.3400 806.0000 1.0000
34.3500 808.0000 1.0000
34.3600 846.0000 1.0000
34.3700 877.0000 1.0000
34.3800 910.0000 1.0000
34.3900 942.0000 1.0000
34.4000 991.0000 1.0000
34.4100 984.0000 1.0000
34.4200 1062.0000 1.0000
34.4300 1116.0000 1.0000
34.4400 1131.0000 1.0000
34.4500 1129.0000 1.0000
34.4600 1167.0000 1.0000
34.4700 1234.0000 1.0000
34.4800 1351.0000 1.0000
34.4900 1286.0000 1.0000
34.5000 1329.0000 1.0000
34.5100 1384.0000 1.0000
34.5200 1439.0000 1.0000
34.5300 1387.0000 1.0000
34.5400 1419.0000 1.0000
34.5500 1429.0000 1.0000
34.5600 1374.0000 1.0000
34.5700 1335.0000 1.0000
34.5800 1237.0000 1.0000
34.5900 1247.0000 1.0000
34.6000 1230.0000 1.0000
34.6100 1231.0000 1.0000
34.6200 1128.0000 1.0000
34.6300 1107.0000 1.0000
34.6400 977.0000 1.0000
34.6500 978.0000 1.0000
34.6600 981.0000 1.0000
34.6700 970.0000 1.0000
34.6800 878.0000 1.0000
34.6900 835.0000 1.0000
34.7000 843.0000 1.0000
34.7100 826.0000 1.0000
34.7200 811.0000 1.0000
34.7300 764.0000 1.0000
34.7400 801.0000 1.0000
34.7500 714.0000 1.0000
34.7600 686.0000 1.0000
34.7700 697.0000 1.0000
34.7800 697.0000 1.0000
34.7900 665.0000 1.0000
34.8000 643.0000 1.0000
34.8100 639.0000 1.0000
34.8200 677.0000 1.0000
34.8300 636.0000 1.0000
34.8400 637.0000 1.0000
34.8500 615.0000 1.0000
34.8600 598.0000 1.0000
34.8700 581.0000 1.0000
34.8800 592.0000 1.0000
34.8900 628.0000 1.0000
34.9000 551.0000 1.0000
34.9100 596.0000 1.0000
34.9200 612.0000 1.0000
34.9300 587.0000 1.0000
34.9400 571.0000 1.0000
34.9500 536.0000 1.0000
34.9600 568.0000 1.0000
34.9700 534.0000 1.0000
34.9800 545.0000 1.0000
34.9900 526.0000 1.0000
35.0000 534.0000 1.0000
35.0100 522.0000 1.0000
35.0200 551.0000 1.0000
35.0300 527.0000 1.0000
35.0400 517.0000 1.0000
35.0500 522.0000 1.0000
35.0600 527.0000 1.0000
35.0700 510.0000 1.0000
35.0800 506.0000 1.0000
35.0900 506.0000 1.0000
35.1000 520.0000 1.0000
35.1100 548.0000 1.0000
35.1200 508.0000 1.0000
35.1300 514.0000 1.0000
35.1400 515.0000 1.0000
35.1500 506.0000 1.0000
35.1600 512.0000 1.0000
35.1700 535.0000 1.0000
35.1800 520.0000 1.0000
35.1900 495.0000 1.0000
35.2000 488.0000 1.0000
35.2100 508.0000 1.0000
35.2200 480.0000 1.0000
35.2300 482.0000 1.0000
35.2400 499.0000 1.0000
35.2500 515.0000 1.0000
35.2600 464.0000 1.0000
35.2700 503.0000 1.0000
35.2800 499.0000 1.0000
35.2900 505.0000 1.0000
35.3000 529.0000 1.0000
35.3100 465.0000 1.0000
35.3200 461.0000 1.0000
35.3300 525.0000 1.0000
35.3400 507.0000 1.0000
35.3500 482.0000 1.0000
35.3600 468.0000 1.0000
35.3700 505.0000 1.0000
35.3800 484.0000 1.0000
35.3900 503.0000 1.0000
35.4000 478.0000 1.0000
35.4100 465.0000 1.0000
35.4200 479.0000 1.0000
35.4300 506.0000 1.0000
35.4400 481.0000 1.0000
35.4500 478.0000 1.0000
35.4600 492.0000 1.0000
35.4700 494.0000 1.0000
35.4800 497.0000 1.0000
35.4900 464.0000 1.0000
35.5000 481.0000 1.0000
35.5100 478.0000 1.0000
35.5200 446.0000 1.0000
35.5300 486.0000 1.0000
35.5400 472.0000 1.0000
35.5500 489.0000 1.0000
35.5600 450.0000 1.0000
35.5700 487.0000 1.0000
35.5800 453.0000 1.0000
35.5900 507.0000 1.0000
35.6000 499.0000 1.0000
35.6100 481.0000 1.0000
35.6200 500.0000 1.0000
35.6300 463.0000 1.0000
35.6400 483.0000 1.0000
35.6500 465.0000 1.0000
35.6600 484.0000 1.0000
35.6700 448.0000 1.0000
35.6800 464.0000 1.0000
35.6900 482.0000 1.0000
35.7000 481.0000 1.0000
35.7100 451.0000 1.0000
35.7200 497.0000 1.0000
35.7300 474.0000 1.0000
35.7400 471.0000 1.0000
35.7500 441.0000 1.0000
35.7600 492.0000 1.0000
35.7700 519.0000 1.0000
35.7800 490.0000 1.0000
35.7900 472.0000 1.0000
35.8000 429.0000 1.0000
35.8100 470.0000 1.0000
35.8200 492.0000 1.0000
35.8300 484.0000 1.0000
35.8400 484.0000 1.0000
35.8500 472.0000 1.0000
35.8600 488.0000 1.0000
35.8700 454.0000 1.0000
35.8800 463.0000 1.0000
35.8900 458.0000 1.0000
35.9000 478.0000 1.0000
35.9100 482.0000 1.0000
35.9200 471.0000 1.0000
35.9300 423.0000 1.0000
35.9400 455.0000 1.0000
35.9500 474.0000 1.0000
35.9600 478.0000 1.0000
35.9700 481.0000 1.0000
35.9800 477.0000 1.0000
35.9900 482.0000 1.0000
36.0000 450.0000 1.0000
36.0100 481.0000 1.0000
36.0200 467.0000 1.0000
36.0300 495.0000 1.0000
36.0400 469.0000 1.0000
36.0500 439.0000 1.0000
36.0600 471.0000 1.0000
36.0700 464.0000 1.0000
36.0800 470.0000 1.0000
36.0900 511.0000 1.0000
36.1000 446.0000 1.0000
36.1100 481.0000 1.0000
36.1200 477.0000 1.0000
36.1300 506.0000 1.0000
36.1400 507.0000 1.0000
36.1500 509.0000 1.0000
36.1600 509.0000 1.0000
36.1700 515.0000 1.0000
36.1800 486.0000 1.0000
36.1900 505.0000 1.0000
36.2000 534.0000 1.0000
36.2100 548.0000 1.0000
36.2200 515.0000 1.0000
36.2300 517.0000 1.0000
36.2400 544.0000 1.0000
36.2500 575.0000 1.0000
36.2600 613.0000 1.0000
36.2700 559.0000 1.0000
36.2800 577.0000 1.0000
36.2900 600.0000 1.0000
36.3000 594.0000 1.0000
36.3100 588.0000 1.0000
36.3200 623.0000 1.0000
36.3300 701.0000 1.0000
36.3400 678.0000 1.0000
36.3500 710.0000 1.0000
36.3600 719.0000 1.0000
36.3700 705.0000 1.0000
36.3800 748.0000 1.0000
36.3900 801.0000 1.0000
36.4000 839.0000 1.0000
36.4100 813.0000 1.0000
36.4200 868.0000 1.0000
36.4300 862.0000 1.0000
36.4400 835.0000 1.0000
36.4500 821.0000 1.0000
36.4600 809.0000 1.0000
36.4700 775.0000 1.0000
36.4800 831.0000 1.0000
36.4900 780.0000 1.0000
36.5000 766.0000 1.0000
36.5100 801.0000 1.0000
36.5200 760.0000 1.0000
36.5300 776.0000 1.0000
36.5400 696.0000 1.0000
36.5500 651.0000 1.0000
36.5600 663.0000 1.0000
36.5700 667.0000 1.0000
36.5800 621.0000 1.0000
36.5900 640.0000 1.0000
36.6000 581.0000 1.0000
36.6100 562.0000 1.0000
36.6200 553.0000 1.0000
36.6300 528.0000 1.0000
36.6400 500.0000 1.0000
36.6500 513.0000 1.0000
36.6600 527.0000 1.0000
36.6700 514.0000 1.0000
36.6800 500.0000 1.0000
36.6900 503.0000 1.0000
36.7000 447.0000 1.0000
36.7100 486.0000 1.0000
36.7200 470.0000 1.0000
36.7300 459.0000 1.0000
36.7400 445.0000 1.0000
36.7500 460.0000 1.0000
36.7600 455.0000 1.0000
36.7700 484.0000 1.0000
36.7800 460.0000 1.0000
36.7900 465.0000 1.0000
36.8000 440.0000 1.0000
36.8100 462.0000 1.0000
36.8200 415.0000 1.0000
36.8300 440.0000 1.0000
36.8400 458.0000 1.0000
36.8500 442.0000 1.0000
36.8600 398.0000 1.0000
36.8700 423.0000 1.0000
36.8800 459.0000 1.0000
36.8900 452.0000 1.0000
36.9000 411.0000 1.0000
36.9100 460.0000 1.0000
36.9200 453.0000 1.0000
36.9300 421.0000 1.0000
36.9400 414.0000 1.0000
36.9500 448.0000 1.0000
36.9600 401.0000 1.0000
36.9700 413.0000 1.0000
36.9800 445.0000 1.0000
36.9900 447.0000 1.0000
37.0000 449.0000 1.0000
37.0100 436.0000 1.0000
37.0200 411.0000 1.0000
37.0300 444.0000 1.0000
37.0400 444.0000 1.0000
37.0500 455.0000 1.0000
37.0600 420.0000 1.0000
37.0700 433.0000 1.0000
37.0800 402.0000 1.0000
37.0900 414.0000 1.0000
37.1000 412.0000 1.0000
37.1100 433.0000 1.0000
37.1200 423.0000 1.0000
37.1300 393.0000 1.0000
37.1400 407.0000 1.0000
37.1500 433.0000 1.0000
37.1600 414.0000 1.0000
37.1700 390.0000 1.0000
37.1800 426.0000 1.0000
37.1900 445.0000 1.0000
37.2000 385.0000 1.0000
37.2100 445.0000 1.0000
37.2200 425.0000 1.0000
37.2300 457.0000 1.0000
37.2400 437.0000 1.0000
37.2500 436.0000 1.0000
37.2600 431.0000 1.0000
37.2700 438.0000 1.0000
37.2800 432.0000 1.0000
37.2900 454.0000 1.0000
37.3000 420.0000 1.0000
37.3100 438.0000 1.0000
37.3200 431.0000 1.0000
37.3300 433.0000 1.0000
37.3400 443.0000 1.0000
37.3500 441.0000 1.0000
37.3600 423.0000 1.0000
37.3700 435.0000 1.0000
37.3800 424.0000 1.0000
37.3900 439.0000 1.0000
37.4000 445.0000 1.0000
37.4100 433.0000 1.0000
37.4200 438.0000 1.0000
37.4300 461.0000 1.0000
37.4400 421.0000 1.0000
37.4500 425.0000 1.0000
37.4600 419.0000 1.0000
37.4700 412.0000 1.0000
37.4800 430.0000 1.0000
37.4900 457.0000 1.0000
37.5000 428.0000 1.0000
37.5100 425.0000 1.0000
37.5200 410.0000 1.0000
37.5300 428.0000 1.0000
37.5400 432.0000 1.0000
37.5500 425.0000 1.0000
37.5600 451.0000 1.0000
37.5700 481.0000 1.0000
37.5800 416.0000 1.0000
37.5900 435.0000 1.0000
37.6000 404.0000 1.0000
37.6100 442.0000 1.0000
37.6200 440.0000 1.0000
37.6300 441.0000 1.0000
37.6400 400.0000 1.0000
37.6500 442.0000 1.0000
37.6600 434.0000 1.0000
37.6700 445.0000 1.0000
37.6800 442.0000 1.0000
37.6900 443.0000 1.0000
37.7000 408.0000 1.0000
37.7100 420.0000 1.0000
37.7200 428.0000 1.0000
37.7300 406.0000 1.0000
37.7400 415.0000 1.0000
37.7500 409.0000 1.0000
37.7600 417.0000 1.0000
37.7700 454.0000 1.0000
37.7800 406.0000 1.0000
37.7900 387.0000 1.0000
37.8000 417.0000 1.0000
37.8100 440.0000 1.0000
37.8200 410.0000 1.0000
37.8300 463.0000 1.0000
37.8400 426.0000 1.0000
37.8500 436.0000 1.0000
37.8600 422.0000 1.0000
37.8700 440.0000 1.0000
37.8800 433.0000 1.0000
37.8900 427.0000 1.0000
37.9000 466.0000 1.0000
37.9100 433.0000 1.0000
37.9200 457.0000 1.0000
37.9300 416.0000 1.0000
37.9400 463.0000 1.0000
37.9500 476.0000 1.0000
37.9600 467.0000 1.0000
37.9700 443.0000 1.0000
37.9800 493.0000 1.0000
37.9900 448.0000 1.0000
38.0000 438.0000 1.0000
38.0100 434.0000 1.0000
38.0200 466.0000 1.0000
38.0300 470.0000 1.0000
38.0400 432.0000 1.0000
38.0500 427.0000 1.0000
38.0600 458.0000 1.0000
38.0700 440.0000 1.0000
38.0800 452.0000 1.0000
38.0900 459.0000 1.0000
38.1000 494.0000 1.0000
38.1100 485.0000 1.0000
38.1200 458.0000 1.0000
38.1300 488.0000 1.0000
38.1400 469.0000 1.0000
38.1500 468.0000 1.0000
38.1600 513.0000 1.0000
38.1700 493.0000 1.0000
38.1800 500.0000 1.0000
38.1900 535.0000 1.0000
38.2000 528.0000 1.0000
38.2100 559.0000 1.0000
38.2200 571.0000 1.0000
38.2300 618.0000 1.0000
38.2400 593.0000 1.0000
38.2500 613.0000 1.0000
38.2600 635.0000 1.0000
38.2700 637.0000 1.0000
38.2800 663.0000 1.0000
38.2900 724.0000 1.0000
38.3000 699.0000 1.0000
38.3100 717.0000 1.0000
38.3200 725.0000 1.0000
38.3300 759.0000 1.0000
38.3400 781.0000 1.0000
38.3500 844.0000 1.0000
38.3600 912.0000 1.0000
38.3700 901.0000 1.0000
38.3800 936.0000 1.0000
38.3900 1039.0000 1.0000
38.4000 1091.0000 1.0000
38.4100 1208.0000 1.0000
38.4200 1224.0000 1.0000
38.4300 1296.0000 1.0000
38.4400 1436.0000 1.0000
38.4500 1473.0000 1.0000
38.4600 1595.0000 1.0000
38.4700 1729.0000 1.0000
38.4800 1843.0000 1.0000
38.4900 1935.0000 1.0000
38.5000 2062.0000 1.0000
38.5100 2137.0000 1.0000
38.5200 2246.0000 1.0000
38.5300 2296.0000 1.0000
38.5400 2405.0000 1.0000
38.5500 2385.0000 1.0000
38.5600 2490.0000 1.0000
38.5700 2471.0000 1.0000
38.5800 2356.0000 1.0000
38.5900 2399.0000 1.0000
38.6000 2369.0000 1.0000
38.6100 2335.0000 1.0000
38.6200 2296.0000 1.0000
38.6300 2187.0000 1.0000
38.6400 2109.0000 1.0000
38.6500 1943.0000 1.0000
38.6600 1903.0000 1.0000
38.6700 1767.0000 1.0000
38.6800 1725.0000 1.0000
38.6900 1609.0000 1.0000
38.7000 1521.0000 1.0000
38.7100 1381.0000 1.0000
38.7200 1276.0000 1.0000
38.7300 1239.0000 1.0000
38.7400 1193.0000 1.0000
38.7500 1124.0000 1.0000
38.7600 1041.0000 1.0000
38.7700 964.0000 1.0000
38.7800 943.0000 1.0000
38.7900 892.0000 1.0000
38.8000 821.0000 1.0000
38.8100 795.0000 1.0000
38.8200 732.0000 1.0000
38.8300 730.0000 1.0000
38.8400 711.0000 1.0000
38.8500 699.0000 1.0000
38.8600 665.0000 1.0000
38.8700 672.0000 1.0000
38.8800 586.0000 1.0000
38.8900 586.0000 1.0000
38.9000 546.0000 1.0000
38.9100 558.0000 1.0000
38.9200 569.0000 1.0000
38.9300 530.0000 1.0000
38.9400 533.0000 1.0000
38.9500 482.0000 1.0000
38.9600 472.0000 1.0000
38.9700 506.0000 1.0000
38.9800 472.0000 1.0000
38.9900 495.0000 1.0000
39.0000 475.0000 1.0000
39.0100 464.0000 1.0000
39.0200 456.0000 1.0000
39.0300 457.0000 1.0000
39.0400 456.0000 1.0000
39.0500 465.0000 1.0000
39.0600 448.0000 1.0000
39.0700 446.0000 1.0000
39.0800 422.0000 1.0000
39.0900 393.0000 1.0000
39.1000 440.0000 1.0000
39.1100 412.0000 1.0000
39.1200 420.0000 1.0000
39.1300 397.0000 1.0000
39.1400 432.0000 1.0000
39.1500 393.0000 1.0000
39.1600 383.0000 1.0000
39.1700 426.0000 1.0000
39.1800 393.0000 1.0000
39.1900 383.0000 1.0000
39.2000 398.0000 1.0000
39.2100 415.0000 1.0000
39.2200 414.0000 1.0000
39.2300 389.0000 1.0000
39.2400 390.0000 1.0000
39.2500 420.0000 1.0000
39.2600 402.0000 1.0000
39.2700 431.0000 1.0000
39.2800 399.0000 1.0000
39.2900 421.0000 1.0000
39.3000 423.0000 1.0000
39.3100 367.0000 1.0000
39.3200 402.0000 1.0000
39.3300 412.0000 1.0000
39.3400 403.0000 1.0000
39.3500 404.0000 1.0000
39.3600 403.0000 1.0000
39.3700 384.0000 1.0000
39.3800 406.0000 1.0000
39.3900 386.0000 1.0000
39.4000 372.0000 1.0000
39.4100 405.0000 1.0000
39.4200 391.0000 1.0000
39.4300 410.0000 1.0000
39.4400 392.0000 1.0000
39.4500 381.0000 1.0000
39.4600 395.0000 1.0000
39.4700 398.0000 1.0000
39.4800 403.0000 1.0000
39.4900 408.0000 1.0000
39.5000 395.0000 1.0000
39.5100 396.0000 1.0000
39.5200 386.0000 1.0000
39.5300 410.0000 1.0000
39.5400 404.0000 1.0000
39.5500 375.0000 1.0000
39.5600 376.0000 1.0000
39.5700 406.0000 1.0000
39.5800 393.0000 1.0000
39.5900 426.0000 1.0000
39.6000 455.0000 1.0000
39.6100 399.0000 1.0000
39.6200 412.0000 1.0000
39.6300 426.0000 1.0000
39.6400 408.0000 1.0000
39.6500 427.0000 1.0000
39.6600 410.0000 1.0000
39.6700 410.0000 1.0000
39.6800 418.0000 1.0000
39.6900 388.0000 1.0000
39.7000 402.0000 1.0000
39.7100 402.0000 1.0000
39.7200 413.0000 1.0000
39.7300 393.0000 1.0000
39.7400 414.0000 1.0000
39.7500 355.0000 1.0000
39.7600 379.0000 1.0000
39.7700 366.0000 1.0000
39.7800 379.0000 1.0000
39.7900 384.0000 1.0000
39.8000 396.0000 1.0000
39.8100 376.0000 1.0000
39.8200 362.0000 1.0000
39.8300 373.0000 1.0000
39.8400 367.0000 1.0000
39.8500 396.0000 1.0000
39.8600 389.0000 1.0000
39.8700 399.0000 1.0000
39.8800 364.0000 1.0000
39.8900 317.0000 1.0000
39.9000 389.0000 1.0000
39.9100 398.0000 1.0000
39.9200 380.0000 1.0000
39.9300 347.0000 1.0000
39.9400 375.0000 1.0000
39.9500 356.0000 1.0000
39.9600 363.0000 1.0000
39.9700 339.0000 1.0000
39.9800 371.0000 1.0000
39.9900 381.0000 1.0000
40.0000 392.0000 1.0000
40.0100 376.0000 1.0000
40.0200 377.0000 1.0000
40.0300 367.0000 1.0000
40.0400 394.0000 1.0000
40.0500 373.0000 1.0000
40.0600 374.0000 1.0000
40.0700 354.0000 1.0000
40.0800 350.0000 1.0000
40.0900 380.0000 1.0000
40.1000 354.0000 1.0000
40.1100 357.0000 1.0000
40.1200 384.0000 1.0000
40.1300 394.0000 1.0000
40.1400 384.0000 1.0000
40.1500 352.0000 1.0000
40.1600 399.0000 1.0000
40.1700 385.0000 1.0000
40.1800 366.0000 1.0000
40.1900 364.0000 1.0000
40.2000 382.0000 1.0000
40.2100 345.0000 1.0000
40.2200 355.0000 1.0000
40.2300 345.0000 1.0000
40.2400 334.0000 1.0000
40.2500 333.0000 1.0000
40.2600 328.0000 1.0000
40.2700 341.0000 1.0000
40.2800 373.0000 1.0000
40.2900 375.0000 1.0000
40.3000 382.0000 1.0000
40.3100 335.0000 1.0000
40.3200 325.0000 1.0000
40.3300 361.0000 1.0000
40.3400 364.0000 1.0000
40.3500 346.0000 1.0000
40.3600 359.0000 1.0000
40.3700 368.0000 1.0000
40.3800 382.0000 1.0000
40.3900 359.0000 1.0000
40.4000 348.0000 1.0000
40.4100 357.0000 1.0000
40.4200 381.0000 1.0000
40.4300 347.0000 1.0000
40.4400 349.0000 1.0000
40.4500 374.0000 1.0000
40.4600 367.0000 1.0000
40.4700 372.0000 1.0000
40.4800 350.0000 1.0000
40.4900 375.0000 1.0000
40.5000 369.0000 1.0000
40.5100 332.0000 1.0000
40.5200 401.0000 1.0000
40.5300 364.0000 1.0000
40.5400 365.0000 1.0000
40.5500 402.0000 1.0000
40.5600 346.0000 1.0000
40.5700 347.0000 1.0000
40.5800 362.0000 1.0000
40.5900 397.0000 1.0000
40.6000 351.0000 1.0000
40.6100 302.0000 1.0000
40.6200 366.0000 1.0000
40.6300 379.0000 1.0000
40.6400 362.0000 1.0000
40.6500 342.0000 1.0000
40.6600 332.0000 1.0000
40.6700 357.0000 1.0000
40.6800 358.0000 1.0000
40.6900 371.0000 1.0000
40.7000 351.0000 1.0000
40.7100 374.0000 1.0000
40.7200 348.0000 1.0000
40.7300 346.0000 1.0000
40.7400 326.0000 1.0000
40.7500 356.0000 1.0000
40.7600 379.0000 1.0000
40.7700 343.0000 1.0000
40.7800 368.0000 1.0000
40.7900 374.0000 1.0000
40.8000 345.0000 1.0000
40.8100 357.0000 1.0000
40.8200 334.0000 1.0000
40.8300 368.0000 1.0000
40.8400 343.0000 1.0000
40.8500 361.0000 1.0000
40.8600 339.0000 1.0000
40.8700 383.0000 1.0000
40.8800 348.0000 1.0000
40.8900 351.0000 1.0000
40.9000 346.0000 1.0000
40.9100 344.0000 1.0000
40.9200 357.0000 1.0000
40.9300 335.0000 1.0000
40.9400 348.0000 1.0000
40.9500 322.0000 1.0000
40.9600 347.0000 1.0000
40.9700 335.0000 1.0000
40.9800 348.0000 1.0000
40.9900 334.0000 1.0000
41.0000 345.0000 1.0000
41.0100 340.0000 1.0000
41.0200 371.0000 1.0000
41.0300 366.0000 1.0000
41.0400 353.0000 1.0000
41.0500 337.0000 1.0000
41.0600 352.0000 1.0000
41.0700 368.0000 1.0000
41.0800 339.0000 1.0000
41.0900 351.0000 1.0000
41.1000 364.0000 1.0000
41.1100 381.0000 1.0000
41.1200 339.0000 1.0000
41.1300 369.0000 1.0000
41.1400 386.0000 1.0000
41.1500 360.0000 1.0000
41.1600 317.0000 1.0000
41.1700 375.0000 1.0000
41.1800 359.0000 1.0000
41.1900 353.0000 1.0000
41.2000 338.0000 1.0000
41.2100 338.0000 1.0000
41.2200 343.0000 1.0000
41.2300 370.0000 1.0000
41.2400 340.0000 1.0000
41.2500 345.0000 1.0000
41.2600 336.0000 1.0000
41.2700 366.0000 1.0000
41.2800 344.0000 1.0000
41.2900 342.0000 1.0000
41.3000 345.0000 1.0000
41.3100 329.0000 1.0000
41.3200 321.0000 1.0000
41.3300 360.0000 1.0000
41.3400 361.0000 1.0000
41.3500 370.0000 1.0000
41.3600 341.0000 1.0000
41.3700 345.0000 1.0000
41.3800 367.0000 1.0000
41.3900 328.0000 1.0000
41.4000 355.0000 1.0000
41.4100 311.0000 1.0000
41.4200 375.0000 1.0000
41.4300 361.0000 1.0000
41.4400 355.0000 1.0000
41.4500 373.0000 1.0000
41.4600 357.0000 1.0000
41.4700 354.0000 1.0000
41.4800 371.0000 1.0000
41.4900 355.0000 1.0000
41.5000 383.0000 1.0000
41.5100 364.0000 1.0000
41.5200 346.0000 1.0000
41.5300 376.0000 1.0000
41.5400 359.0000 1.0000
41.5500 360.0000 1.0000
41.5600 343.0000 1.0000
41.5700 375.0000 1.0000
41.5800 373.0000 1.0000
41.5900 338.0000 1.0000
41.6000 358.0000 1.0000
41.6100 378.0000 1.0000
41.6200 356.0000 1.0000
41.6300 335.0000 1.0000
41.6400 357.0000 1.0000
41.6500 357.0000 1.0000
41.6600 355.0000 1.0000
41.6700 367.0000 1.0000
41.6800 366.0000 1.0000
41.6900 353.0000 1.0000
41.7000 394.0000 1.0000
41.7100 373.0000 1.0000
41.7200 340.0000 1.0000
41.7300 344.0000 1.0000
41.7400 357.0000 1.0000
41.7500 359.0000 1.0000
41.7600 372.0000 1.0000
41.7700 336.0000 1.0000
41.7800 347.0000 1.0000
41.7900 373.0000 1.0000
41.8000 350.0000 1.0000
41.8100 348.0000 1.0000
41.8200 361.0000 1.0000
41.8300 359.0000 1.0000
41.8400 349.0000 1.0000
41.8500 330.0000 1.0000
41.8600 357.0000 1.0000
41.8700 357.0000 1.0000
41.8800 360.0000 1.0000
41.8900 352.0000 1.0000
41.9000 349.0000 1.0000
41.9100 328.0000 1.0000
41.9200 354.0000 1.0000
41.9300 346.0000 1.0000
41.9400 371.0000 1.0000
41.9500 351.0000 1.0000
41.9600 348.0000 1.0000
41.9700 362.0000 1.0000
41.9800 335.0000 1.0000
41.9900 320.0000 1.0000
42.0000 343.0000 1.0000
42.0100 354.0000 1.0000
42.0200 368.0000 1.0000
42.0300 357.0000 1.0000
42.0400 367.0000 1.0000
42.0500 364.0000 1.0000
42.0600 343.0000 1.0000
42.0700 346.0000 1.0000
42.0800 370.0000 1.0000
42.0900 346.0000 1.0000
42.1000 371.0000 1.0000
42.1100 360.0000 1.0000
42.1200 337.0000 1.0000
42.1300 361.0000 1.0000
42.1400 335.0000 1.0000
42.1500 336.0000 1.0000
42.1600 329.0000 1.0000
42.1700 356.0000 1.0000
42.1800 349.0000 1.0000
42.1900 331.0000 1.0000
42.2000 372.0000 1.0000
42.2100 359.0000 1.0000
42.2200 342.0000 1.0000
42.2300 335.0000 1.0000
42.2400 340.0000 1.0000
42.2500 351.0000 1.0000
42.2600 348.0000 1.0000
42.2700 330.0000 1.0000
42.2800 328.0000 1.0000
42.2900 352.0000 1.0000
42.3000 326.0000 1.0000
42.3100 363.0000 1.0000
42.3200 294.0000 1.0000
42.3300 355.0000 1.0000
42.3400 330.0000 1.0000
42.3500 368.0000 1.0000
42.3600 364.0000 1.0000
42.3700 344.0000 1.0000
42.3800 341.0000 1.0000
42.3900 332.0000 1.0000
42.4000 355.0000 1.0000
42.4100 365.0000 1.0000
42.4200 365.0000 1.0000
42.4300 342.0000 1.0000
42.4400 343.0000 1.0000
42.4500 346.0000 1.0000
42.4600 334.0000 1.0000
42.4700 357.0000 1.0000
42.4800 324.0000 1.0000
42.4900 369.0000 1.0000
42.5000 347.0000 1.0000
42.5100 347.0000 1.0000
42.5200 328.0000 1.0000
42.5300 326.0000 1.0000
42.5400 354.0000 1.0000
42.5500 333.0000 1.0000
42.5600 342.0000 1.0000
42.5700 363.0000 1.0000
42.5800 355.0000 1.0000
42.5900 321.0000 1.0000
42.6000 355.0000 1.0000
42.6100 369.0000 1.0000
42.6200 360.0000 1.0000
42.6300 345.0000 1.0000
42.6400 319.0000 1.0000
42.6500 335.0000 1.0000
42.6600 355.0000 1.0000
42.6700 331.0000 1.0000
42.6800 359.0000 1.0000
42.6900 363.0000 1.0000
42.7000 337.0000 1.0000
42.7100 346.0000 1.0000
42.7200 328.0000 1.0000
42.7300 349.0000 1.0000
42.7400 339.0000 1.0000
42.7500 374.0000 1.0000
42.7600 357.0000 1.0000
42.7700 347.0000 1.0000
42.7800 342.0000 1.0000
42.7900 342.0000 1.0000
42.8000 380.0000 1.0000
42.8100 366.0000 1.0000
42.8200 329.0000 1.0000
42.8300 350.0000 1.0000
42.8400 335.0000 1.0000
42.8500 401.0000 1.0000
42.8600 362.0000 1.0000
42.8700 343.0000 1.0000
42.8800 345.0000 1.0000
42.8900 338.0000 1.0000
42.9000 368.0000 1.0000
42.9100 341.0000 1.0000
42.9200 359.0000 1.0000
42.9300 339.0000 1.0000
42.9400 344.0000 1.0000
42.9500 339.0000 1.0000
42.9600 341.0000 1.0000
42.9700 343.0000 1.0000
42.9800 328.0000 1.0000
42.9900 353.0000 1.0000
43.0000 350.0000 1.0000
43.0100 358.0000 1.0000
43.0200 357.0000 1.0000
43.0300 345.0000 1.0000
43.0400 364.0000 1.0000
43.0500 352.0000 1.0000
43.0600 349.0000 1.0000
43.0700 333.0000 1.0000
43.0800 338.0000 1.0000
43.0900 316.0000 1.0000
43.1000 329.0000 1.0000
43.1100 332.0000 1.0000
43.1200 372.0000 1.0000
43.1300 339.0000 1.0000
43.1400 345.0000 1.0000
43.1500 373.0000 1.0000
43.1600 364.0000 1.0000
43.1700 378.0000 1.0000
43.1800 361.0000 1.0000
43.1900 367.0000 1.0000
43.2000 406.0000 1.0000
43.2100 370.0000 1.0000
43.2200 392.0000 1.0000
43.2300 376.0000 1.0000
43.2400 400.0000 1.0000
43.2500 371.0000 1.0000
43.2600 347.0000 1.0000
43.2700 371.0000 1.0000
43.2800 368.0000 1.0000
43.2900 386.0000 1.0000
43.3000 381.0000 1.0000
43.3100 397.0000 1.0000
43.3200 372.0000 1.0000
43.3300 377.0000 1.0000
43.3400 376.0000 1.0000
43.3500 348.0000 1.0000
43.3600 365.0000 1.0000
43.3700 365.0000 1.0000
43.3800 389.0000 1.0000
43.3900 358.0000 1.0000
43.4000 385.0000 1.0000
43.4100 365.0000 1.0000
43.4200 368.0000 1.0000
43.4300 356.0000 1.0000
43.4400 380.0000 1.0000
43.4500 357.0000 1.0000
43.4600 326.0000 1.0000
43.4700 372.0000 1.0000
43.4800 335.0000 1.0000
43.4900 338.0000 1.0000
43.5000 346.0000 1.0000
43.5100 367.0000 1.0000
43.5200 354.0000 1.0000
43.5300 335.0000 1.0000
43.5400 308.0000 1.0000
43.5500 358.0000 1.0000
43.5600 350.0000 1.0000
43.5700 323.0000 1.0000
43.5800 331.0000 1.0000
43.5900 313.0000 1.0000
43.6000 323.0000 1.0000
43.6100 338.0000 1.0000
43.6200 370.0000 1.0000
43.6300 359.0000 1.0000
43.6400 362.0000 1.0000
43.6500 351.0000 1.0000
43.6600 340.0000 1.0000
43.6700 335.0000 1.0000
43.6800 333.0000 1.0000
43.6900 320.0000 1.0000
43.7000 348.0000 1.0000
43.7100 328.0000 1.0000
43.7200 326.0000 1.0000
43.7300 377.0000 1.0000
43.7400 357.0000 1.0000
43.7500 352.0000 1.0000
43.7600 312.0000 1.0000
43.7700 357.0000 1.0000
43.7800 350.0000 1.0000
43.7900 331.0000 1.0000
43.8000 324.0000 1.0000
43.8100 331.0000 1.0000
43.8200 326.0000 1.0000
43.8300 330.0000 1.0000
43.8400 320.0000 1.0000
43.8500 310.0000 1.0000
43.8600 326.0000 1.0000
43.8700 353.0000 1.0000
43.8800 346.0000 1.0000
43.8900 331.0000 1.0000
43.9000 308.0000 1.0000
43.9100 313.0000 1.0000
43.9200 313.0000 1.0000
43.9300 351.0000 1.0000
43.9400 330.0000 1.0000
43.9500 337.0000 1.0000
43.9600 340.0000 1.0000
43.9700 345.0000 1.0000
43.9800 347.0000 1.0000
43.9900 310.0000 1.0000
44.0000 318.0000 1.0000
44.0100 343.0000 1.0000
44.0200 319.0000 1.0000
44.0300 362.0000 1.0000
44.0400 325.0000 1.0000
44.0500 322.0000 1.0000
44.0600 384.0000 1.0000
44.0700 333.0000 1.0000
44.0800 350.0000 1.0000
44.0900 321.0000 1.0000
44.1000 333.0000 1.0000
44.1100 344.0000 1.0000
44.1200 327.0000 1.0000
44.1300 319.0000 1.0000
44.1400 336.0000 1.0000
44.1500 334.0000 1.0000
44.1600 319.0000 1.0000
44.1700 311.0000 1.0000
44.1800 335.0000 1.0000
44.1900 357.0000 1.0000
44.2000 359.0000 1.0000
44.2100 330.0000 1.0000
44.2200 332.0000 1.0000
44.2300 323.0000 1.0000
44.2400 326.0000 1.0000
44.2500 332.0000 1.0000
44.2600 309.0000 1.0000
44.2700 353.0000 1.0000
44.2800 347.0000 1.0000
44.2900 336.0000 1.0000
44.3000 363.0000 1.0000
44.3100 341.0000 1.0000
44.3200 343.0000 1.0000
44.3300 363.0000 1.0000
44.3400 381.0000 1.0000
44.3500 333.0000 1.0000
44.3600 319.0000 1.0000
44.3700 317.0000 1.0000
44.3800 349.0000 1.0000
44.3900 334.0000 1.0000
44.4000 345.0000 1.0000
44.4100 337.0000 1.0000
44.4200 335.0000 1.0000
44.4300 333.0000 1.0000
44.4400 366.0000 1.0000
44.4500 341.0000 1.0000
44.4600 336.0000 1.0000
44.4700 375.0000 1.0000
44.4800 322.0000 1.0000
44.4900 333.0000 1.0000
44.5000 332.0000 1.0000
44.5100 317.0000 1.0000
44.5200 353.0000 1.0000
44.5300 360.0000 1.0000
44.5400 343.0000 1.0000
44.5500 322.0000 1.0000
44.5600 357.0000 1.0000
44.5700 331.0000 1.0000
44.5800 338.0000 1.0000
44.5900 365.0000 1.0000
44.6000 373.0000 1.0000
44.6100 350.0000 1.0000
44.6200 346.0000 1.0000
44.6300 335.0000 1.0000
44.6400 311.0000 1.0000
44.6500 359.0000 1.0000
44.6600 321.0000 1.0000
44.6700 315.0000 1.0000
44.6800 338.0000 1.0000
44.6900 313.0000 1.0000
44.7000 337.0000 1.0000
44.7100 354.0000 1.0000
44.7200 334.0000 1.0000
44.7300 360.0000 1.0000
44.7400 335.0000 1.0000
44.7500 333.0000 1.0000
44.7600 334.0000 1.0000
44.7700 307.0000 1.0000
44.7800 323.0000 1.0000
44.7900 315.0000 1.0000
44.8000 328.0000 1.0000
44.8100 325.0000 1.0000
44.8200 342.0000 1.0000
44.8300 322.0000 1.0000
44.8400 341.0000 1.0000
44.8500 359.0000 1.0000
44.8600 311.0000 1.0000
44.8700 346.0000 1.0000
44.8800 329.0000 1.0000
44.8900 320.0000 1.0000
44.9000 333.0000 1.0000
44.9100 308.0000 1.0000
44.9200 324.0000 1.0000
44.9300 313.0000 1.0000
44.9400 306.0000 1.0000
44.9500 319.0000 1.0000
44.9600 302.0000 1.0000
44.9700 339.0000 1.0000
44.9800 328.0000 1.0000
44.9900 313.0000 1.0000
45.0000 318.0000 1.0000
45.0100 337.0000 1.0000
45.0200 357.0000 1.0000
45.0300 309.0000 1.0000
45.0400 347.0000 1.0000
45.0500 339.0000 1.0000
45.0600 347.0000 1.0000
45.0700 330.0000 1.0000
45.0800 347.0000 1.0000
45.0900 335.0000 1.0000
45.1000 344.0000 1.0000
45.1100 321.0000 1.0000
45.1200 335.0000 1.0000
45.1300 312.0000 1.0000
45.1400 313.0000 1.0000
45.1500 307.0000 1.0000
45.1600 321.0000 1.0000
45.1700 333.0000 1.0000
45.1800 318.0000 1.0000
45.1900 340.0000 1.0000
45.2000 357.0000 1.0000
45.2100 367.0000 1.0000
45.2200 310.0000 1.0000
45.2300 320.0000 1.0000
45.2400 311.0000 1.0000
45.2500 325.0000 1.0000
45.2600 359.0000 1.0000
45.2700 313.0000 1.0000
45.2800 298.0000 1.0000
45.2900 316.0000 1.0000
45.3000 325.0000 1.0000
45.3100 353.0000 1.0000
45.3200 342.0000 1.0000
45.3300 302.0000 1.0000
45.3400 331.0000 1.0000
45.3500 302.0000 1.0000
45.3600 307.0000 1.0000
45.3700 324.0000 1.0000
45.3800 350.0000 1.0000
45.3900 329.0000 1.0000
45.4000 306.0000 1.0000
45.4100 369.0000 1.0000
45.4200 350.0000 1.0000
45.4300 323.0000 1.0000
45.4400 355.0000 1.0000
45.4500 322.0000 1.0000
45.4600 307.0000 1.0000
45.4700 320.0000 1.0000
45.4800 325.0000 1.0000
45.4900 320.0000 1.0000
45.5000 324.0000 1.0000
45.5100 305.0000 1.0000
45.5200 326.0000 1.0000
45.5300 349.0000 1.0000
45.5400 327.0000 1.0000
45.5500 334.0000 1.0000
45.5600 327.0000 1.0000
45.5700 306.0000 1.0000
45.5800 310.0000 1.0000
45.5900 340.0000 1.0000
45.6000 330.0000 1.0000
45.6100 331.0000 1.0000
45.6200 332.0000 1.0000
45.6300 323.0000 1.0000
45.6400 331.0000 1.0000
45.6500 334.0000 1.0000
45.6600 326.0000 1.0000
45.6700 312.0000 1.0000
45.6800 320.0000 1.0000
45.6900 312.0000 1.0000
45.7000 324.0000 1.0000
45.7100 301.0000 1.0000
45.7200 310.0000 1.0000
45.7300 338.0000 1.0000
45.7400 352.0000 1.0000
45.7500 331.0000 1.0000
45.7600 323.0000 1.0000
45.7700 314.0000 1.0000
45.7800 319.0000 1.0000
45.7900 339.0000 1.0000
45.8000 316.0000 1.0000
45.8100 350.0000 1.0000
45.8200 318.0000 1.0000
45.8300 342.0000 1.0000
45.8400 346.0000 1.0000
45.8500 317.0000 1.0000
45.8600 339.0000 1.0000
45.8700 294.0000 1.0000
45.8800 290.0000 1.0000
45.8900 345.0000 1.0000
45.9000 330.0000 1.0000
45.9100 313.0000 1.0000
45.9200 298.0000 1.0000
45.9300 319.0000 1.0000
45.9400 303.0000 1.0000
45.9500 317.0000 1.0000
45.9600 316.0000 1.0000
45.9700 313.0000 1.0000
45.9800 306.0000 1.0000
45.9900 319.0000 1.0000
46.0000 309.0000 1.0000
46.0100 330.0000 1.0000
46.0200 330.0000 1.0000
46.0300 333.0000 1.0000
46.0400 329.0000 1.0000
46.0500 299.0000 1.0000
46.0600 294.0000 1.0000
46.0700 303.0000 1.0000
46.0800 328.0000 1.0000
46.0900 331.0000 1.0000
46.1000 326.0000 1.0000
46.1100 349.0000 1.0000
46.1200 328.0000 1.0000
46.1300 330.0000 1.0000
46.1400 331.0000 1.0000
46.1500 326.0000 1.0000
46.1600 309.0000 1.0000
46.1700 326.0000 1.0000
46.1800 343.0000 1.0000
46.1900 292.0000 1.0000
46.2000 315.0000 1.0000
46.2100 355.0000 1.0000
46.2200 335.0000 1.0000
46.2300 316.0000 1.0000
46.2400 330.0000 1.0000
46.2500 328.0000 1.0000
46.2600 320.0000 1.0000
46.2700 338.0000 1.0000
46.2800 328.0000 1.0000
46.2900 315.0000 1.0000
46.3000 326.0000 1.0000
46.3100 303.0000 1.0000
46.3200 323.0000 1.0000
46.3300 322.0000 1.0000
46.3400 311.0000 1.0000
46.3500 308.0000 1.0000
46.3600 313.0000 1.0000
46.3700 306.0000 1.0000
46.3800 341.0000 1.0000
46.3900 335.0000 1.0000
46.4000 330.0000 1.0000
46.4100 333.0000 1.0000
46.4200 331.0000 1.0000
46.4300 317.0000 1.0000
46.4400 320.0000 1.0000
46.4500 333.0000 1.0000
46.4600 337.0000 1.0000
46.4700 310.0000 1.0000
46.4800 297.0000 1.0000
46.4900 330.0000 1.0000
46.5000 312.0000 1.0000
46.5100 325.0000 1.0000
46.5200 307.0000 1.0000
46.5300 327.0000 1.0000
46.5400 335.0000 1.0000
46.5500 334.0000 1.0000
46.5600 297.0000 1.0000
46.5700 305.0000 1.0000
46.5800 308.0000 1.0000
46.5900 324.0000 1.0000
46.6000 340.0000 1.0000
46.6100 339.0000 1.0000
46.6200 331.0000 1.0000
46.6300 326.0000 1.0000
46.6400 305.0000 1.0000
46.6500 322.0000 1.0000
46.6600 337.0000 1.0000
46.6700 326.0000 1.0000
46.6800 328.0000 1.0000
46.6900 307.0000 1.0000
46.7000 326.0000 1.0000
46.7100 375.0000 1.0000
46.7200 308.0000 1.0000
46.7300 309.0000 1.0000
46.7400 304.0000 1.0000
46.7500 293.0000 1.0000
46.7600 343.0000 1.0000
46.7700 305.0000 1.0000
46.7800 320.0000 1.0000
46.7900 312.0000 1.0000
46.8000 303.0000 1.0000
46.8100 298.0000 1.0000
46.8200 322.0000 1.0000
46.8300 302.0000 1.0000
46.8400 327.0000 1.0000
46.8500 307.0000 1.0000
46.8600 324.0000 1.0000
46.8700 324.0000 1.0000
46.8800 312.0000 1.0000
46.8900 316.0000 1.0000
46.9000 308.0000 1.0000
46.9100 324.0000 1.0000
46.9200 317.0000 1.0000
46.9300 313.0000 1.0000
46.9400 308.0000 1.0000
46.9500 310.0000 1.0000
46.9600 295.0000 1.0000
46.9700 347.0000 1.0000
46.9800 320.0000 1.0000
46.9900 314.0000 1.0000
47.0000 327.0000 1.0000
47.0100 321.0000 1.0000
47.0200 313.0000 1.0000
47.0300 363.0000 1.0000
47.0400 341.0000 1.0000
47.0500 318.0000 1.0000
47.0600 302.0000 1.0000
47.0700 300.0000 1.0000
47.0800 328.0000 1.0000
47.0900 320.0000 1.0000
47.1000 310.0000 1.0000
47.1100 332.0000 1.0000
47.1200 307.0000 1.0000
47.1300 319.0000 1.0000
47.1400 307.0000 1.0000
47.1500 314.0000 1.0000
47.1600 329.0000 1.0000
47.1700 318.0000 1.0000
47.1800 354.0000 1.0000
47.1900 338.0000 1.0000
47.2000 340.0000 1.0000
47.2100 303.0000 1.0000
47.2200 327.0000 1.0000
47.2300 302.0000 1.0000
47.2400 328.0000 1.0000
47.2500 297.0000 1.0000
47.2600 305.0000 1.0000
47.2700 281.0000 1.0000
47.2800 304.0000 1.0000
47.2900 308.0000 1.0000
47.3000 305.0000 1.0000
47.3100 314.0000 1.0000
47.3200 298.0000 1.0000
47.3300 333.0000 1.0000
47.3400 302.0000 1.0000
47.3500 306.0000 1.0000
47.3600 308.0000 1.0000
47.3700 311.0000 1.0000
47.3800 312.0000 1.0000
47.3900 336.0000 1.0000
47.4000 323.0000 1.0000
47.4100 317.0000 1.0000
47.4200 310.0000 1.0000
47.4300 291.0000 1.0000
47.4400 307.0000 1.0000
47.4500 318.0000 1.0000
47.4600 302.0000 1.0000
47.4700 286.0000 1.0000
47.4800 283.0000 1.0000
47.4900 292.0000 1.0000
47.5000 305.0000 1.0000
47.5100 303.0000 1.0000
47.5200 299.0000 1.0000
47.5300 317.0000 1.0000
47.5400 302.0000 1.0000
47.5500 281.0000 1.0000
47.5600 314.0000 1.0000
47.5700 312.0000 1.0000
47.5800 332.0000 1.0000
47.5900 307.0000 1.0000
47.6000 311.0000 1.0000
47.6100 303.0000 1.0000
47.6200 289.0000 1.0000
47.6300 281.0000 1.0000
47.6400 277.0000 1.0000
47.6500 283.0000 1.0000
47.6600 300.0000 1.0000
47.6700 302.0000 1.0000
47.6800 307.0000 1.0000
47.6900 293.0000 1.0000
47.7000 314.0000 1.0000
47.7100 326.0000 1.0000
47.7200 332.0000 1.0000
47.7300 313.0000 1.0000
47.7400 320.0000 1.0000
47.7500 291.0000 1.0000
47.7600 331.0000 1.0000
47.7700 303.0000 1.0000
47.7800 344.0000 1.0000
47.7900 301.0000 1.0000
47.8000 342.0000 1.0000
47.8100 289.0000 1.0000
47.8200 291.0000 1.0000
47.8300 287.0000 1.0000
47.8400 295.0000 1.0000
47.8500 318.0000 1.0000
47.8600 304.0000 1.0000
47.8700 289.0000 1.0000
47.8800 340.0000 1.0000
47.8900 304.0000 1.0000
47.9000 299.0000 1.0000
47.9100 314.0000 1.0000
47.9200 317.0000 1.0000
47.9300 284.0000 1.0000
47.9400 258.0000 1.0000
47.9500 293.0000 1.0000
47.9600 298.0000 1.0000
47.9700 285.0000 1.0000
47.9800 305.0000 1.0000
47.9900 291.0000 1.0000
48.0000 302.0000 1.0000
48.0100 297.0000 1.0000
48.0200 273.0000 1.0000
48.0300 319.0000 1.0000
48.0400 290.0000 1.0000
48.0500 293.0000 1.0000
48.0600 271.0000 1.0000
48.0700 332.0000 1.0000
48.0800 298.0000 1.0000
48.0900 310.0000 1.0000
48.1000 296.0000 1.0000
48.1100 320.0000 1.0000
48.1200 307.0000 1.0000
48.1300 307.0000 1.0000
48.1400 305.0000 1.0000
48.1500 286.0000 1.0000
48.1600 311.0000 1.0000
48.1700 305.0000 1.0000
48.1800 308.0000 1.0000
48.1900 296.0000 1.0000
48.2000 297.0000 1.0000
48.2100 296.0000 1.0000
48.2200 297.0000 1.0000
48.2300 280.0000 1.0000
48.2400 311.0000 1.0000
48.2500 311.0000 1.0000
48.2600 311.0000 1.0000
48.2700 288.0000 1.0000
48.2800 302.0000 1.0000
48.2900 326.0000 1.0000
48.3000 295.0000 1.0000
48.3100 289.0000 1.0000
48.3200 288.0000 1.0000
48.3300 317.0000 1.0000
48.3400 302.0000 1.0000
48.3500 317.0000 1.0000
48.3600 303.0000 1.0000
48.3700 331.0000 1.0000
48.3800 326.0000 1.0000
48.3900 332.0000 1.0000
48.4000 319.0000 1.0000
48.4100 320.0000 1.0000
48.4200 299.0000 1.0000
48.4300 299.0000 1.0000
48.4400 303.0000 1.0000
48.4500 303.0000 1.0000
48.4600 294.0000 1.0000
48.4700 339.0000 1.0000
48.4800 305.0000 1.0000
48.4900 290.0000 1.0000
48.5000 316.0000 1.0000
48.5100 311.0000 1.0000
48.5200 325.0000 1.0000
48.5300 304.0000 1.0000
48.5400 290.0000 1.0000
48.5500 312.0000 1.0000
48.5600 301.0000 1.0000
48.5700 298.0000 1.0000
48.5800 299.0000 1.0000
48.5900 288.0000 1.0000
48.6000 288.0000 1.0000
48.6100 292.0000 1.0000
48.6200 318.0000 1.0000
48.6300 327.0000 1.0000
48.6400 326.0000 1.0000
48.6500 290.0000 1.0000
48.6600 312.0000 1.0000
48.6700 325.0000 1.0000
48.6800 303.0000 1.0000
48.6900 302.0000 1.0000
48.7000 314.0000 1.0000
48.7100 290.0000 1.0000
48.7200 308.0000 1.0000
48.7300 293.0000 1.0000
48.7400 293.0000 1.0000
48.7500 299.0000 1.0000
48.7600 295.0000 1.0000
48.7700 338.0000 1.0000
48.7800 320.0000 1.0000
48.7900 308.0000 1.0000
48.8000 304.0000 1.0000
48.8100 312.0000 1.0000
48.8200 296.0000 1.0000
48.8300 317.0000 1.0000
48.8400 309.0000 1.0000
48.8500 291.0000 1.0000
48.8600 288.0000 1.0000
48.8700 293.0000 1.0000
48.8800 283.0000 1.0000
48.8900 294.0000 1.0000
48.9000 313.0000 1.0000
48.9100 286.0000 1.0000
48.9200 307.0000 1.0000
48.9300 279.0000 1.0000
48.9400 276.0000 1.0000
48.9500 323.0000 1.0000
48.9600 322.0000 1.0000
48.9700 305.0000 1.0000
48.9800 280.0000 1.0000
48.9900 279.0000 1.0000
49.0000 298.0000 1.0000
49.0100 294.0000 1.0000
49.0200 307.0000 1.0000
49.0300 320.0000 1.0000
49.0400 301.0000 1.0000
49.0500 287.0000 1.0000
49.0600 269.0000 1.0000
49.0700 281.0000 1.0000
49.0800 318.0000 1.0000
49.0900 278.0000 1.0000
49.1000 300.0000 1.0000
49.1100 293.0000 1.0000
49.1200 305.0000 1.0000
49.1300 297.0000 1.0000
49.1400 301.0000 1.0000
49.1500 316.0000 1.0000
49.1600 299.0000 1.0000
49.1700 295.0000 1.0000
49.1800 295.0000 1.0000
49.1900 279.0000 1.0000
49.2000 293.0000 1.0000
49.2100 304.0000 1.0000
49.2200 285.0000 1.0000
49.2300 273.0000 1.0000
49.2400 290.0000 1.0000
49.2500 309.0000 1.0000
49.2600 259.0000 1.0000
49.2700 297.0000 1.0000
49.2800 291.0000 1.0000
49.2900 281.0000 1.0000
49.3000 310.0000 1.0000
49.3100 314.0000 1.0000
49.3200 303.0000 1.0000
49.3300 275.0000 1.0000
49.3400 301.0000 1.0000
49.3500 310.0000 1.0000
49.3600 300.0000 1.0000
49.3700 307.0000 1.0000
49.3800 300.0000 1.0000
49.3900 282.0000 1.0000
49.4000 292.0000 1.0000
49.4100 307.0000 1.0000
49.4200 300.0000 1.0000
49.4300 312.0000 1.0000
49.4400 300.0000 1.0000
49.4500 311.0000 1.0000
49.4600 297.0000 1.0000
49.4700 308.0000 1.0000
49.4800 305.0000 1.0000
49.4900 321.0000 1.0000
49.5000 308.0000 1.0000
49.5100 278.0000 1.0000
49.5200 307.0000 1.0000
49.5300 300.0000 1.0000
49.5400 303.0000 1.0000
49.5500 282.0000 1.0000
49.5600 290.0000 1.0000
49.5700 288.0000 1.0000
49.5800 274.0000 1.0000
49.5900 314.0000 1.0000
49.6000 312.0000 1.0000
49.6100 295.0000 1.0000
49.6200 299.0000 1.0000
49.6300 274.0000 1.0000
49.6400 307.0000 1.0000
49.6500 301.0000 1.0000
49.6600 294.0000 1.0000
49.6700 298.0000 1.0000
49.6800 294.0000 1.0000
49.6900 299.0000 1.0000
49.7000 291.0000 1.0000
49.7100 277.0000 1.0000
49.7200 295.0000 1.0000
49.7300 295.0000 1.0000
49.7400 295.0000 1.0000
49.7500 287.0000 1.0000
49.7600 313.0000 1.0000
49.7700 273.0000 1.0000
49.7800 291.0000 1.0000
49.7900 310.0000 1.0000
49.8000 305.0000 1.0000
49.8100 283.0000 1.0000
49.8200 280.0000 1.0000
49.8300 290.0000 1.0000
49.8400 304.0000 1.0000
49.8500 325.0000 1.0000
49.8600 318.0000 1.0000
49.8700 308.0000 1.0000
49.8800 284.0000 1.0000
49.8900 302.0000 1.0000
49.9000 316.0000 1.0000
49.9100 297.0000 1.0000
49.9200 307.0000 1.0000
49.9300 292.0000 1.0000
49.9400 295.0000 1.0000
49.9500 299.0000 1.0000
49.9600 280.0000 1.0000
49.9700 305.0000 1.0000
49.9800 293.0000 1.0000
49.9900 286.0000 1.0000
50.0000 302.0000 1.0000
50.0100 317.0000 1.0000
50.0200 313.0000 1.0000
50.0300 286.0000 1.0000
50.0400 300.0000 1.0000
50.0500 315.0000 1.0000
50.0600 299.0000 1.0000
50.0700 315.0000 1.0000
50.0800 305.0000 1.0000
50.0900 291.0000 1.0000
50.1000 306.0000 1.0000
50.1100 301.0000 1.0000
50.1200 283.0000 1.0000
50.1300 298.0000 1.0000
50.1400 286.0000 1.0000
50.1500 292.0000 1.0000
50.1600 300.0000 1.0000
50.1700 322.0000 1.0000
50.1800 297.0000 1.0000
50.1900 303.0000 1.0000
50.2000 294.0000 1.0000
50.2100 312.0000 1.0000
50.2200 323.0000 1.0000
50.2300 336.0000 1.0000
50.2400 324.0000 1.0000
50.2500 331.0000 1.0000
50.2600 298.0000 1.0000
50.2700 295.0000 1.0000
50.2800 326.0000 1.0000
50.2900 310.0000 1.0000
50.3000 326.0000 1.0000
50.3100 314.0000 1.0000
50.3200 326.0000 1.0000
50.3300 289.0000 1.0000
50.3400 318.0000 1.0000
50.3500 291.0000 1.0000
50.3600 296.0000 1.0000
50.3700 300.0000 1.0000
50.3800 313.0000 1.0000
50.3900 316.0000 1.0000
50.4000 327.0000 1.0000
50.4100 295.0000 1.0000
50.4200 276.0000 1.0000
50.4300 298.0000 1.0000
50.4400 293.0000 1.0000
50.4500 320.0000 1.0000
50.4600 308.0000 1.0000
50.4700 300.0000 1.0000
50.4800 305.0000 1.0000
50.4900 314.0000 1.0000
50.5000 264.0000 1.0000
50.5100 298.0000 1.0000
50.5200 311.0000 1.0000
50.5300 316.0000 1.0000
50.5400 319.0000 1.0000
50.5500 333.0000 1.0000
50.5600 320.0000 1.0000
50.5700 302.0000 1.0000
50.5800 306.0000 1.0000
50.5900 287.0000 1.0000
50.6000 292.0000 1.0000
50.6100 330.0000 1.0000
50.6200 318.0000 1.0000
50.6300 293.0000 1.0000
50.6400 291.0000 1.0000
50.6500 307.0000 1.0000
50.6600 303.0000 1.0000
50.6700 280.0000 1.0000
50.6800 318.0000 1.0000
50.6900 310.0000 1.0000
50.7000 291.0000 1.0000
50.7100 304.0000 1.0000
50.7200 310.0000 1.0000
50.7300 311.0000 1.0000
50.7400 288.0000 1.0000
50.7500 323.0000 1.0000
50.7600 304.0000 1.0000
50.7700 295.0000 1.0000
50.7800 298.0000 1.0000
50.7900 281.0000 1.0000
50.8000 312.0000 1.0000
50.8100 316.0000 1.0000
50.8200 326.0000 1.0000
50.8300 316.0000 1.0000
50.8400 307.0000 1.0000
50.8500 300.0000 1.0000
50.8600 318.0000 1.0000
50.8700 292.0000 1.0000
50.8800 280.0000 1.0000
50.8900 288.0000 1.0000
50.9000 296.0000 1.0000
50.9100 308.0000 1.0000
50.9200 310.0000 1.0000
50.9300 310.0000 1.0000
50.9400 281.0000 1.0000
50.9500 288.0000 1.0000
50.9600 306.0000 1.0000
50.9700 309.0000 1.0000
50.9800 295.0000 1.0000
50.9900 275.0000 1.0000
51.0000 302.0000 1.0000
51.0100 316.0000 1.0000
51.0200 314.0000 1.0000
51.0300 323.0000 1.0000
51.0400 316.0000 1.0000
51.0500 327.0000 1.0000
51.0600 333.0000 1.0000
51.0700 339.0000 1.0000
51.0800 334.0000 1.0000
51.0900 298.0000 1.0000
51.1000 304.0000 1.0000
51.1100 307.0000 1.0000
51.1200 308.0000 1.0000
51.1300 316.0000 1.0000
51.1400 288.0000 1.0000
51.1500 267.0000 1.0000
51.1600 287.0000 1.0000
51.1700 295.0000 1.0000
51.1800 303.0000 1.0000
51.1900 298.0000 1.0000
51.2000 293.0000 1.0000
51.2100 318.0000 1.0000
51.2200 292.0000 1.0000
51.2300 322.0000 1.0000
51.2400 318.0000 1.0000
51.2500 288.0000 1.0000
51.2600 304.0000 1.0000
51.2700 298.0000 1.0000
51.2800 322.0000 1.0000
51.2900 284.0000 1.0000
51.3000 275.0000 1.0000
51.3100 319.0000 1.0000
51.3200 330.0000 1.0000
51.3300 291.0000 1.0000
51.3400 329.0000 1.0000
51.3500 292.0000 1.0000
51.3600 295.0000 1.0000
51.3700 281.0000 1.0000
51.3800 300.0000 1.0000
51.3900 330.0000 1.0000
51.4000 269.0000 1.0000
51.4100 287.0000 1.0000
51.4200 308.0000 1.0000
51.4300 314.0000 1.0000
51.4400 324.0000 1.0000
51.4500 326.0000 1.0000
51.4600 292.0000 1.0000
51.4700 299.0000 1.0000
51.4800 319.0000 1.0000
51.4900 330.0000 1.0000
51.5000 274.0000 1.0000
51.5100 336.0000 1.0000
51.5200 356.0000 1.0000
51.5300 311.0000 1.0000
51.5400 293.0000 1.0000
51.5500 333.0000 1.0000
51.5600 313.0000 1.0000
51.5700 300.0000 1.0000
51.5800 306.0000 1.0000
51.5900 309.0000 1.0000
51.6000 310.0000 1.0000
51.6100 323.0000 1.0000
51.6200 308.0000 1.0000
51.6300 308.0000 1.0000
51.6400 334.0000 1.0000
51.6500 341.0000 1.0000
51.6600 332.0000 1.0000
51.6700 331.0000 1.0000
51.6800 312.0000 1.0000
51.6900 297.0000 1.0000
51.7000 329.0000 1.0000
51.7100 349.0000 1.0000
51.7200 330.0000 1.0000
51.7300 328.0000 1.0000
51.7400 333.0000 1.0000
51.7500 340.0000 1.0000
51.7600 321.0000 1.0000
51.7700 369.0000 1.0000
51.7800 324.0000 1.0000
51.7900 352.0000 1.0000
51.8000 343.0000 1.0000
51.8100 338.0000 1.0000
51.8200 326.0000 1.0000
51.8300 330.0000 1.0000
51.8400 369.0000 1.0000
51.8500 324.0000 1.0000
51.8600 353.0000 1.0000
51.8700 346.0000 1.0000
51.8800 365.0000 1.0000
51.8900 373.0000 1.0000
51.9000 361.0000 1.0000
51.9100 377.0000 1.0000
51.9200 385.0000 1.0000
51.9300 374.0000 1.0000
51.9400 385.0000 1.0000
51.9500 379.0000 1.0000
51.9600 411.0000 1.0000
51.9700 398.0000 1.0000
51.9800 405.0000 1.0000
51.9900 438.0000 1.0000
52.0000 476.0000 1.0000
52.0100 456.0000 1.0000
52.0200 523.0000 1.0000
52.0300 536.0000 1.0000
52.0400 498.0000 1.0000
52.0500 536.0000 1.0000
52.0600 586.0000 1.0000
52.0700 596.0000 1.0000
52.0800 590.0000 1.0000
52.0900 614.0000 1.0000
52.1000 646.0000 1.0000
52.1100 703.0000 1.0000
52.1200 732.0000 1.0000
52.1300 800.0000 1.0000
52.1400 841.0000 1.0000
52.1500 907.0000 1.0000
52.1600 928.0000 1.0000
52.1700 1041.0000 1.0000
52.1800 1173.0000 1.0000
52.1900 1230.0000 1.0000
52.2000 1324.0000 1.0000
52.2100 1439.0000 1.0000
52.2200 1536.0000 1.0000
52.2300 1640.0000 1.0000
52.2400 1780.0000 1.0000
52.2500 1915.0000 1.0000
52.2600 1994.0000 1.0000
52.2700 2057.0000 1.0000
52.2800 2150.0000 1.0000
52.2900 2256.0000 1.0000
52.3000 2244.0000 1.0000
52.3100 2238.0000 1.0000
52.3200 2187.0000 1.0000
52.3300 2143.0000 1.0000
52.3400 2090.0000 1.0000
52.3500 1981.0000 1.0000
52.3600 1961.0000 1.0000
52.3700 1920.0000 1.0000
52.3800 1881.0000 1.0000
52.3900 1812.0000 1.0000
52.4000 1783.0000 1.0000
52.4100 1733.0000 1.0000
52.4200 1698.0000 1.0000
52.4300 1622.0000 1.0000
52.4400 1556.0000 1.0000
52.4500 1523.0000 1.0000
52.4600 1412.0000 1.0000
52.4700 1367.0000 1.0000
52.4800 1251.0000 1.0000
52.4900 1181.0000 1.0000
52.5000 1069.0000 1.0000
52.5100 1007.0000 1.0000
52.5200 949.0000 1.0000
52.5300 866.0000 1.0000
52.5400 812.0000 1.0000
52.5500 747.0000 1.0000
52.5600 721.0000 1.0000
52.5700 720.0000 1.0000
52.5800 644.0000 1.0000
52.5900 653.0000 1.0000
52.6000 610.0000 1.0000
52.6100 548.0000 1.0000
52.6200 508.0000 1.0000
52.6300 534.0000 1.0000
52.6400 484.0000 1.0000
52.6500 488.0000 1.0000
52.6600 497.0000 1.0000
52.6700 477.0000 1.0000
52.6800 436.0000 1.0000
52.6900 461.0000 1.0000
52.7000 433.0000 1.0000
52.7100 426.0000 1.0000
52.7200 418.0000 1.0000
52.7300 381.0000 1.0000
52.7400 388.0000 1.0000
52.7500 401.0000 1.0000
52.7600 361.0000 1.0000
52.7700 357.0000 1.0000
52.7800 366.0000 1.0000
52.7900 388.0000 1.0000
52.8000 369.0000 1.0000
52.8100 368.0000 1.0000
52.8200 340.0000 1.0000
52.8300 325.0000 1.0000
52.8400 360.0000 1.0000
52.8500 372.0000 1.0000
52.8600 351.0000 1.0000
52.8700 355.0000 1.0000
52.8800 344.0000 1.0000
52.8900 350.0000 1.0000
52.9000 340.0000 1.0000
52.9100 352.0000 1.0000
52.9200 306.0000 1.0000
52.9300 334.0000 1.0000
52.9400 325.0000 1.0000
52.9500 330.0000 1.0000
52.9600 334.0000 1.0000
52.9700 332.0000 1.0000
52.9800 342.0000 1.0000
52.9900 340.0000 1.0000
53.0000 308.0000 1.0000
53.0100 299.0000 1.0000
53.0200 302.0000 1.0000
53.0300 342.0000 1.0000
53.0400 313.0000 1.0000
53.0500 303.0000 1.0000
53.0600 343.0000 1.0000
53.0700 301.0000 1.0000
53.0800 315.0000 1.0000
53.0900 324.0000 1.0000
53.1000 287.0000 1.0000
53.1100 282.0000 1.0000
53.1200 330.0000 1.0000
53.1300 320.0000 1.0000
53.1400 327.0000 1.0000
53.1500 330.0000 1.0000
53.1600 315.0000 1.0000
53.1700 333.0000 1.0000
53.1800 338.0000 1.0000
53.1900 312.0000 1.0000
53.2000 288.0000 1.0000
53.2100 313.0000 1.0000
53.2200 331.0000 1.0000
53.2300 313.0000 1.0000
53.2400 294.0000 1.0000
53.2500 303.0000 1.0000
53.2600 322.0000 1.0000
53.2700 296.0000 1.0000
53.2800 304.0000 1.0000
53.2900 340.0000 1.0000
53.3000 311.0000 1.0000
53.3100 298.0000 1.0000
53.3200 314.0000 1.0000
53.3300 317.0000 1.0000
53.3400 304.0000 1.0000
53.3500 282.0000 1.0000
53.3600 305.0000 1.0000
53.3700 309.0000 1.0000
53.3800 296.0000 1.0000
53.3900 303.0000 1.0000
53.4000 281.0000 1.0000
53.4100 316.0000 1.0000
53.4200 298.0000 1.0000
53.4300 304.0000 1.0000
53.4400 307.0000 1.0000
53.4500 311.0000 1.0000
53.4600 277.0000 1.0000
53.4700 296.0000 1.0000
53.4800 305.0000 1.0000
53.4900 326.0000 1.0000
53.5000 307.0000 1.0000
53.5100 302.0000 1.0000
53.5200 304.0000 1.0000
53.5300 277.0000 1.0000
53.5400 301.0000 1.0000
53.5500 308.0000 1.0000
53.5600 305.0000 1.0000
53.5700 306.0000 1.0000
53.5800 276.0000 1.0000
53.5900 269.0000 1.0000
53.6000 314.0000 1.0000
53.6100 328.0000 1.0000
53.6200 296.0000 1.0000
53.6300 297.0000 1.0000
53.6400 307.0000 1.0000
53.6500 302.0000 1.0000
53.6600 295.0000 1.0000
53.6700 304.0000 1.0000
53.6800 273.0000 1.0000
53.6900 286.0000 1.0000
53.7000 282.0000 1.0000
53.7100 278.0000 1.0000
53.7200 304.0000 1.0000
53.7300 305.0000 1.0000
53.7400 317.0000 1.0000
53.7500 309.0000 1.0000
53.7600 285.0000 1.0000
53.7700 276.0000 1.0000
53.7800 289.0000 1.0000
53.7900 318.0000 1.0000
53.8000 342.0000 1.0000
53.8100 277.0000 1.0000
53.8200 294.0000 1.0000
53.8300 273.0000 1.0000
53.8400 312.0000 1.0000
53.8500 294.0000 1.0000
53.8600 287.0000 1.0000
53.8700 278.0000 1.0000
53.8800 303.0000 1.0000
53.8900 289.0000 1.0000
53.9000 307.0000 1.0000
53.9100 295.0000 1.0000
53.9200 308.0000 1.0000
53.9300 302.0000 1.0000
53.9400 323.0000 1.0000
53.9500 299.0000 1.0000
53.9600 312.0000 1.0000
53.9700 283.0000 1.0000
53.9800 283.0000 1.0000
53.9900 290.0000 1.0000
54.0000 319.0000 1.0000
54.0100 306.0000 1.0000
54.0200 282.0000 1.0000
54.0300 296.0000 1.0000
54.0400 275.0000 1.0000
54.0500 287.0000 1.0000
54.0600 311.0000 1.0000
54.0700 308.0000 1.0000
54.0800 309.0000 1.0000
54.0900 315.0000 1.0000
54.1000 311.0000 1.0000
54.1100 315.0000 1.0000
54.1200 321.0000 1.0000
54.1300 311.0000 1.0000
54.1400 294.0000 1.0000
54.1500 301.0000 1.0000
54.1600 292.0000 1.0000
54.1700 290.0000 1.0000
54.1800 263.0000 1.0000
54.1900 318.0000 1.0000
54.2000 308.0000 1.0000
54.2100 293.0000 1.0000
54.2200 297.0000 1.0000
54.2300 305.0000 1.0000
54.2400 313.0000 1.0000
54.2500 287.0000 1.0000
54.2600 286.0000 1.0000
54.2700 301.0000 1.0000
54.2800 280.0000 1.0000
54.2900 285.0000 1.0000
54.3000 282.0000 1.0000
54.3100 303.0000 1.0000
54.3200 288.0000 1.0000
54.3300 297.0000 1.0000
54.3400 271.0000 1.0000
54.3500 307.0000 1.0000
54.3600 292.0000 1.0000
54.3700 289.0000 1.0000
54.3800 280.0000 1.0000
54.3900 294.0000 1.0000
54.4000 299.0000 1.0000
54.4100 278.0000 1.0000
54.4200 277.0000 1.0000
54.4300 287.0000 1.0000
54.4400 303.0000 1.0000
54.4500 312.0000 1.0000
54.4600 328.0000 1.0000
54.4700 287.0000 1.0000
54.4800 293.0000 1.0000
54.4900 283.0000 1.0000
54.5000 281.0000 1.0000
54.5100 300.0000 1.0000
54.5200 307.0000 1.0000
54.5300 271.0000 1.0000
54.5400 288.0000 1.0000
54.5500 287.0000 1.0000
54.5600 270.0000 1.0000
54.5700 296.0000 1.0000
54.5800 320.0000 1.0000
54.5900 301.0000 1.0000
54.6000 332.0000 1.0000
54.6100 314.0000 1.0000
54.6200 285.0000 1.0000
54.6300 293.0000 1.0000
54.6400 315.0000 1.0000
54.6500 303.0000 1.0000
54.6600 301.0000 1.0000
54.6700 303.0000 1.0000
54.6800 347.0000 1.0000
54.6900 309.0000 1.0000
54.7000 318.0000 1.0000
54.7100 323.0000 1.0000
54.7200 302.0000 1.0000
54.7300 322.0000 1.0000
54.7400 300.0000 1.0000
54.7500 320.0000 1.0000
54.7600 314.0000 1.0000
54.7700 298.0000 1.0000
54.7800 338.0000 1.0000
54.7900 324.0000 1.0000
54.8000 310.0000 1.0000
54.8100 327.0000 1.0000
54.8200 317.0000 1.0000
54.8300 315.0000 1.0000
54.8400 312.0000 1.0000
54.8500 312.0000 1.0000
54.8600 321.0000 1.0000
54.8700 308.0000 1.0000
54.8800 296.0000 1.0000
54.8900 302.0000 1.0000
54.9000 305.0000 1.0000
54.9100 308.0000 1.0000
54.9200 320.0000 1.0000
54.9300 322.0000 1.0000
54.9400 335.0000 1.0000
54.9500 318.0000 1.0000
54.9600 298.0000 1.0000
54.9700 336.0000 1.0000
54.9800 307.0000 1.0000
54.9900 305.0000 1.0000
55.0000 310.0000 1.0000
55.0100 329.0000 1.0000
55.0200 349.0000 1.0000
55.0300 337.0000 1.0000
55.0400 332.0000 1.0000
55.0500 321.0000 1.0000
55.0600 338.0000 1.0000
55.0700 341.0000 1.0000
55.0800 330.0000 1.0000
55.0900 374.0000 1.0000
55.1000 337.0000 1.0000
55.1100 346.0000 1.0000
55.1200 363.0000 1.0000
55.1300 316.0000 1.0000
55.1400 369.0000 1.0000
55.1500 375.0000 1.0000
55.1600 369.0000 1.0000
55.1700 342.0000 1.0000
55.1800 363.0000 1.0000
55.1900 354.0000 1.0000
55.2000 373.0000 1.0000
55.2100 385.0000 1.0000
55.2200 374.0000 1.0000
55.2300 388.0000 1.0000
55.2400 411.0000 1.0000
55.2500 415.0000 1.0000
55.2600 437.0000 1.0000
55.2700 437.0000 1.0000
55.2800 455.0000 1.0000
55.2900 444.0000 1.0000
55.3000 417.0000 1.0000
55.3100 425.0000 1.0000
55.3200 455.0000 1.0000
55.3300 459.0000 1.0000
55.3400 483.0000 1.0000
55.3500 467.0000 1.0000
55.3600 417.0000 1.0000
55.3700 461.0000 1.0000
55.3800 443.0000 1.0000
55.3900 446.0000 1.0000
55.4000 409.0000 1.0000
55.4100 420.0000 1.0000
55.4200 411.0000 1.0000
55.4300 427.0000 1.0000
55.4400 403.0000 1.0000
55.4500 388.0000 1.0000
55.4600 397.0000 1.0000
55.4700 410.0000 1.0000
55.4800 378.0000 1.0000
55.4900 384.0000 1.0000
55.5000 376.0000 1.0000
55.5100 388.0000 1.0000
55.5200 373.0000 1.0000
55.5300 377.0000 1.0000
55.5400 348.0000 1.0000
55.5500 365.0000 1.0000
55.5600 375.0000 1.0000
55.5700 335.0000 1.0000
55.5800 324.0000 1.0000
55.5900 358.0000 1.0000
55.6000 334.0000 1.0000
55.6100 346.0000 1.0000
55.6200 332.0000 1.0000
55.6300 350.0000 1.0000
55.6400 321.0000 1.0000
55.6500 312.0000 1.0000
55.6600 319.0000 1.0000
55.6700 311.0000 1.0000
55.6800 315.0000 1.0000
55.6900 319.0000 1.0000
55.7000 327.0000 1.0000
55.7100 356.0000 1.0000
55.7200 311.0000 1.0000
55.7300 301.0000 1.0000
55.7400 337.0000 1.0000
55.7500 297.0000 1.0000
55.7600 312.0000 1.0000
55.7700 306.0000 1.0000
55.7800 327.0000 1.0000
55.7900 309.0000 1.0000
55.8000 290.0000 1.0000
55.8100 318.0000 1.0000
55.8200 306.0000 1.0000
55.8300 284.0000 1.0000
55.8400 301.0000 1.0000
55.8500 309.0000 1.0000
55.8600 297.0000 1.0000
55.8700 294.0000 1.0000
55.8800 303.0000 1.0000
55.8900 300.0000 1.0000
55.9000 274.0000 1.0000
55.9100 294.0000 1.0000
55.9200 296.0000 1.0000
55.9300 290.0000 1.0000
55.9400 308.0000 1.0000
55.9500 265.0000 1.0000
55.9600 327.0000 1.0000
55.9700 322.0000 1.0000
55.9800 295.0000 1.0000
55.9900 275.0000 1.0000
56.0000 293.0000 1.0000
56.0100 297.0000 1.0000
56.0200 276.0000 1.0000
56.0300 293.0000 1.0000
56.0400 284.0000 1.0000
56.0500 287.0000 1.0000
56.0600 288.0000 1.0000
56.0700 320.0000 1.0000
56.0800 272.0000 1.0000
56.0900 304.0000 1.0000
56.1000 295.0000 1.0000
56.1100 293.0000 1.0000
56.1200 281.0000 1.0000
56.1300 270.0000 1.0000
56.1400 310.0000 1.0000
56.1500 270.0000 1.0000
56.1600 264.0000 1.0000
56.1700 290.0000 1.0000
56.1800 295.0000 1.0000
56.1900 290.0000 1.0000
56.2000 284.0000 1.0000
56.2100 291.0000 1.0000
56.2200 274.0000 1.0000
56.2300 290.0000 1.0000
56.2400 313.0000 1.0000
56.2500 299.0000 1.0000
56.2600 287.0000 1.0000
56.2700 286.0000 1.0000
56.2800 306.0000 1.0000
56.2900 290.0000 1.0000
56.3000 277.0000 1.0000
56.3100 278.0000 1.0000
56.3200 275.0000 1.0000
56.3300 271.0000 1.0000
56.3400 256.0000 1.0000
56.3500 293.0000 1.0000
56.3600 283.0000 1.0000
56.3700 292.0000 1.0000
56.3800 298.0000 1.0000
56.3900 297.0000 1.0000
56.4000 264.0000 1.0000
56.4100 287.0000 1.0000
56.4200 277.0000 1.0000
56.4300 280.0000 1.0000
56.4400 266.0000 1.0000
56.4500 266.0000 1.0000
56.4600 250.0000 1.0000
56.4700 266.0000 1.0000
56.4800 283.0000 1.0000
56.4900 282.0000 1.0000
56.5000 283.0000 1.0000
56.5100 275.0000 1.0000
56.5200 291.0000 1.0000
56.5300 299.0000 1.0000
56.5400 290.0000 1.0000
56.5500 284.0000 1.0000
56.5600 272.0000 1.0000
56.5700 290.0000 1.0000
56.5800 276.0000 1.0000
56.5900 293.0000 1.0000
56.6000 278.0000 1.0000
56.6100 293.0000 1.0000
56.6200 275.0000 1.0000
56.6300 292.0000 1.0000
56.6400 250.0000 1.0000
56.6500 273.0000 1.0000
56.6600 263.0000 1.0000
56.6700 276.0000 1.0000
56.6800 294.0000 1.0000
56.6900 258.0000 1.0000
56.7000 270.0000 1.0000
56.7100 285.0000 1.0000
56.7200 288.0000 1.0000
56.7300 320.0000 1.0000
56.7400 272.0000 1.0000
56.7500 282.0000 1.0000
56.7600 240.0000 1.0000
56.7700 268.0000 1.0000
56.7800 280.0000 1.0000
56.7900 257.0000 1.0000
56.8000 275.0000 1.0000
56.8100 288.0000 1.0000
56.8200 314.0000 1.0000
56.8300 285.0000 1.0000
56.8400 285.0000 1.0000
56.8500 288.0000 1.0000
56.8600 309.0000 1.0000
56.8700 290.0000 1.0000
56.8800 289.0000 1.0000
56.8900 280.0000 1.0000
56.9000 293.0000 1.0000
56.9100 293.0000 1.0000
56.9200 286.0000 1.0000
56.9300 312.0000 1.0000
56.9400 322.0000 1.0000
56.9500 286.0000 1.0000
56.9600 272.0000 1.0000
56.9700 293.0000 1.0000
56.9800 310.0000 1.0000
56.9900 283.0000 1.0000
57.0000 293.0000 1.0000
57.0100 279.0000 1.0000
57.0200 297.0000 1.0000
57.0300 298.0000 1.0000
57.0400 298.0000 1.0000
57.0500 292.0000 1.0000
57.0600 296.0000 1.0000
57.0700 265.0000 1.0000
57.0800 273.0000 1.0000
57.0900 287.0000 1.0000
57.1000 297.0000 1.0000
57.1100 292.0000 1.0000
57.1200 277.0000 1.0000
57.1300 291.0000 1.0000
57.1400 290.0000 1.0000
57.1500 266.0000 1.0000
57.1600 266.0000 1.0000
57.1700 273.0000 1.0000
57.1800 288.0000 1.0000
57.1900 280.0000 1.0000
57.2000 280.0000 1.0000
57.2100 245.0000 1.0000
57.2200 260.0000 1.0000
57.2300 268.0000 1.0000
57.2400 274.0000 1.0000
57.2500 307.0000 1.0000
57.2600 281.0000 1.0000
57.2700 302.0000 1.0000
57.2800 278.0000 1.0000
57.2900 284.0000 1.0000
57.3000 311.0000 1.0000
57.3100 281.0000 1.0000
57.3200 290.0000 1.0000
57.3300 288.0000 1.0000
57.3400 273.0000 1.0000
57.3500 302.0000 1.0000
57.3600 281.0000 1.0000
57.3700 319.0000 1.0000
57.3800 298.0000 1.0000
57.3900 288.0000 1.0000
57.4000 280.0000 1.0000
57.4100 289.0000 1.0000
57.4200 280.0000 1.0000
57.4300 283.0000 1.0000
57.4400 271.0000 1.0000
57.4500 261.0000 1.0000
57.4600 297.0000 1.0000
57.4700 259.0000 1.0000
57.4800 278.0000 1.0000
57.4900 265.0000 1.0000
57.5000 270.0000 1.0000
57.5100 276.0000 1.0000
57.5200 291.0000 1.0000
57.5300 290.0000 1.0000
57.5400 271.0000 1.0000
57.5500 282.0000 1.0000
57.5600 292.0000 1.0000
57.5700 288.0000 1.0000
57.5800 299.0000 1.0000
57.5900 279.0000 1.0000
57.6000 272.0000 1.0000
57.6100 275.0000 1.0000
57.6200 285.0000 1.0000
57.6300 307.0000 1.0000
57.6400 288.0000 1.0000
57.6500 300.0000 1.0000
57.6600 285.0000 1.0000
57.6700 295.0000 1.0000
57.6800 290.0000 1.0000
57.6900 317.0000 1.0000
57.7000 304.0000 1.0000
57.7100 286.0000 1.0000
57.7200 263.0000 1.0000
57.7300 292.0000 1.0000
57.7400 266.0000 1.0000
57.7500 288.0000 1.0000
57.7600 303.0000 1.0000
57.7700 270.0000 1.0000
57.7800 272.0000 1.0000
57.7900 245.0000 1.0000
57.8000 279.0000 1.0000
57.8100 290.0000 1.0000
57.8200 290.0000 1.0000
57.8300 276.0000 1.0000
57.8400 274.0000 1.0000
57.8500 285.0000 1.0000
57.8600 299.0000 1.0000
57.8700 295.0000 1.0000
57.8800 269.0000 1.0000
57.8900 279.0000 1.0000
57.9000 290.0000 1.0000
57.9100 261.0000 1.0000
57.9200 271.0000 1.0000
57.9300 298.0000 1.0000
57.9400 283.0000 1.0000
57.9500 290.0000 1.0000
57.9600 287.0000 1.0000
57.9700 275.0000 1.0000
57.9800 285.0000 1.0000
57.9900 264.0000 1.0000
58.0000 304.0000 1.0000
58.0100 283.0000 1.0000
58.0200 278.0000 1.0000
58.0300 294.0000 1.0000
58.0400 300.0000 1.0000
58.0500 290.0000 1.0000
58.0600 285.0000 1.0000
58.0700 279.0000 1.0000
58.0800 281.0000 1.0000
58.0900 260.0000 1.0000
58.1000 261.0000 1.0000
58.1100 309.0000 1.0000
58.1200 269.0000 1.0000
58.1300 283.0000 1.0000
58.1400 298.0000 1.0000
58.1500 313.0000 1.0000
58.1600 296.0000 1.0000
58.1700 326.0000 1.0000
58.1800 263.0000 1.0000
58.1900 245.0000 1.0000
58.2000 278.0000 1.0000
58.2100 285.0000 1.0000
58.2200 293.0000 1.0000
58.2300 298.0000 1.0000
58.2400 285.0000 1.0000
58.2500 270.0000 1.0000
58.2600 289.0000 1.0000
58.2700 280.0000 1.0000
58.2800 282.0000 1.0000
58.2900 302.0000 1.0000
58.3000 283.0000 1.0000
58.3100 330.0000 1.0000
58.3200 294.0000 1.0000
58.3300 291.0000 1.0000
58.3400 280.0000 1.0000
58.3500 296.0000 1.0000
58.3600 314.0000 1.0000
58.3700 292.0000 1.0000
58.3800 297.0000 1.0000
58.3900 279.0000 1.0000
58.4000 297.0000 1.0000
58.4100 290.0000 1.0000
58.4200 272.0000 1.0000
58.4300 283.0000 1.0000
58.4400 273.0000 1.0000
58.4500 292.0000 1.0000
58.4600 291.0000 1.0000
58.4700 302.0000 1.0000
58.4800 258.0000 1.0000
58.4900 261.0000 1.0000
58.5000 291.0000 1.0000
58.5100 288.0000 1.0000
58.5200 286.0000 1.0000
58.5300 309.0000 1.0000
58.5400 293.0000 1.0000
58.5500 274.0000 1.0000
58.5600 313.0000 1.0000
58.5700 319.0000 1.0000
58.5800 304.0000 1.0000
58.5900 256.0000 1.0000
58.6000 289.0000 1.0000
58.6100 279.0000 1.0000
58.6200 264.0000 1.0000
58.6300 280.0000 1.0000
58.6400 297.0000 1.0000
58.6500 272.0000 1.0000
58.6600 286.0000 1.0000
58.6700 274.0000 1.0000
58.6800 301.0000 1.0000
58.6900 291.0000 1.0000
58.7000 280.0000 1.0000
58.7100 302.0000 1.0000
58.7200 260.0000 1.0000
58.7300 291.0000 1.0000
58.7400 287.0000 1.0000
58.7500 294.0000 1.0000
58.7600 267.0000 1.0000
58.7700 265.0000 1.0000
58.7800 275.0000 1.0000
58.7900 283.0000 1.0000
58.8000 292.0000 1.0000
58.8100 259.0000 1.0000
58.8200 275.0000 1.0000
58.8300 260.0000 1.0000
58.8400 282.0000 1.0000
58.8500 284.0000 1.0000
58.8600 301.0000 1.0000
58.8700 301.0000 1.0000
58.8800 285.0000 1.0000
58.8900 296.0000 1.0000
58.9000 267.0000 1.0000
58.9100 267.0000 1.0000
58.9200 290.0000 1.0000
58.9300 311.0000 1.0000
58.9400 316.0000 1.0000
58.9500 290.0000 1.0000
58.9600 278.0000 1.0000
58.9700 264.0000 1.0000
58.9800 275.0000 1.0000
58.9900 300.0000 1.0000
59.0000 273.0000 1.0000
59.0100 286.0000 1.0000
59.0200 272.0000 1.0000
59.0300 262.0000 1.0000
59.0400 277.0000 1.0000
59.0500 295.0000 1.0000
59.0600 277.0000 1.0000
59.0700 281.0000 1.0000
59.0800 277.0000 1.0000
59.0900 286.0000 1.0000
59.1000 294.0000 1.0000
59.1100 303.0000 1.0000
59.1200 299.0000 1.0000
59.1300 295.0000 1.0000
59.1400 317.0000 1.0000
59.1500 287.0000 1.0000
59.1600 302.0000 1.0000
59.1700 287.0000 1.0000
59.1800 302.0000 1.0000
59.1900 310.0000 1.0000
59.2000 264.0000 1.0000
59.2100 297.0000 1.0000
59.2200 295.0000 1.0000
59.2300 285.0000 1.0000
59.2400 266.0000 1.0000
59.2500 288.0000 1.0000
59.2600 267.0000 1.0000
59.2700 312.0000 1.0000
59.2800 285.0000 1.0000
59.2900 288.0000 1.0000
59.3000 275.0000 1.0000
59.3100 314.0000 1.0000
59.3200 297.0000 1.0000
59.3300 283.0000 1.0000
59.3400 313.0000 1.0000
59.3500 274.0000 1.0000
59.3600 258.0000 1.0000
59.3700 314.0000 1.0000
59.3800 291.0000 1.0000
59.3900 280.0000 1.0000
59.4000 287.0000 1.0000
59.4100 299.0000 1.0000
59.4200 296.0000 1.0000
59.4300 285.0000 1.0000
59.4400 282.0000 1.0000
59.4500 282.0000 1.0000
59.4600 295.0000 1.0000
59.4700 312.0000 1.0000
59.4800 290.0000 1.0000
59.4900 288.0000 1.0000
59.5000 285.0000 1.0000
59.5100 269.0000 1.0000
59.5200 275.0000 1.0000
59.5300 269.0000 1.0000
59.5400 291.0000 1.0000
59.5500 262.0000 1.0000
59.5600 291.0000 1.0000
59.5700 272.0000 1.0000
59.5800 286.0000 1.0000
59.5900 276.0000 1.0000
59.6000 262.0000 1.0000
59.6100 292.0000 1.0000
59.6200 254.0000 1.0000
59.6300 278.0000 1.0000
59.6400 282.0000 1.0000
59.6500 288.0000 1.0000
59.6600 298.0000 1.0000
59.6700 286.0000 1.0000
59.6800 264.0000 1.0000
59.6900 273.0000 1.0000
59.7000 279.0000 1.0000
59.7100 283.0000 1.0000
59.7200 283.0000 1.0000
59.7300 295.0000 1.0000
59.7400 282.0000 1.0000
59.7500 277.0000 1.0000
59.7600 279.0000 1.0000
59.7700 267.0000 1.0000
59.7800 291.0000 1.0000
59.7900 272.0000 1.0000
59.8000 298.0000 1.0000
59.8100 267.0000 1.0000
59.8200 276.0000 1.0000
59.8300 295.0000 1.0000
59.8400 271.0000 1.0000
59.8500 275.0000 1.0000
59.8600 279.0000 1.0000
59.8700 277.0000 1.0000
59.8800 274.0000 1.0000
59.8900 300.0000 1.0000
59.9000 306.0000 1.0000
59.9100 308.0000 1.0000
59.9200 293.0000 1.0000
59.9300 268.0000 1.0000
59.9400 282.0000 1.0000
59.9500 274.0000 1.0000
59.9600 254.0000 1.0000
59.9700 262.0000 1.0000
59.9800 288.0000 1.0000
59.9900 289.0000 1.0000
60.0000 290.0000 1.0000
60.0100 271.0000 1.0000
60.0200 299.0000 1.0000
60.0300 264.0000 1.0000
60.0400 249.0000 1.0000
60.0500 280.0000 1.0000
60.0600 270.0000 1.0000
60.0700 292.0000 1.0000
60.0800 286.0000 1.0000
60.0900 259.0000 1.0000
60.1000 299.0000 1.0000
60.1100 300.0000 1.0000
60.1200 291.0000 1.0000
60.1300 284.0000 1.0000
60.1400 285.0000 1.0000
60.1500 293.0000 1.0000
60.1600 306.0000 1.0000
60.1700 279.0000 1.0000
60.1800 268.0000 1.0000
60.1900 300.0000 1.0000
60.2000 291.0000 1.0000
60.2100 276.0000 1.0000
60.2200 275.0000 1.0000
60.2300 297.0000 1.0000
60.2400 284.0000 1.0000
60.2500 266.0000 1.0000
60.2600 300.0000 1.0000
60.2700 292.0000 1.0000
60.2800 290.0000 1.0000
60.2900 312.0000 1.0000
60.3000 290.0000 1.0000
60.3100 284.0000 1.0000
60.3200 292.0000 1.0000
60.3300 265.0000 1.0000
60.3400 272.0000 1.0000
60.3500 270.0000 1.0000
60.3600 272.0000 1.0000
60.3700 261.0000 1.0000
60.3800 285.0000 1.0000
60.3900 288.0000 1.0000
60.4000 278.0000 1.0000
60.4100 286.0000 1.0000
60.4200 289.0000 1.0000
60.4300 286.0000 1.0000
60.4400 266.0000 1.0000
60.4500 293.0000 1.0000
60.4600 276.0000 1.0000
60.4700 302.0000 1.0000
60.4800 297.0000 1.0000
60.4900 303.0000 1.0000
60.5000 299.0000 1.0000
60.5100 276.0000 1.0000
60.5200 291.0000 1.0000
60.5300 288.0000 1.0000
60.5400 276.0000 1.0000
60.5500 271.0000 1.0000
60.5600 286.0000 1.0000
60.5700 297.0000 1.0000
60.5800 279.0000 1.0000
60.5900 262.0000 1.0000
60.6000 279.0000 1.0000
60.6100 277.0000 1.0000
60.6200 287.0000 1.0000
60.6300 275.0000 1.0000
60.6400 263.0000 1.0000
60.6500 278.0000 1.0000
60.6600 301.0000 1.0000
60.6700 287.0000 1.0000
60.6800 290.0000 1.0000
60.6900 265.0000 1.0000
60.7000 255.0000 1.0000
60.7100 307.0000 1.0000
60.7200 303.0000 1.0000
60.7300 289.0000 1.0000
60.7400 270.0000 1.0000
60.7500 294.0000 1.0000
60.7600 310.0000 1.0000
60.7700 301.0000 1.0000
60.7800 270.0000 1.0000
60.7900 280.0000 1.0000
60.8000 290.0000 1.0000
60.8100 289.0000 1.0000
60.8200 272.0000 1.0000
60.8300 274.0000 1.0000
60.8400 284.0000 1.0000
60.8500 262.0000 1.0000
60.8600 271.0000 1.0000
60.8700 265.0000 1.0000
60.8800 312.0000 1.0000
60.8900 308.0000 1.0000
60.9000 282.0000 1.0000
60.9100 295.0000 1.0000
60.9200 259.0000 1.0000
60.9300 258.0000 1.0000
60.9400 291.0000 1.0000
60.9500 290.0000 1.0000
60.9600 274.0000 1.0000
60.9700 275.0000 1.0000
60.9800 272.0000 1.0000
60.9900 298.0000 1.0000
61.0000 277.0000 1.0000
61.0100 272.0000 1.0000
61.0200 285.0000 1.0000
61.0300 261.0000 1.0000
61.0400 286.0000 1.0000
61.0500 318.0000 1.0000
61.0600 269.0000 1.0000
61.0700 269.0000 1.0000
61.0800 300.0000 1.0000
61.0900 307.0000 1.0000
61.1000 287.0000 1.0000
61.1100 276.0000 1.0000
61.1200 277.0000 1.0000
61.1300 276.0000 1.0000
61.1400 288.0000 1.0000
61.1500 277.0000 1.0000
61.1600 278.0000 1.0000
61.1700 280.0000 1.0000
61.1800 266.0000 1.0000
61.1900 283.0000 1.0000
61.2000 271.0000 1.0000
61.2100 279.0000 1.0000
61.2200 294.0000 1.0000
61.2300 297.0000 1.0000
61.2400 306.0000 1.0000
61.2500 286.0000 1.0000
61.2600 308.0000 1.0000
61.2700 309.0000 1.0000
61.2800 275.0000 1.0000
61.2900 284.0000 1.0000
61.3000 262.0000 1.0000
61.3100 247.0000 1.0000
61.3200 293.0000 1.0000
61.3300 291.0000 1.0000
61.3400 296.0000 1.0000
61.3500 286.0000 1.0000
61.3600 292.0000 1.0000
61.3700 285.0000 1.0000
61.3800 290.0000 1.0000
61.3900 275.0000 1.0000
61.4000 279.0000 1.0000
61.4100 288.0000 1.0000
61.4200 286.0000 1.0000
61.4300 292.0000 1.0000
61.4400 304.0000 1.0000
61.4500 284.0000 1.0000
61.4600 269.0000 1.0000
61.4700 282.0000 1.0000
61.4800 290.0000 1.0000
61.4900 288.0000 1.0000
61.5000 299.0000 1.0000
61.5100 263.0000 1.0000
61.5200 272.0000 1.0000
61.5300 264.0000 1.0000
61.5400 282.0000 1.0000
61.5500 305.0000 1.0000
61.5600 283.0000 1.0000
61.5700 280.0000 1.0000
61.5800 274.0000 1.0000
61.5900 263.0000 1.0000
61.6000 275.0000 1.0000
61.6100 278.0000 1.0000
61.6200 313.0000 1.0000
61.6300 338.0000 1.0000
61.6400 315.0000 1.0000
61.6500 296.0000 1.0000
61.6600 279.0000 1.0000
61.6700 300.0000 1.0000
61.6800 297.0000 1.0000
61.6900 309.0000 1.0000
61.7000 290.0000 1.0000
61.7100 286.0000 1.0000
61.7200 296.0000 1.0000
61.7300 297.0000 1.0000
61.7400 302.0000 1.0000
61.7500 320.0000 1.0000
61.7600 313.0000 1.0000
61.7700 301.0000 1.0000
61.7800 289.0000 1.0000
61.7900 295.0000 1.0000
61.8000 307.0000 1.0000
61.8100 321.0000 1.0000
61.8200 329.0000 1.0000
61.8300 302.0000 1.0000
61.8400 301.0000 1.0000
61.8500 310.0000 1.0000
61.8600 305.0000 1.0000
61.8700 323.0000 1.0000
61.8800 303.0000 1.0000
61.8900 314.0000 1.0000
61.9000 322.0000 1.0000
61.9100 309.0000 1.0000
61.9200 315.0000 1.0000
61.9300 307.0000 1.0000
61.9400 362.0000 1.0000
61.9500 322.0000 1.0000
61.9600 338.0000 1.0000
61.9700 314.0000 1.0000
61.9800 328.0000 1.0000
61.9900 362.0000 1.0000
62.0000 330.0000 1.0000
62.0100 351.0000 1.0000
62.0200 367.0000 1.0000
62.0300 353.0000 1.0000
62.0400 358.0000 1.0000
62.0500 343.0000 1.0000
62.0600 379.0000 1.0000
62.0700 379.0000 1.0000
62.0800 369.0000 1.0000
62.0900 382.0000 1.0000
62.1000 450.0000 1.0000
62.1100 449.0000 1.0000
62.1200 452.0000 1.0000
62.1300 412.0000 1.0000
62.1400 441.0000 1.0000
62.1500 469.0000 1.0000
62.1600 432.0000 1.0000
62.1700 474.0000 1.0000
62.1800 482.0000 1.0000
62.1900 525.0000 1.0000
62.2000 550.0000 1.0000
62.2100 546.0000 1.0000
62.2200 562.0000 1.0000
62.2300 555.0000 1.0000
62.2400 568.0000 1.0000
62.2500 558.0000 1.0000
62.2600 637.0000 1.0000
62.2700 590.0000 1.0000
62.2800 625.0000 1.0000
62.2900 599.0000 1.0000
62.3000 610.0000 1.0000
62.3100 590.0000 1.0000
62.3200 611.0000 1.0000
62.3300 648.0000 1.0000
62.3400 614.0000 1.0000
62.3500 606.0000 1.0000
62.3600 606.0000 1.0000
62.3700 620.0000 1.0000
62.3800 577.0000 1.0000
62.3900 595.0000 1.0000
62.4000 645.0000 1.0000
62.4100 642.0000 1.0000
62.4200 591.0000 1.0000
62.4300 584.0000 1.0000
62.4400 571.0000 1.0000
62.4500 592.0000 1.0000
62.4600 535.0000 1.0000
62.4700 528.0000 1.0000
62.4800 565.0000 1.0000
62.4900 512.0000 1.0000
62.5000 490.0000 1.0000
62.5100 529.0000 1.0000
62.5200 473.0000 1.0000
62.5300 500.0000 1.0000
62.5400 500.0000 1.0000
62.5500 458.0000 1.0000
62.5600 474.0000 1.0000
62.5700 492.0000 1.0000
62.5800 478.0000 1.0000
62.5900 414.0000 1.0000
62.6000 446.0000 1.0000
62.6100 428.0000 1.0000
62.6200 431.0000 1.0000
62.6300 406.0000 1.0000
62.6400 386.0000 1.0000
62.6500 401.0000 1.0000
62.6600 415.0000 1.0000
62.6700 368.0000 1.0000
62.6800 392.0000 1.0000
62.6900 379.0000 1.0000
62.7000 396.0000 1.0000
62.7100 354.0000 1.0000
62.7200 380.0000 1.0000
62.7300 365.0000 1.0000
62.7400 349.0000 1.0000
62.7500 362.0000 1.0000
62.7600 341.0000 1.0000
62.7700 343.0000 1.0000
62.7800 339.0000 1.0000
62.7900 340.0000 1.0000
62.8000 337.0000 1.0000
62.8100 338.0000 1.0000
62.8200 348.0000 1.0000
62.8300 308.0000 1.0000
62.8400 328.0000 1.0000
62.8500 347.0000 1.0000
62.8600 333.0000 1.0000
62.8700 334.0000 1.0000
62.8800 332.0000 1.0000
62.8900 314.0000 1.0000
62.9000 312.0000 1.0000
62.9100 339.0000 1.0000
62.9200 318.0000 1.0000
62.9300 308.0000 1.0000
62.9400 309.0000 1.0000
62.9500 304.0000 1.0000
62.9600 295.0000 1.0000
62.9700 296.0000 1.0000
62.9800 284.0000 1.0000
62.9900 285.0000 1.0000
63.0000 323.0000 1.0000
63.0100 307.0000 1.0000
63.0200 323.0000 1.0000
63.0300 363.0000 1.0000
63.0400 346.0000 1.0000
63.0500 300.0000 1.0000
63.0600 341.0000 1.0000
63.0700 281.0000 1.0000
63.0800 316.0000 1.0000
63.0900 291.0000 1.0000
63.1000 283.0000 1.0000
63.1100 314.0000 1.0000
63.1200 288.0000 1.0000
63.1300 286.0000 1.0000
63.1400 297.0000 1.0000
63.1500 271.0000 1.0000
63.1600 286.0000 1.0000
63.1700 326.0000 1.0000
63.1800 325.0000 1.0000
63.1900 296.0000 1.0000
63.2000 294.0000 1.0000
63.2100 304.0000 1.0000
63.2200 320.0000 1.0000
63.2300 314.0000 1.0000
63.2400 317.0000 1.0000
63.2500 310.0000 1.0000
63.2600 297.0000 1.0000
63.2700 293.0000 1.0000
63.2800 308.0000 1.0000
63.2900 288.0000 1.0000
63.3000 299.0000 1.0000
63.3100 322.0000 1.0000
63.3200 297.0000 1.0000
63.3300 300.0000 1.0000
63.3400 328.0000 1.0000
63.3500 307.0000 1.0000
63.3600 321.0000 1.0000
63.3700 294.0000 1.0000
63.3800 296.0000 1.0000
63.3900 290.0000 1.0000
63.4000 302.0000 1.0000
63.4100 310.0000 1.0000
63.4200 284.0000 1.0000
63.4300 290.0000 1.0000
63.4400 290.0000 1.0000
63.4500 270.0000 1.0000
63.4600 304.0000 1.0000
63.4700 284.0000 1.0000
63.4800 282.0000 1.0000
63.4900 256.0000 1.0000
63.5000 265.0000 1.0000
63.5100 292.0000 1.0000
63.5200 288.0000 1.0000
63.5300 266.0000 1.0000
63.5400 299.0000 1.0000
63.5500 279.0000 1.0000
63.5600 271.0000 1.0000
63.5700 292.0000 1.0000
63.5800 290.0000 1.0000
63.5900 291.0000 1.0000
63.6000 290.0000 1.0000
63.6100 257.0000 1.0000
63.6200 297.0000 1.0000
63.6300 276.0000 1.0000
63.6400 284.0000 1.0000
63.6500 281.0000 1.0000
63.6600 267.0000 1.0000
63.6700 284.0000 1.0000
63.6800 289.0000 1.0000
63.6900 287.0000 1.0000
63.7000 290.0000 1.0000
63.7100 266.0000 1.0000
63.7200 275.0000 1.0000
63.7300 281.0000 1.0000
63.7400 300.0000 1.0000
63.7500 306.0000 1.0000
63.7600 301.0000 1.0000
63.7700 266.0000 1.0000
63.7800 278.0000 1.0000
63.7900 300.0000 1.0000
63.8000 276.0000 1.0000
63.8100 288.0000 1.0000
63.8200 282.0000 1.0000
63.8300 261.0000 1.0000
63.8400 305.0000 1.0000
63.8500 274.0000 1.0000
63.8600 297.0000 1.0000
63.8700 305.0000 1.0000
63.8800 315.0000 1.0000
63.8900 330.0000 1.0000
63.9000 266.0000 1.0000
63.9100 284.0000 1.0000
63.9200 298.0000 1.0000
63.9300 311.0000 1.0000
63.9400 323.0000 1.0000
63.9500 270.0000 1.0000
63.9600 285.0000 1.0000
63.9700 301.0000 1.0000
63.9800 277.0000 1.0000
63.9900 262.0000 1.0000
64.0000 297.0000 1.0000
64.0100 289.0000 1.0000
64.0200 295.0000 1.0000
64.0300 269.0000 1.0000
64.0400 287.0000 1.0000
64.0500 280.0000 1.0000
64.0600 279.0000 1.0000
64.0700 264.0000 1.0000
64.0800 290.0000 1.0000
64.0900 289.0000 1.0000
64.1000 301.0000 1.0000
64.1100 277.0000 1.0000
64.1200 298.0000 1.0000
64.1300 283.0000 1.0000
64.1400 304.0000 1.0000
64.1500 308.0000 1.0000
64.1600 291.0000 1.0000
64.1700 319.0000 1.0000
64.1800 297.0000 1.0000
64.1900 290.0000 1.0000
64.2000 319.0000 1.0000
64.2100 303.0000 1.0000
64.2200 306.0000 1.0000
64.2300 304.0000 1.0000
64.2400 297.0000 1.0000
64.2500 307.0000 1.0000
64.2600 302.0000 1.0000
64.2700 296.0000 1.0000
64.2800 300.0000 1.0000
64.2900 284.0000 1.0000
64.3000 284.0000 1.0000
64.3100 297.0000 1.0000
64.3200 314.0000 1.0000
64.3300 292.0000 1.0000
64.3400 283.0000 1.0000
64.3500 303.0000 1.0000
64.3600 313.0000 1.0000
64.3700 287.0000 1.0000
64.3800 299.0000 1.0000
64.3900 312.0000 1.0000
64.4000 304.0000 1.0000
64.4100 301.0000 1.0000
64.4200 312.0000 1.0000
64.4300 291.0000 1.0000
64.4400 304.0000 1.0000
64.4500 282.0000 1.0000
64.4600 294.0000 1.0000
64.4700 315.0000 1.0000
64.4800 315.0000 1.0000
64.4900 309.0000 1.0000
64.5000 304.0000 1.0000
64.5100 312.0000 1.0000
64.5200 323.0000 1.0000
64.5300 315.0000 1.0000
64.5400 328.0000 1.0000
64.5500 337.0000 1.0000
64.5600 323.0000 1.0000
64.5700 304.0000 1.0000
64.5800 347.0000 1.0000
64.5900 331.0000 1.0000
64.6000 336.0000 1.0000
64.6100 361.0000 1.0000
64.6200 345.0000 1.0000
64.6300 321.0000 1.0000
64.6400 368.0000 1.0000
64.6500 359.0000 1.0000
64.6600 353.0000 1.0000
64.6700 395.0000 1.0000
64.6800 375.0000 1.0000
64.6900 381.0000 1.0000
64.7000 361.0000 1.0000
64.7100 386.0000 1.0000
64.7200 390.0000 1.0000
64.7300 380.0000 1.0000
64.7400 372.0000 1.0000
64.7500 399.0000 1.0000
64.7600 377.0000 1.0000
64.7700 373.0000 1.0000
64.7800 386.0000 1.0000
64.7900 388.0000 1.0000
64.8000 393.0000 1.0000
64.8100 353.0000 1.0000
64.8200 370.0000 1.0000
64.8300 379.0000 1.0000
64.8400 355.0000 1.0000
64.8500 363.0000 1.0000
64.8600 345.0000 1.0000
64.8700 360.0000 1.0000
64.8800 339.0000 1.0000
64.8900 359.0000 1.0000
64.9000 346.0000 1.0000
64.9100 325.0000 1.0000
64.9200 345.0000 1.0000
64.9300 349.0000 1.0000
64.9400 380.0000 1.0000
64.9500 354.0000 1.0000
64.9600 336.0000 1.0000
64.9700 366.0000 1.0000
64.9800 354.0000 1.0000
64.9900 347.0000 1.0000
65.0000 321.0000 1.0000
65.0100 325.0000 1.0000
65.0200 326.0000 1.0000
65.0300 335.0000 1.0000
65.0400 331.0000 1.0000
65.0500 368.0000 1.0000
65.0600 324.0000 1.0000
65.0700 328.0000 1.0000
65.0800 334.0000 1.0000
65.0900 330.0000 1.0000
65.1000 313.0000 1.0000
65.1100 287.0000 1.0000
65.1200 333.0000 1.0000
65.1300 308.0000 1.0000
65.1400 306.0000 1.0000
65.1500 322.0000 1.0000
65.1600 293.0000 1.0000
65.1700 292.0000 1.0000
65.1800 281.0000 1.0000
65.1900 330.0000 1.0000
65.2000 312.0000 1.0000
65.2100 315.0000 1.0000
65.2200 343.0000 1.0000
65.2300 326.0000 1.0000
65.2400 298.0000 1.0000
65.2500 301.0000 1.0000
65.2600 327.0000 1.0000
65.2700 306.0000 1.0000
65.2800 328.0000 1.0000
65.2900 315.0000 1.0000
65.3000 310.0000 1.0000
65.3100 320.0000 1.0000
65.3200 287.0000 1.0000
65.3300 296.0000 1.0000
65.3400 304.0000 1.0000
65.3500 308.0000 1.0000
65.3600 316.0000 1.0000
65.3700 300.0000 1.0000
65.3800 286.0000 1.0000
65.3900 285.0000 1.0000
65.4000 291.0000 1.0000
65.4100 279.0000 1.0000
65.4200 290.0000 1.0000
65.4300 298.0000 1.0000
65.4400 300.0000 1.0000
65.4500 284.0000 1.0000
65.4600 261.0000 1.0000
65.4700 325.0000 1.0000
65.4800 272.0000 1.0000
65.4900 301.0000 1.0000
65.5000 287.0000 1.0000
65.5100 305.0000 1.0000
65.5200 277.0000 1.0000
65.5300 295.0000 1.0000
65.5400 269.0000 1.0000
65.5500 285.0000 1.0000
65.5600 317.0000 1.0000
65.5700 287.0000 1.0000
65.5800 325.0000 1.0000
65.5900 314.0000 1.0000
65.6000 312.0000 1.0000
65.6100 314.0000 1.0000
65.6200 304.0000 1.0000
65.6300 321.0000 1.0000
65.6400 302.0000 1.0000
65.6500 280.0000 1.0000
65.6600 285.0000 1.0000
65.6700 303.0000 1.0000
65.6800 314.0000 1.0000
65.6900 295.0000 1.0000
65.7000 306.0000 1.0000
65.7100 324.0000 1.0000
65.7200 332.0000 1.0000
65.7300 336.0000 1.0000
65.7400 313.0000 1.0000
65.7500 335.0000 1.0000
65.7600 307.0000 1.0000
65.7700 314.0000 1.0000
65.7800 318.0000 1.0000
65.7900 331.0000 1.0000
65.8000 347.0000 1.0000
65.8100 307.0000 1.0000
65.8200 340.0000 1.0000
65.8300 314.0000 1.0000
65.8400 304.0000 1.0000
65.8500 309.0000 1.0000
65.8600 319.0000 1.0000
65.8700 313.0000 1.0000
65.8800 316.0000 1.0000
65.8900 338.0000 1.0000
65.9000 342.0000 1.0000
65.9100 340.0000 1.0000
65.9200 339.0000 1.0000
65.9300 361.0000 1.0000
65.9400 334.0000 1.0000
65.9500 389.0000 1.0000
65.9600 395.0000 1.0000
65.9700 372.0000 1.0000
65.9800 419.0000 1.0000
65.9900 394.0000 1.0000
66.0000 386.0000 1.0000
66.0100 417.0000 1.0000
66.0200 422.0000 1.0000
66.0300 439.0000 1.0000
66.0400 448.0000 1.0000
66.0500 456.0000 1.0000
66.0600 444.0000 1.0000
66.0700 503.0000 1.0000
66.0800 517.0000 1.0000
66.0900 491.0000 1.0000
66.1000 514.0000 1.0000
66.1100 568.0000 1.0000
66.1200 603.0000 1.0000
66.1300 630.0000 1.0000
66.1400 674.0000 1.0000
66.1500 652.0000 1.0000
66.1600 734.0000 1.0000
66.1700 793.0000 1.0000
66.1800 797.0000 1.0000
66.1900 805.0000 1.0000
66.2000 906.0000 1.0000
66.2100 913.0000 1.0000
66.2200 987.0000 1.0000
66.2300 988.0000 1.0000
66.2400 1040.0000 1.0000
66.2500 1092.0000 1.0000
66.2600 1149.0000 1.0000
66.2700 1161.0000 1.0000
66.2800 1156.0000 1.0000
66.2900 1130.0000 1.0000
66.3000 1212.0000 1.0000
66.3100 1226.0000 1.0000
66.3200 1126.0000 1.0000
66.3300 1120.0000 1.0000
66.3400 1098.0000 1.0000
66.3500 1134.0000 1.0000
66.3600 1070.0000 1.0000
66.3700 1036.0000 1.0000
66.3800 1026.0000 1.0000
66.3900 1006.0000 1.0000
66.4000 989.0000 1.0000
66.4100 999.0000 1.0000
66.4200 1010.0000 1.0000
66.4300 942.0000 1.0000
66.4400 886.0000 1.0000
66.4500 879.0000 1.0000
66.4600 903.0000 1.0000
66.4700 912.0000 1.0000
66.4800 857.0000 1.0000
66.4900 817.0000 1.0000
66.5000 828.0000 1.0000
66.5100 822.0000 1.0000
66.5200 797.0000 1.0000
66.5300 782.0000 1.0000
66.5400 707.0000 1.0000
66.5500 709.0000 1.0000
66.5600 695.0000 1.0000
66.5700 639.0000 1.0000
66.5800 590.0000 1.0000
66.5900 581.0000 1.0000
66.6000 558.0000 1.0000
66.6100 514.0000 1.0000
66.6200 496.0000 1.0000
66.6300 470.0000 1.0000
66.6400 497.0000 1.0000
66.6500 477.0000 1.0000
66.6600 449.0000 1.0000
66.6700 419.0000 1.0000
66.6800 439.0000 1.0000
66.6900 430.0000 1.0000
66.7000 399.0000 1.0000
66.7100 412.0000 1.0000
66.7200 394.0000 1.0000
66.7300 352.0000 1.0000
66.7400 361.0000 1.0000
66.7500 366.0000 1.0000
66.7600 371.0000 1.0000
66.7700 343.0000 1.0000
66.7800 366.0000 1.0000
66.7900 369.0000 1.0000
66.8000 310.0000 1.0000
66.8100 348.0000 1.0000
66.8200 346.0000 1.0000
66.8300 317.0000 1.0000
66.8400 357.0000 1.0000
66.8500 350.0000 1.0000
66.8600 323.0000 1.0000
66.8700 291.0000 1.0000
66.8800 320.0000 1.0000
66.8900 327.0000 1.0000
66.9000 319.0000 1.0000
66.9100 313.0000 1.0000
66.9200 306.0000 1.0000
66.9300 314.0000 1.0000
66.9400 312.0000 1.0000
66.9500 309.0000 1.0000
66.9600 314.0000 1.0000
66.9700 288.0000 1.0000
66.9800 296.0000 1.0000
66.9900 334.0000 1.0000
67.0000 278.0000 1.0000
67.0100 287.0000 1.0000
67.0200 277.0000 1.0000
67.0300 289.0000 1.0000
67.0400 272.0000 1.0000
67.0500 278.0000 1.0000
67.0600 272.0000 1.0000
67.0700 287.0000 1.0000
67.0800 283.0000 1.0000
67.0900 285.0000 1.0000
67.1000 294.0000 1.0000
67.1100 292.0000 1.0000
67.1200 312.0000 1.0000
67.1300 281.0000 1.0000
67.1400 294.0000 1.0000
67.1500 298.0000 1.0000
67.1600 278.0000 1.0000
67.1700 282.0000 1.0000
67.1800 286.0000 1.0000
67.1900 265.0000 1.0000
67.2000 278.0000 1.0000
67.2100 257.0000 1.0000
67.2200 280.0000 1.0000
67.2300 283.0000 1.0000
67.2400 282.0000 1.0000
67.2500 268.0000 1.0000
67.2600 279.0000 1.0000
67.2700 287.0000 1.0000
67.2800 256.0000 1.0000
67.2900 256.0000 1.0000
67.3000 278.0000 1.0000
67.3100 258.0000 1.0000
67.3200 273.0000 1.0000
67.3300 265.0000 1.0000
67.3400 281.0000 1.0000
67.3500 274.0000 1.0000
67.3600 269.0000 1.0000
67.3700 250.0000 1.0000
67.3800 245.0000 1.0000
67.3900 263.0000 1.0000
67.4000 262.0000 1.0000
67.4100 306.0000 1.0000
67.4200 262.0000 1.0000
67.4300 274.0000 1.0000
67.4400 275.0000 1.0000
67.4500 263.0000 1.0000
67.4600 282.0000 1.0000
67.4700 284.0000 1.0000
67.4800 279.0000 1.0000
67.4900 292.0000 1.0000
67.5000 265.0000 1.0000
67.5100 253.0000 1.0000
67.5200 287.0000 1.0000
67.5300 252.0000 1.0000
67.5400 275.0000 1.0000
67.5500 259.0000 1.0000
67.5600 268.0000 1.0000
67.5700 283.0000 1.0000
67.5800 249.0000 1.0000
67.5900 268.0000 1.0000
67.6000 249.0000 1.0000
67.6100 267.0000 1.0000
67.6200 252.0000 1.0000
67.6300 227.0000 1.0000
67.6400 267.0000 1.0000
67.6500 304.0000 1.0000
67.6600 267.0000 1.0000
67.6700 273.0000 1.0000
67.6800 238.0000 1.0000
67.6900 236.0000 1.0000
67.7000 246.0000 1.0000
67.7100 265.0000 1.0000
67.7200 263.0000 1.0000
67.7300 252.0000 1.0000
67.7400 265.0000 1.0000
67.7500 249.0000 1.0000
67.7600 262.0000 1.0000
67.7700 276.0000 1.0000
67.7800 260.0000 1.0000
67.7900 263.0000 1.0000
67.8000 259.0000 1.0000
67.8100 255.0000 1.0000
67.8200 245.0000 1.0000
67.8300 242.0000 1.0000
67.8400 273.0000 1.0000
67.8500 270.0000 1.0000
67.8600 278.0000 1.0000
67.8700 267.0000 1.0000
67.8800 256.0000 1.0000
67.8900 241.0000 1.0000
67.9000 282.0000 1.0000
67.9100 268.0000 1.0000
67.9200 270.0000 1.0000
67.9300 241.0000 1.0000
67.9400 251.0000 1.0000
67.9500 316.0000 1.0000
67.9600 240.0000 1.0000
67.9700 266.0000 1.0000
67.9800 245.0000 1.0000
67.9900 243.0000 1.0000
68.0000 230.0000 1.0000
68.0100 256.0000 1.0000
68.0200 278.0000 1.0000
68.0300 263.0000 1.0000
68.0400 245.0000 1.0000
68.0500 261.0000 1.0000
68.0600 285.0000 1.0000
68.0700 252.0000 1.0000
68.0800 264.0000 1.0000
68.0900 257.0000 1.0000
68.1000 267.0000 1.0000
68.1100 280.0000 1.0000
68.1200 264.0000 1.0000
68.1300 273.0000 1.0000
68.1400 267.0000 1.0000
68.1500 277.0000 1.0000
68.1600 266.0000 1.0000
68.1700 251.0000 1.0000
68.1800 260.0000 1.0000
68.1900 258.0000 1.0000
68.2000 253.0000 1.0000
68.2100 257.0000 1.0000
68.2200 246.0000 1.0000
68.2300 240.0000 1.0000
68.2400 269.0000 1.0000
68.2500 260.0000 1.0000
68.2600 256.0000 1.0000
68.2700 267.0000 1.0000
68.2800 256.0000 1.0000
68.2900 242.0000 1.0000
68.3000 264.0000 1.0000
68.3100 255.0000 1.0000
68.3200 250.0000 1.0000
68.3300 234.0000 1.0000
68.3400 257.0000 1.0000
68.3500 240.0000 1.0000
68.3600 247.0000 1.0000
68.3700 222.0000 1.0000
68.3800 244.0000 1.0000
68.3900 263.0000 1.0000
68.4000 254.0000 1.0000
68.4100 241.0000 1.0000
68.4200 254.0000 1.0000
68.4300 254.0000 1.0000
68.4400 272.0000 1.0000
68.4500 259.0000 1.0000
68.4600 245.0000 1.0000
68.4700 258.0000 1.0000
68.4800 241.0000 1.0000
68.4900 276.0000 1.0000
68.5000 247.0000 1.0000
68.5100 224.0000 1.0000
68.5200 261.0000 1.0000
68.5300 264.0000 1.0000
68.5400 279.0000 1.0000
68.5500 259.0000 1.0000
68.5600 236.0000 1.0000
68.5700 253.0000 1.0000
68.5800 259.0000 1.0000
68.5900 252.0000 1.0000
68.6000 238.0000 1.0000
68.6100 250.0000 1.0000
68.6200 244.0000 1.0000
68.6300 237.0000 1.0000
68.6400 263.0000 1.0000
68.6500 281.0000 1.0000
68.6600 262.0000 1.0000
68.6700 249.0000 1.0000
68.6800 265.0000 1.0000
68.6900 255.0000 1.0000
68.7000 226.0000 1.0000
68.7100 248.0000 1.0000
68.7200 235.0000 1.0000
68.7300 238.0000 1.0000
68.7400 255.0000 1.0000
68.7500 275.0000 1.0000
68.7600 233.0000 1.0000
68.7700 236.0000 1.0000
68.7800 258.0000 1.0000
68.7900 257.0000 1.0000
68.8000 263.0000 1.0000
68.8100 269.0000 1.0000
68.8200 261.0000 1.0000
68.8300 256.0000 1.0000
68.8400 252.0000 1.0000
68.8500 235.0000 1.0000
68.8600 238.0000 1.0000
68.8700 247.0000 1.0000
68.8800 250.0000 1.0000
68.8900 255.0000 1.0000
68.9000 248.0000 1.0000
68.9100 257.0000 1.0000
68.9200 261.0000 1.0000
68.9300 244.0000 1.0000
68.9400 248.0000 1.0000
68.9500 235.0000 1.0000
68.9600 233.0000 1.0000
68.9700 246.0000 1.0000
68.9800 240.0000 1.0000
68.9900 256.0000 1.0000
69.0000 253.0000 1.0000
69.0100 266.0000 1.0000
69.0200 261.0000 1.0000
69.0300 259.0000 1.0000
69.0400 251.0000 1.0000
69.0500 243.0000 1.0000
69.0600 249.0000 1.0000
69.0700 241.0000 1.0000
69.0800 254.0000 1.0000
69.0900 270.0000 1.0000
69.1000 248.0000 1.0000
69.1100 241.0000 1.0000
69.1200 238.0000 1.0000
69.1300 246.0000 1.0000
69.1400 265.0000 1.0000
69.1500 240.0000 1.0000
69.1600 228.0000 1.0000
69.1700 236.0000 1.0000
69.1800 243.0000 1.0000
69.1900 250.0000 1.0000
69.2000 244.0000 1.0000
69.2100 244.0000 1.0000
69.2200 270.0000 1.0000
69.2300 241.0000 1.0000
69.2400 254.0000 1.0000
69.2500 245.0000 1.0000
69.2600 244.0000 1.0000
69.2700 277.0000 1.0000
69.2800 244.0000 1.0000
69.2900 257.0000 1.0000
69.3000 243.0000 1.0000
69.3100 262.0000 1.0000
69.3200 262.0000 1.0000
69.3300 255.0000 1.0000
69.3400 257.0000 1.0000
69.3500 272.0000 1.0000
69.3600 234.0000 1.0000
69.3700 243.0000 1.0000
69.3800 269.0000 1.0000
69.3900 257.0000 1.0000
69.4000 247.0000 1.0000
69.4100 267.0000 1.0000
69.4200 245.0000 1.0000
69.4300 228.0000 1.0000
69.4400 225.0000 1.0000
69.4500 235.0000 1.0000
69.4600 262.0000 1.0000
69.4700 261.0000 1.0000
69.4800 247.0000 1.0000
69.4900 251.0000 1.0000
69.5000 242.0000 1.0000
69.5100 236.0000 1.0000
69.5200 261.0000 1.0000
69.5300 252.0000 1.0000
69.5400 239.0000 1.0000
69.5500 243.0000 1.0000
69.5600 273.0000 1.0000
69.5700 255.0000 1.0000
69.5800 239.0000 1.0000
69.5900 261.0000 1.0000
69.6000 259.0000 1.0000
69.6100 248.0000 1.0000
69.6200 276.0000 1.0000
69.6300 246.0000 1.0000
69.6400 249.0000 1.0000
69.6500 229.0000 1.0000
69.6600 237.0000 1.0000
69.6700 243.0000 1.0000
69.6800 269.0000 1.0000
69.6900 252.0000 1.0000
69.7000 240.0000 1.0000
69.7100 261.0000 1.0000
69.7200 255.0000 1.0000
69.7300 269.0000 1.0000
69.7400 232.0000 1.0000
69.7500 267.0000 1.0000
69.7600 252.0000 1.0000
69.7700 241.0000 1.0000
69.7800 237.0000 1.0000
69.7900 263.0000 1.0000
69.8000 248.0000 1.0000
69.8100 263.0000 1.0000
69.8200 248.0000 1.0000
69.8300 246.0000 1.0000
69.8400 237.0000 1.0000
69.8500 258.0000 1.0000
69.8600 225.0000 1.0000
69.8700 221.0000 1.0000
69.8800 254.0000 1.0000
69.8900 258.0000 1.0000
69.9000 209.0000 1.0000
69.9100 237.0000 1.0000
69.9200 253.0000 1.0000
69.9300 235.0000 1.0000
69.9400 242.0000 1.0000
69.9500 247.0000 1.0000
69.9600 280.0000 1.0000
69.9700 247.0000 1.0000
69.9800 238.0000 1.0000
69.9900 262.0000 1.0000
70.0000 224.0000 1.0000
*RAS_INT_END
*RAS_TEMPERATURE_START
*RAS_TEMPERATURE_END
*RAS_DATA_END
