*RAS_DATA_START
*RAS_HEADER_START
*DISP_FMT_X "%.2f"
*DISP_FMT_Y "%.0f"
*DISP_FULLSCALE "16356.0000000000"
*DISP_LINE_COLOR "255.0000000000"
*DISP_LINE_STYLE "0.0000000000"
*DISP_LINE_WIDTH "0.2500000000"
*DISP_NOTE "測定データ-2"
*DISP_OFFSET_Y "0.0000000000"
*DISP_PEAKSEARCH_UNIT_Y "cps"
*DISP_RANGE_BOTTOM "0.0000000000"
*DISP_RANGE_LEFT "20.0000000000"
*DISP_RANGE_LOGCUTOFF "0.0100000000"
*DISP_RANGE_RIGHT "70.0000000000"
*DISP_RANGE_TOP "16356.0000000000"
*DISP_SCALE_MODE_Y "0.0000000000"
*DISP_TAB_NAME "2θ/θ"
*DISP_TITLE_Y "強度"
*DISP_UNIT_Y "cps"
*DISP_WINDOW_NAME "MSG_MACROENGINE"
*FILE_COMMENT " "
*FILE_MD5 ""
*FILE_MEMO " "
*FILE_OPERATOR "Administrator"
*FILE_SAMPLE " "
*FILE_TYPE "RAS_RAW"
*FILE_USERGROUP "システムマネージャ"
*FILE_VERSION "1.0000000000"
*HW_ATTACHMENT_ID "ATT0025"
*HW_ATTACHMENT_NAME "標準|Standard"
*HW_COUNTER_ID-0 "CUT0025"
*HW_COUNTER_ID-1 "CUT0020"
*HW_COUNTER_ID-2 "CUT0020"
*HW_COUNTER_ID-3 "CSL0021"
*HW_COUNTER_ID-4 "CMC0021"
*HW_COUNTER_NAME-0 "D/teX Ultra|D/teX Ultra"
*HW_COUNTER_NAME-1 "None|None"
*HW_COUNTER_NAME-2 "None|None"
*HW_COUNTER_NAME-3 "BBM|BBM"
*HW_COUNTER_NAME-4 "検出器モノクロメータ|Detector monochromator"
*HW_COUNTER_SELECT_NAME "D/teX Ultra|D/teX Ultra"
*HW_GONIOMETER_ID "GON0023"
*HW_GONIOMETER_NAME "SmartLab|SmartLab"
*HW_GONIOMETER_RADIUS-0 "90.0"
*HW_GONIOMETER_RADIUS-1 "114.0"
*HW_GONIOMETER_RADIUS-2 "190.0"
*HW_GONIOMETER_RADIUS-3 "300.0"
*HW_GONIOMETER_RADIUS-4 "187.0"
*HW_GONIOMETER_RADIUS-5 "300.0"
*HW_GONIOMETER_RADIUS-6 "113.0"
*HW_GONIOMETER_RADIUS-7 "331.0"
*HW_I_OPT_ID-0 "CBO0021"
*HW_I_OPT_ID-1 "ICR0023"
*HW_I_OPT_ID-2 "ISL0021"
*HW_I_OPT_ID-3 "ISO0021"
*HW_I_OPT_ID-4 "IAD0021"
*HW_I_OPT_ID-5 "IPR0001"
*HW_I_OPT_NAME-0 "CBOユニット|CBO unit"
*HW_I_OPT_NAME-1 "標準入射光学ユニット|Standard incident optical unit"
*HW_I_OPT_NAME-2 "標準入射スリットボックス|Standard incident slit box"
*HW_I_OPT_NAME-3 "入射平行スリット|Incident parallel slit"
*HW_I_OPT_NAME-4 "長手制限スリット|Length limiting slit"
*HW_I_OPT_NAME-5 "None|None"
*HW_R_ATTENUATER_AUTOMODE "0"
*HW_R_OPT_ID-0 "RSS0021"
*HW_R_OPT_ID-1 "RCR0023"
*HW_R_OPT_ID-2 "RSO0021"
*HW_R_OPT_ID-3 "RRS0021"
*HW_R_OPT_ID-4 "ATN0021"
*HW_R_OPT_ID-5 "RFL0021"
*HW_R_OPT_ID-6 "RAD0021"
*HW_R_OPT_NAME-0 "標準受光スリットボックス1|Standard receiving slit box # 1"
*HW_R_OPT_NAME-1 "標準受光光学ユニット1|Standard receiving unit # 1"
*HW_R_OPT_NAME-2 "標準受光光学ユニット2|Standard receiving optical unit # 2"
*HW_R_OPT_NAME-3 "標準受光スリットボックス2|Standard receiving slit box # 2"
*HW_R_OPT_NAME-4 "標準アッテネータ|Standard Attenuator"
*HW_R_OPT_NAME-5 "Cu Kβ|Cu K-beta"
*HW_R_OPT_NAME-6 "調整用受光スリット|Alignment receiving slit"
*HW_SAMPLE_HOLDER_ID "SMP0023"
*HW_SAMPLE_HOLDER_NAME "標準Zステージ|Standard Z stage"
*HW_XG_CURRENT_MAX "50"
*HW_XG_CURRENT_MIN "2"
*HW_XG_CURRENT_RESOLUTION "1"
*HW_XG_CURRENT_UNIT "mA"
*HW_XG_FOCUS "1mm x 10mm"
*HW_XG_FOCUS_TYPE "Normal"
*HW_XG_ID ""
*HW_XG_NAME "3kW 封入管(ID:1200)|3kW Sealed tube(ID:1200)"
*HW_XG_TARGET_ATOMIC_NUMBER "29.0000000000"
*HW_XG_TARGET_NAME "Cu"
*HW_XG_TYPE "Hermetic"
*HW_XG_VOLTAGE_MAX "60"
*HW_XG_VOLTAGE_MIN "20"
*HW_XG_VOLTAGE_RESOLUTION "1"
*HW_XG_VOLTAGE_UNIT "kV"
*HW_XG_WATT_MAX "1.500"
*HW_XG_WATT_UNIT "kW"
*HW_XG_WAVE_LENGTH_ALPHA1 "1.540593"
*HW_XG_WAVE_LENGTH_ALPHA2 "1.544414"
*HW_XG_WAVE_LENGTH_BETA "1.392250"
*MEAS_COND_AXIS_NAME-0 "2θ/θ"
*MEAS_COND_AXIS_NAME-1 "2θ"
*MEAS_COND_AXIS_NAME-2 "ω"
*MEAS_COND_AXIS_NAME-3 "Z"
*MEAS_COND_AXIS_NAME-4 "2θ/ω"
*MEAS_COND_AXIS_NAME-5 "θs"
*MEAS_COND_AXIS_NAME-6 "θd"
*MEAS_COND_AXIS_NAME-7 "Ts"
*MEAS_COND_AXIS_NAME-8 "CBO選択スリット"
*MEAS_COND_AXIS_NAME-9 "M"
*MEAS_COND_AXIS_NAME-10 "入射平行スリット"
*MEAS_COND_AXIS_NAME-11 "入射スリット"
*MEAS_COND_AXIS_NAME-12 ""
*MEAS_COND_AXIS_NAME-13 "Zs"
*MEAS_COND_AXIS_NAME-14 "入射光学素子"
*MEAS_COND_AXIS_NAME-15 "長手制限スリット"
*MEAS_COND_AXIS_NAME-16 "センタースリット"
*MEAS_COND_AXIS_NAME-17 "フィルター"
*MEAS_COND_AXIS_NAME-18 "受光スリット1"
*MEAS_COND_AXIS_NAME-19 "受光スリット2"
*MEAS_COND_AXIS_NAME-20 "受光光学素子"
*MEAS_COND_AXIS_NAME-21 "受光平行スリット"
*MEAS_COND_AXIS_NAME-22 "調整用受光スリット"
*MEAS_COND_AXIS_NAME-23 ""
*MEAS_COND_AXIS_NAME-24 ""
*MEAS_COND_AXIS_NAME-25 "Zd"
*MEAS_COND_AXIS_NAME-26 "アッテネータ"
*MEAS_COND_AXIS_NAME-27 "検出器モノクロメータ"
*MEAS_COND_AXIS_NAME-28 "モノクロメータスリット"
*MEAS_COND_AXIS_NAME-29 "プライマリビーム"
*MEAS_COND_AXIS_NAME-30 "PHA"
*MEAS_COND_AXIS_NAME_INTERNAL-0 "TwoThetaTheta"
*MEAS_COND_AXIS_NAME_INTERNAL-1 "TwoTheta"
*MEAS_COND_AXIS_NAME_INTERNAL-2 "Omega"
*MEAS_COND_AXIS_NAME_INTERNAL-3 "Z"
*MEAS_COND_AXIS_NAME_INTERNAL-4 "TwoThetaOmega"
*MEAS_COND_AXIS_NAME_INTERNAL-5 "ThetaS"
*MEAS_COND_AXIS_NAME_INTERNAL-6 "ThetaD"
*MEAS_COND_AXIS_NAME_INTERNAL-7 "Ts"
*MEAS_COND_AXIS_NAME_INTERNAL-8 "CBO"
*MEAS_COND_AXIS_NAME_INTERNAL-9 "CBO-M"
*MEAS_COND_AXIS_NAME_INTERNAL-10 "IncidentSollerSlit"
*MEAS_COND_AXIS_NAME_INTERNAL-11 "IncidentSlitBox"
*MEAS_COND_AXIS_NAME_INTERNAL-12 "IncidentSlitBox-_Axis"
*MEAS_COND_AXIS_NAME_INTERNAL-13 "Zs"
*MEAS_COND_AXIS_NAME_INTERNAL-14 "IncidentMonochromator"
*MEAS_COND_AXIS_NAME_INTERNAL-15 "IncidentAxdSlit"
*MEAS_COND_AXIS_NAME_INTERNAL-16 "CenterSlit"
*MEAS_COND_AXIS_NAME_INTERNAL-17 "Filter"
*MEAS_COND_AXIS_NAME_INTERNAL-18 "ReceivingSlitBox1"
*MEAS_COND_AXIS_NAME_INTERNAL-19 "ReceivingSlitBox2"
*MEAS_COND_AXIS_NAME_INTERNAL-20 "ReceivingOptics"
*MEAS_COND_AXIS_NAME_INTERNAL-21 "ReceivingSollerSlit"
*MEAS_COND_AXIS_NAME_INTERNAL-22 "ReceivingAxdSlit"
*MEAS_COND_AXIS_NAME_INTERNAL-23 "ReceivingSlitBox1-_Axis"
*MEAS_COND_AXIS_NAME_INTERNAL-24 "ReceivingSlitBox2-_Axis"
*MEAS_COND_AXIS_NAME_INTERNAL-25 "ReceivingSlitBox2-Zd"
*MEAS_COND_AXIS_NAME_INTERNAL-26 "Attenuator"
*MEAS_COND_AXIS_NAME_INTERNAL-27 "CounterMonochromator"
*MEAS_COND_AXIS_NAME_INTERNAL-28 "CounterSlit"
*MEAS_COND_AXIS_NAME_INTERNAL-29 "IncidentPrimary"
*MEAS_COND_AXIS_NAME_INTERNAL-30 "PHA"
*MEAS_COND_AXIS_NAME_MAGICNO-0 "83951616.0000000000"
*MEAS_COND_AXIS_NAME_MAGICNO-1 "268632064.0000000000"
*MEAS_COND_AXIS_NAME_MAGICNO-2 "268500992.0000000000"
*MEAS_COND_AXIS_NAME_MAGICNO-3 "285278208.0000000000"
*MEAS_COND_AXIS_NAME_MAGICNO-4 "83951616.0000000000"
*MEAS_COND_AXIS_NAME_MAGICNO-5 "131072.0000000000"
*MEAS_COND_AXIS_NAME_MAGICNO-6 "131072.0000000000"
*MEAS_COND_AXIS_NAME_MAGICNO-7 "318898176.0000000000"
*MEAS_COND_AXIS_NAME_MAGICNO-8 "20971521.0000000000"
*MEAS_COND_AXIS_NAME_MAGICNO-9 "285343744.0000000000"
*MEAS_COND_AXIS_NAME_MAGICNO-10 "20971521.0000000000"
*MEAS_COND_AXIS_NAME_MAGICNO-11 "22020097.0000000000"
*MEAS_COND_AXIS_NAME_MAGICNO-12 "25165824.0000000000"
*MEAS_COND_AXIS_NAME_MAGICNO-13 "318898176.0000000000"
*MEAS_COND_AXIS_NAME_MAGICNO-14 "1.0000000000"
*MEAS_COND_AXIS_NAME_MAGICNO-15 "20971521.0000000000"
*MEAS_COND_AXIS_NAME_MAGICNO-16 "20971521.0000000000"
*MEAS_COND_AXIS_NAME_MAGICNO-17 "20971521.0000000000"
*MEAS_COND_AXIS_NAME_MAGICNO-18 "23068673.0000000000"
*MEAS_COND_AXIS_NAME_MAGICNO-19 "23068673.0000000000"
*MEAS_COND_AXIS_NAME_MAGICNO-20 "20971521.0000000000"
*MEAS_COND_AXIS_NAME_MAGICNO-21 "20971521.0000000000"
*MEAS_COND_AXIS_NAME_MAGICNO-22 "20971521.0000000000"
*MEAS_COND_AXIS_NAME_MAGICNO-23 "25165824.0000000000"
*MEAS_COND_AXIS_NAME_MAGICNO-24 "25165824.0000000000"
*MEAS_COND_AXIS_NAME_MAGICNO-25 "285343744.0000000000"
*MEAS_COND_AXIS_NAME_MAGICNO-26 "17301505.0000000000"
*MEAS_COND_AXIS_NAME_MAGICNO-27 "20971521.0000000000"
*MEAS_COND_AXIS_NAME_MAGICNO-28 "20971521.0000000000"
*MEAS_COND_AXIS_NAME_MAGICNO-29 "20971521.0000000000"
*MEAS_COND_AXIS_NAME_MAGICNO-30 "0.0000000000"
*MEAS_COND_AXIS_OFFSET-0 "-"
*MEAS_COND_AXIS_OFFSET-1 "-0.1081000000"
*MEAS_COND_AXIS_OFFSET-2 "0.3758000000"
*MEAS_COND_AXIS_OFFSET-3 "-"
*MEAS_COND_AXIS_OFFSET-4 "-"
*MEAS_COND_AXIS_OFFSET-5 "0.3758000000"
*MEAS_COND_AXIS_OFFSET-6 "-0.4839000000"
*MEAS_COND_AXIS_OFFSET-7 "-"
*MEAS_COND_AXIS_OFFSET-8 "-"
*MEAS_COND_AXIS_OFFSET-9 "-"
*MEAS_COND_AXIS_OFFSET-10 "-"
*MEAS_COND_AXIS_OFFSET-11 "-"
*MEAS_COND_AXIS_OFFSET-12 "-"
*MEAS_COND_AXIS_OFFSET-13 "-"
*MEAS_COND_AXIS_OFFSET-14 "-"
*MEAS_COND_AXIS_OFFSET-15 "-"
*MEAS_COND_AXIS_OFFSET-16 "-"
*MEAS_COND_AXIS_OFFSET-17 "-"
*MEAS_COND_AXIS_OFFSET-18 "-"
*MEAS_COND_AXIS_OFFSET-19 "-"
*MEAS_COND_AXIS_OFFSET-20 "-"
*MEAS_COND_AXIS_OFFSET-21 "-"
*MEAS_COND_AXIS_OFFSET-22 "-"
*MEAS_COND_AXIS_OFFSET-23 "-"
*MEAS_COND_AXIS_OFFSET-24 "-"
*MEAS_COND_AXIS_OFFSET-25 "-"
*MEAS_COND_AXIS_OFFSET-26 "-"
*MEAS_COND_AXIS_OFFSET-27 "-"
*MEAS_COND_AXIS_OFFSET-28 "-"
*MEAS_COND_AXIS_OFFSET-29 "-"
*MEAS_COND_AXIS_OFFSET-30 "-"
*MEAS_COND_AXIS_POSITION-0 "0.0000000000"
*MEAS_COND_AXIS_POSITION-1 "0.0000000000"
*MEAS_COND_AXIS_POSITION-2 "0.0000000000"
*MEAS_COND_AXIS_POSITION-3 "-0.5500000000"
*MEAS_COND_AXIS_POSITION-4 "0.0000000000"
*MEAS_COND_AXIS_POSITION-5 "0.0000000000"
*MEAS_COND_AXIS_POSITION-6 "0.0000000000"
*MEAS_COND_AXIS_POSITION-7 "-0.4278800000"
*MEAS_COND_AXIS_POSITION-8 "BB"
*MEAS_COND_AXIS_POSITION-9 "0.0000000000"
*MEAS_COND_AXIS_POSITION-10 "Soller_slit_5.0deg"
*MEAS_COND_AXIS_POSITION-11 "2/3deg"
*MEAS_COND_AXIS_POSITION-12 "2.2088000000"
*MEAS_COND_AXIS_POSITION-13 "-0.4140600000"
*MEAS_COND_AXIS_POSITION-14 "0.0000000000"
*MEAS_COND_AXIS_POSITION-15 "10.0mm"
*MEAS_COND_AXIS_POSITION-16 "None"
*MEAS_COND_AXIS_POSITION-17 "Cu_K-beta"
*MEAS_COND_AXIS_POSITION-18 "13.000mm"
*MEAS_COND_AXIS_POSITION-19 "13.000mm"
*MEAS_COND_AXIS_POSITION-20 "No_unit"
*MEAS_COND_AXIS_POSITION-21 "Soller_slit_5.0deg"
*MEAS_COND_AXIS_POSITION-22 "None"
*MEAS_COND_AXIS_POSITION-23 "13.0000000000"
*MEAS_COND_AXIS_POSITION-24 "13.0000000000"
*MEAS_COND_AXIS_POSITION-25 "0.0109400000"
*MEAS_COND_AXIS_POSITION-26 "Open"
*MEAS_COND_AXIS_POSITION-27 "None"
*MEAS_COND_AXIS_POSITION-28 "None"
*MEAS_COND_AXIS_POSITION-29 "None"
*MEAS_COND_AXIS_POSITION-30 "38.0000000000"
*MEAS_COND_AXIS_UNIT-0 "deg"
*MEAS_COND_AXIS_UNIT-1 "deg"
*MEAS_COND_AXIS_UNIT-2 "deg"
*MEAS_COND_AXIS_UNIT-3 "mm"
*MEAS_COND_AXIS_UNIT-4 "deg"
*MEAS_COND_AXIS_UNIT-5 "deg"
*MEAS_COND_AXIS_UNIT-6 "deg"
*MEAS_COND_AXIS_UNIT-7 "mm"
*MEAS_COND_AXIS_UNIT-8 ""
*MEAS_COND_AXIS_UNIT-9 "pulse"
*MEAS_COND_AXIS_UNIT-10 ""
*MEAS_COND_AXIS_UNIT-11 ""
*MEAS_COND_AXIS_UNIT-12 "mm"
*MEAS_COND_AXIS_UNIT-13 "mm"
*MEAS_COND_AXIS_UNIT-14 ""
*MEAS_COND_AXIS_UNIT-15 ""
*MEAS_COND_AXIS_UNIT-16 ""
*MEAS_COND_AXIS_UNIT-17 ""
*MEAS_COND_AXIS_UNIT-18 ""
*MEAS_COND_AXIS_UNIT-19 ""
*MEAS_COND_AXIS_UNIT-20 ""
*MEAS_COND_AXIS_UNIT-21 ""
*MEAS_COND_AXIS_UNIT-22 ""
*MEAS_COND_AXIS_UNIT-23 "mm"
*MEAS_COND_AXIS_UNIT-24 "mm"
*MEAS_COND_AXIS_UNIT-25 "mm"
*MEAS_COND_AXIS_UNIT-26 ""
*MEAS_COND_AXIS_UNIT-27 ""
*MEAS_COND_AXIS_UNIT-28 ""
*MEAS_COND_AXIS_UNIT-29 ""
*MEAS_COND_AXIS_UNIT-30 "div"
*MEAS_COND_COUNTER_CNTLOSS_CORR "0.0000000000"
*MEAS_COND_COUNTER_PHABASE "38.0000000000"
*MEAS_COND_COUNTER_PHAWINDOW "16.0000000000"
*MEAS_COND_COUNTER_PHA_UNIT "div"
*MEAS_COND_COUNTER_TAUDIFF "30.0000000000"
*MEAS_COND_COUNTER_TAUINT "0.0000000000"
*MEAS_COND_IRRADIATION_MODE "OFF"
*MEAS_COND_IRRADIATION_WIDTH ""
*MEAS_COND_OPT_ATTR "集中法"
*MEAS_COND_OPT_NAME "@集中法"
*MEAS_COND_UNSYMMETRIC_MODE "OFF"
*MEAS_COND_XG_CURRENT "30.0000000000"
*MEAS_COND_XG_VOLTAGE "40.0000000000"
*MEAS_COND_XG_WAVE_TYPE "Ka"
*MEAS_DATA_COUNT "5001.0000000000"
*MEAS_SCAN_AXIS_X "2θ/θ"
*MEAS_SCAN_AXIS_X_INTERNAL "TwoThetaTheta"
*MEAS_SCAN_END_TIME "07/20/21 12:15:43"
*MEAS_SCAN_MODE "CONTINUOUS"
*MEAS_SCAN_MONITOR "0"
*MEAS_SCAN_RESOLUTION_X "0.0002"
*MEAS_SCAN_SPEED "1.0"
*MEAS_SCAN_SPEED_UNIT "deg/min"
*MEAS_SCAN_START "20.0000000000"
*MEAS_SCAN_START_TIME "07/20/21 11:22:50"
*MEAS_SCAN_STEP "0.0100000000"
*MEAS_SCAN_STOP "70.0000000000"
*MEAS_SCAN_UNIT_X "deg"
*MEAS_SCAN_UNIT_Y "counts"
*RAS_HEADER_END
*RAS_INT_START
20.0000 1517.0000 1.0000
20.0100 1570.0000 1.0000
20.0200 1548.0000 1.0000
20.0300 1570.0000 1.0000
20.0400 1544.0000 1.0000
20.0500 1562.0000 1.0000
20.0600 1489.0000 1.0000
20.0700 1488.0000 1.0000
20.0800 1557.0000 1.0000
20.0900 1528.0000 1.0000
20.1000 1546.0000 1.0000
20.1100 1512.0000 1.0000
20.1200 1519.0000 1.0000
20.1300 1508.0000 1.0000
20.1400 1545.0000 1.0000
20.1500 1548.0000 1.0000
20.1600 1519.0000 1.0000
20.1700 1579.0000 1.0000
20.1800 1510.0000 1.0000
20.1900 1566.0000 1.0000
20.2000 1497.0000 1.0000
20.2100 1572.0000 1.0000
20.2200 1541.0000 1.0000
20.2300 1544.0000 1.0000
20.2400 1543.0000 1.0000
20.2500 1489.0000 1.0000
20.2600 1541.0000 1.0000
20.2700 1576.0000 1.0000
20.2800 1517.0000 1.0000
20.2900 1511.0000 1.0000
20.3000 1554.0000 1.0000
20.3100 1498.0000 1.0000
20.3200 1538.0000 1.0000
20.3300 1577.0000 1.0000
20.3400 1582.0000 1.0000
20.3500 1577.0000 1.0000
20.3600 1552.0000 1.0000
20.3700 1469.0000 1.0000
20.3800 1522.0000 1.0000
20.3900 1530.0000 1.0000
20.4000 1544.0000 1.0000
20.4100 1521.0000 1.0000
20.4200 1567.0000 1.0000
20.4300 1573.0000 1.0000
20.4400 1486.0000 1.0000
20.4500 1538.0000 1.0000
20.4600 1527.0000 1.0000
20.4700 1537.0000 1.0000
20.4800 1579.0000 1.0000
20.4900 1575.0000 1.0000
20.5000 1603.0000 1.0000
20.5100 1548.0000 1.0000
20.5200 1470.0000 1.0000
20.5300 1560.0000 1.0000
20.5400 1624.0000 1.0000
20.5500 1478.0000 1.0000
20.5600 1551.0000 1.0000
20.5700 1518.0000 1.0000
20.5800 1517.0000 1.0000
20.5900 1521.0000 1.0000
20.6000 1578.0000 1.0000
20.6100 1522.0000 1.0000
20.6200 1501.0000 1.0000
20.6300 1502.0000 1.0000
20.6400 1585.0000 1.0000
20.6500 1535.0000 1.0000
20.6600 1558.0000 1.0000
20.6700 1588.0000 1.0000
20.6800 1557.0000 1.0000
20.6900 1547.0000 1.0000
20.7000 1508.0000 1.0000
20.7100 1566.0000 1.0000
20.7200 1526.0000 1.0000
20.7300 1556.0000 1.0000
20.7400 1538.0000 1.0000
20.7500 1575.0000 1.0000
20.7600 1537.0000 1.0000
20.7700 1574.0000 1.0000
20.7800 1546.0000 1.0000
20.7900 1534.0000 1.0000
20.8000 1489.0000 1.0000
20.8100 1529.0000 1.0000
20.8200 1545.0000 1.0000
20.8300 1525.0000 1.0000
20.8400 1506.0000 1.0000
20.8500 1493.0000 1.0000
20.8600 1534.0000 1.0000
20.8700 1520.0000 1.0000
20.8800 1476.0000 1.0000
20.8900 1546.0000 1.0000
20.9000 1516.0000 1.0000
20.9100 1460.0000 1.0000
20.9200 1485.0000 1.0000
20.9300 1588.0000 1.0000
20.9400 1488.0000 1.0000
20.9500 1555.0000 1.0000
20.9600 1495.0000 1.0000
20.9700 1603.0000 1.0000
20.9800 1535.0000 1.0000
20.9900 1613.0000 1.0000
21.0000 1586.0000 1.0000
21.0100 1534.0000 1.0000
21.0200 1574.0000 1.0000
21.0300 1555.0000 1.0000
21.0400 1567.0000 1.0000
21.0500 1522.0000 1.0000
21.0600 1495.0000 1.0000
21.0700 1517.0000 1.0000
21.0800 1518.0000 1.0000
21.0900 1490.0000 1.0000
21.1000 1545.0000 1.0000
21.1100 1593.0000 1.0000
21.1200 1538.0000 1.0000
21.1300 1527.0000 1.0000
21.1400 1485.0000 1.0000
21.1500 1448.0000 1.0000
21.1600 1537.0000 1.0000
21.1700 1580.0000 1.0000
21.1800 1551.0000 1.0000
21.1900 1462.0000 1.0000
21.2000 1466.0000 1.0000
21.2100 1499.0000 1.0000
21.2200 1577.0000 1.0000
21.2300 1547.0000 1.0000
21.2400 1568.0000 1.0000
21.2500 1586.0000 1.0000
21.2600 1590.0000 1.0000
21.2700 1526.0000 1.0000
21.2800 1522.0000 1.0000
21.2900 1533.0000 1.0000
21.3000 1589.0000 1.0000
21.3100 1544.0000 1.0000
21.3200 1485.0000 1.0000
21.3300 1490.0000 1.0000
21.3400 1576.0000 1.0000
21.3500 1502.0000 1.0000
21.3600 1541.0000 1.0000
21.3700 1596.0000 1.0000
21.3800 1607.0000 1.0000
21.3900 1565.0000 1.0000
21.4000 1492.0000 1.0000
21.4100 1556.0000 1.0000
21.4200 1543.0000 1.0000
21.4300 1509.0000 1.0000
21.4400 1587.0000 1.0000
21.4500 1509.0000 1.0000
21.4600 1613.0000 1.0000
21.4700 1542.0000 1.0000
21.4800 1517.0000 1.0000
21.4900 1564.0000 1.0000
21.5000 1516.0000 1.0000
21.5100 1550.0000 1.0000
21.5200 1596.0000 1.0000
21.5300 1555.0000 1.0000
21.5400 1558.0000 1.0000
21.5500 1565.0000 1.0000
21.5600 1589.0000 1.0000
21.5700 1561.0000 1.0000
21.5800 1491.0000 1.0000
21.5900 1594.0000 1.0000
21.6000 1514.0000 1.0000
21.6100 1595.0000 1.0000
21.6200 1570.0000 1.0000
21.6300 1521.0000 1.0000
21.6400 1529.0000 1.0000
21.6500 1513.0000 1.0000
21.6600 1472.0000 1.0000
21.6700 1566.0000 1.0000
21.6800 1572.0000 1.0000
21.6900 1505.0000 1.0000
21.7000 1615.0000 1.0000
21.7100 1632.0000 1.0000
21.7200 1599.0000 1.0000
21.7300 1576.0000 1.0000
21.7400 1539.0000 1.0000
21.7500 1491.0000 1.0000
21.7600 1545.0000 1.0000
21.7700 1509.0000 1.0000
21.7800 1491.0000 1.0000
21.7900 1484.0000 1.0000
21.8000 1559.0000 1.0000
21.8100 1569.0000 1.0000
21.8200 1591.0000 1.0000
21.8300 1515.0000 1.0000
21.8400 1520.0000 1.0000
21.8500 1558.0000 1.0000
21.8600 1487.0000 1.0000
21.8700 1549.0000 1.0000
21.8800 1531.0000 1.0000
21.8900 1528.0000 1.0000
21.9000 1603.0000 1.0000
21.9100 1543.0000 1.0000
21.9200 1494.0000 1.0000
21.9300 1540.0000 1.0000
21.9400 1492.0000 1.0000
21.9500 1516.0000 1.0000
21.9600 1543.0000 1.0000
21.9700 1544.0000 1.0000
21.9800 1566.0000 1.0000
21.9900 1525.0000 1.0000
22.0000 1554.0000 1.0000
22.0100 1553.0000 1.0000
22.0200 1567.0000 1.0000
22.0300 1548.0000 1.0000
22.0400 1563.0000 1.0000
22.0500 1563.0000 1.0000
22.0600 1529.0000 1.0000
22.0700 1528.0000 1.0000
22.0800 1582.0000 1.0000
22.0900 1581.0000 1.0000
22.1000 1621.0000 1.0000
22.1100 1561.0000 1.0000
22.1200 1598.0000 1.0000
22.1300 1621.0000 1.0000
22.1400 1588.0000 1.0000
22.1500 1540.0000 1.0000
22.1600 1541.0000 1.0000
22.1700 1555.0000 1.0000
22.1800 1565.0000 1.0000
22.1900 1489.0000 1.0000
22.2000 1574.0000 1.0000
22.2100 1620.0000 1.0000
22.2200 1558.0000 1.0000
22.2300 1574.0000 1.0000
22.2400 1526.0000 1.0000
22.2500 1576.0000 1.0000
22.2600 1571.0000 1.0000
22.2700 1548.0000 1.0000
22.2800 1560.0000 1.0000
22.2900 1550.0000 1.0000
22.3000 1587.0000 1.0000
22.3100 1525.0000 1.0000
22.3200 1567.0000 1.0000
22.3300 1570.0000 1.0000
22.3400 1585.0000 1.0000
22.3500 1615.0000 1.0000
22.3600 1566.0000 1.0000
22.3700 1531.0000 1.0000
22.3800 1554.0000 1.0000
22.3900 1567.0000 1.0000
22.4000 1514.0000 1.0000
22.4100 1574.0000 1.0000
22.4200 1502.0000 1.0000
22.4300 1588.0000 1.0000
22.4400 1578.0000 1.0000
22.4500 1595.0000 1.0000
22.4600 1617.0000 1.0000
22.4700 1520.0000 1.0000
22.4800 1496.0000 1.0000
22.4900 1596.0000 1.0000
22.5000 1616.0000 1.0000
22.5100 1523.0000 1.0000
22.5200 1561.0000 1.0000
22.5300 1555.0000 1.0000
22.5400 1565.0000 1.0000
22.5500 1595.0000 1.0000
22.5600 1577.0000 1.0000
22.5700 1554.0000 1.0000
22.5800 1564.0000 1.0000
22.5900 1562.0000 1.0000
22.6000 1565.0000 1.0000
22.6100 1558.0000 1.0000
22.6200 1607.0000 1.0000
22.6300 1565.0000 1.0000
22.6400 1534.0000 1.0000
22.6500 1625.0000 1.0000
22.6600 1536.0000 1.0000
22.6700 1533.0000 1.0000
22.6800 1526.0000 1.0000
22.6900 1549.0000 1.0000
22.7000 1506.0000 1.0000
22.7100 1584.0000 1.0000
22.7200 1559.0000 1.0000
22.7300 1550.0000 1.0000
22.7400 1545.0000 1.0000
22.7500 1549.0000 1.0000
22.7600 1589.0000 1.0000
22.7700 1558.0000 1.0000
22.7800 1576.0000 1.0000
22.7900 1567.0000 1.0000
22.8000 1558.0000 1.0000
22.8100 1588.0000 1.0000
22.8200 1613.0000 1.0000
22.8300 1595.0000 1.0000
22.8400 1599.0000 1.0000
22.8500 1571.0000 1.0000
22.8600 1580.0000 1.0000
22.8700 1497.0000 1.0000
22.8800 1557.0000 1.0000
22.8900 1577.0000 1.0000
22.9000 1599.0000 1.0000
22.9100 1532.0000 1.0000
22.9200 1539.0000 1.0000
22.9300 1545.0000 1.0000
22.9400 1644.0000 1.0000
22.9500 1632.0000 1.0000
22.9600 1564.0000 1.0000
22.9700 1537.0000 1.0000
22.9800 1596.0000 1.0000
22.9900 1650.0000 1.0000
23.0000 1636.0000 1.0000
23.0100 1611.0000 1.0000
23.0200 1621.0000 1.0000
23.0300 1577.0000 1.0000
23.0400 1547.0000 1.0000
23.0500 1612.0000 1.0000
23.0600 1634.0000 1.0000
23.0700 1508.0000 1.0000
23.0800 1582.0000 1.0000
23.0900 1587.0000 1.0000
23.1000 1601.0000 1.0000
23.1100 1618.0000 1.0000
23.1200 1554.0000 1.0000
23.1300 1643.0000 1.0000
23.1400 1574.0000 1.0000
23.1500 1541.0000 1.0000
23.1600 1562.0000 1.0000
23.1700 1521.0000 1.0000
23.1800 1572.0000 1.0000
23.1900 1623.0000 1.0000
23.2000 1632.0000 1.0000
23.2100 1537.0000 1.0000
23.2200 1555.0000 1.0000
23.2300 1618.0000 1.0000
23.2400 1597.0000 1.0000
23.2500 1574.0000 1.0000
23.2600 1537.0000 1.0000
23.2700 1588.0000 1.0000
23.2800 1580.0000 1.0000
23.2900 1613.0000 1.0000
23.3000 1578.0000 1.0000
23.3100 1574.0000 1.0000
23.3200 1557.0000 1.0000
23.3300 1596.0000 1.0000
23.3400 1633.0000 1.0000
23.3500 1609.0000 1.0000
23.3600 1577.0000 1.0000
23.3700 1650.0000 1.0000
23.3800 1644.0000 1.0000
23.3900 1582.0000 1.0000
23.4000 1570.0000 1.0000
23.4100 1546.0000 1.0000
23.4200 1581.0000 1.0000
23.4300 1632.0000 1.0000
23.4400 1588.0000 1.0000
23.4500 1548.0000 1.0000
23.4600 1563.0000 1.0000
23.4700 1589.0000 1.0000
23.4800 1591.0000 1.0000
23.4900 1550.0000 1.0000
23.5000 1584.0000 1.0000
23.5100 1574.0000 1.0000
23.5200 1619.0000 1.0000
23.5300 1543.0000 1.0000
23.5400 1571.0000 1.0000
23.5500 1519.0000 1.0000
23.5600 1581.0000 1.0000
23.5700 1597.0000 1.0000
23.5800 1538.0000 1.0000
23.5900 1584.0000 1.0000
23.6000 1586.0000 1.0000
23.6100 1546.0000 1.0000
23.6200 1563.0000 1.0000
23.6300 1574.0000 1.0000
23.6400 1603.0000 1.0000
23.6500 1521.0000 1.0000
23.6600 1576.0000 1.0000
23.6700 1540.0000 1.0000
23.6800 1642.0000 1.0000
23.6900 1665.0000 1.0000
23.7000 1629.0000 1.0000
23.7100 1625.0000 1.0000
23.7200 1610.0000 1.0000
23.7300 1600.0000 1.0000
23.7400 1587.0000 1.0000
23.7500 1627.0000 1.0000
23.7600 1618.0000 1.0000
23.7700 1552.0000 1.0000
23.7800 1570.0000 1.0000
23.7900 1534.0000 1.0000
23.8000 1528.0000 1.0000
23.8100 1590.0000 1.0000
23.8200 1624.0000 1.0000
23.8300 1646.0000 1.0000
23.8400 1555.0000 1.0000
23.8500 1621.0000 1.0000
23.8600 1539.0000 1.0000
23.8700 1635.0000 1.0000
23.8800 1613.0000 1.0000
23.8900 1603.0000 1.0000
23.9000 1640.0000 1.0000
23.9100 1518.0000 1.0000
23.9200 1602.0000 1.0000
23.9300 1563.0000 1.0000
23.9400 1551.0000 1.0000
23.9500 1596.0000 1.0000
23.9600 1664.0000 1.0000
23.9700 1566.0000 1.0000
23.9800 1556.0000 1.0000
23.9900 1569.0000 1.0000
24.0000 1651.0000 1.0000
24.0100 1655.0000 1.0000
24.0200 1638.0000 1.0000
24.0300 1616.0000 1.0000
24.0400 1585.0000 1.0000
24.0500 1560.0000 1.0000
24.0600 1637.0000 1.0000
24.0700 1616.0000 1.0000
24.0800 1545.0000 1.0000
24.0900 1657.0000 1.0000
24.1000 1655.0000 1.0000
24.1100 1604.0000 1.0000
24.1200 1604.0000 1.0000
24.1300 1578.0000 1.0000
24.1400 1659.0000 1.0000
24.1500 1661.0000 1.0000
24.1600 1541.0000 1.0000
24.1700 1648.0000 1.0000
24.1800 1610.0000 1.0000
24.1900 1615.0000 1.0000
24.2000 1646.0000 1.0000
24.2100 1630.0000 1.0000
24.2200 1579.0000 1.0000
24.2300 1596.0000 1.0000
24.2400 1540.0000 1.0000
24.2500 1602.0000 1.0000
24.2600 1605.0000 1.0000
24.2700 1606.0000 1.0000
24.2800 1582.0000 1.0000
24.2900 1597.0000 1.0000
24.3000 1590.0000 1.0000
24.3100 1626.0000 1.0000
24.3200 1527.0000 1.0000
24.3300 1632.0000 1.0000
24.3400 1573.0000 1.0000
24.3500 1623.0000 1.0000
24.3600 1623.0000 1.0000
24.3700 1628.0000 1.0000
24.3800 1578.0000 1.0000
24.3900 1593.0000 1.0000
24.4000 1625.0000 1.0000
24.4100 1582.0000 1.0000
24.4200 1658.0000 1.0000
24.4300 1582.0000 1.0000
24.4400 1653.0000 1.0000
24.4500 1677.0000 1.0000
24.4600 1626.0000 1.0000
24.4700 1651.0000 1.0000
24.4800 1690.0000 1.0000
24.4900 1651.0000 1.0000
24.5000 1584.0000 1.0000
24.5100 1576.0000 1.0000
24.5200 1657.0000 1.0000
24.5300 1639.0000 1.0000
24.5400 1622.0000 1.0000
24.5500 1636.0000 1.0000
24.5600 1665.0000 1.0000
24.5700 1592.0000 1.0000
24.5800 1642.0000 1.0000
24.5900 1580.0000 1.0000
24.6000 1658.0000 1.0000
24.6100 1605.0000 1.0000
24.6200 1672.0000 1.0000
24.6300 1646.0000 1.0000
24.6400 1652.0000 1.0000
24.6500 1615.0000 1.0000
24.6600 1663.0000 1.0000
24.6700 1728.0000 1.0000
24.6800 1667.0000 1.0000
24.6900 1636.0000 1.0000
24.7000 1642.0000 1.0000
24.7100 1587.0000 1.0000
24.7200 1652.0000 1.0000
24.7300 1679.0000 1.0000
24.7400 1705.0000 1.0000
24.7500 1626.0000 1.0000
24.7600 1608.0000 1.0000
24.7700 1676.0000 1.0000
24.7800 1653.0000 1.0000
24.7900 1655.0000 1.0000
24.8000 1597.0000 1.0000
24.8100 1615.0000 1.0000
24.8200 1664.0000 1.0000
24.8300 1679.0000 1.0000
24.8400 1616.0000 1.0000
24.8500 1660.0000 1.0000
24.8600 1687.0000 1.0000
24.8700 1717.0000 1.0000
24.8800 1690.0000 1.0000
24.8900 1642.0000 1.0000
24.9000 1676.0000 1.0000
24.9100 1665.0000 1.0000
24.9200 1721.0000 1.0000
24.9300 1702.0000 1.0000
24.9400 1619.0000 1.0000
24.9500 1649.0000 1.0000
24.9600 1646.0000 1.0000
24.9700 1633.0000 1.0000
24.9800 1707.0000 1.0000
24.9900 1652.0000 1.0000
25.0000 1676.0000 1.0000
25.0100 1674.0000 1.0000
25.0200 1644.0000 1.0000
25.0300 1707.0000 1.0000
25.0400 1722.0000 1.0000
25.0500 1677.0000 1.0000
25.0600 1777.0000 1.0000
25.0700 1690.0000 1.0000
25.0800 1753.0000 1.0000
25.0900 1739.0000 1.0000
25.1000 1677.0000 1.0000
25.1100 1687.0000 1.0000
25.1200 1686.0000 1.0000
25.1300 1666.0000 1.0000
25.1400 1673.0000 1.0000
25.1500 1651.0000 1.0000
25.1600 1694.0000 1.0000
25.1700 1737.0000 1.0000
25.1800 1722.0000 1.0000
25.1900 1614.0000 1.0000
25.2000 1693.0000 1.0000
25.2100 1667.0000 1.0000
25.2200 1647.0000 1.0000
25.2300 1581.0000 1.0000
25.2400 1686.0000 1.0000
25.2500 1659.0000 1.0000
25.2600 1680.0000 1.0000
25.2700 1712.0000 1.0000
25.2800 1609.0000 1.0000
25.2900 1614.0000 1.0000
25.3000 1624.0000 1.0000
25.3100 1679.0000 1.0000
25.3200 1632.0000 1.0000
25.3300 1617.0000 1.0000
25.3400 1651.0000 1.0000
25.3500 1657.0000 1.0000
25.3600 1613.0000 1.0000
25.3700 1648.0000 1.0000
25.3800 1665.0000 1.0000
25.3900 1633.0000 1.0000
25.4000 1704.0000 1.0000
25.4100 1589.0000 1.0000
25.4200 1630.0000 1.0000
25.4300 1668.0000 1.0000
25.4400 1641.0000 1.0000
25.4500 1656.0000 1.0000
25.4600 1669.0000 1.0000
25.4700 1623.0000 1.0000
25.4800 1620.0000 1.0000
25.4900 1639.0000 1.0000
25.5000 1704.0000 1.0000
25.5100 1583.0000 1.0000
25.5200 1682.0000 1.0000
25.5300 1655.0000 1.0000
25.5400 1731.0000 1.0000
25.5500 1689.0000 1.0000
25.5600 1732.0000 1.0000
25.5700 1683.0000 1.0000
25.5800 1578.0000 1.0000
25.5900 1678.0000 1.0000
25.6000 1651.0000 1.0000
25.6100 1637.0000 1.0000
25.6200 1666.0000 1.0000
25.6300 1664.0000 1.0000
25.6400 1638.0000 1.0000
25.6500 1610.0000 1.0000
25.6600 1675.0000 1.0000
25.6700 1624.0000 1.0000
25.6800 1585.0000 1.0000
25.6900 1626.0000 1.0000
25.7000 1700.0000 1.0000
25.7100 1661.0000 1.0000
25.7200 1621.0000 1.0000
25.7300 1644.0000 1.0000
25.7400 1623.0000 1.0000
25.7500 1682.0000 1.0000
25.7600 1624.0000 1.0000
25.7700 1634.0000 1.0000
25.7800 1585.0000 1.0000
25.7900 1646.0000 1.0000
25.8000 1660.0000 1.0000
25.8100 1640.0000 1.0000
25.8200 1580.0000 1.0000
25.8300 1638.0000 1.0000
25.8400 1648.0000 1.0000
25.8500 1561.0000 1.0000
25.8600 1635.0000 1.0000
25.8700 1687.0000 1.0000
25.8800 1742.0000 1.0000
25.8900 1680.0000 1.0000
25.9000 1613.0000 1.0000
25.9100 1678.0000 1.0000
25.9200 1640.0000 1.0000
25.9300 1612.0000 1.0000
25.9400 1672.0000 1.0000
25.9500 1618.0000 1.0000
25.9600 1668.0000 1.0000
25.9700 1675.0000 1.0000
25.9800 1663.0000 1.0000
25.9900 1694.0000 1.0000
26.0000 1721.0000 1.0000
26.0100 1692.0000 1.0000
26.0200 1663.0000 1.0000
26.0300 1710.0000 1.0000
26.0400 1648.0000 1.0000
26.0500 1624.0000 1.0000
26.0600 1612.0000 1.0000
26.0700 1659.0000 1.0000
26.0800 1618.0000 1.0000
26.0900 1680.0000 1.0000
26.1000 1674.0000 1.0000
26.1100 1744.0000 1.0000
26.1200 1717.0000 1.0000
26.1300 1690.0000 1.0000
26.1400 1671.0000 1.0000
26.1500 1599.0000 1.0000
26.1600 1694.0000 1.0000
26.1700 1715.0000 1.0000
26.1800 1701.0000 1.0000
26.1900 1668.0000 1.0000
26.2000 1669.0000 1.0000
26.2100 1638.0000 1.0000
26.2200 1631.0000 1.0000
26.2300 1624.0000 1.0000
26.2400 1644.0000 1.0000
26.2500 1702.0000 1.0000
26.2600 1682.0000 1.0000
26.2700 1657.0000 1.0000
26.2800 1671.0000 1.0000
26.2900 1669.0000 1.0000
26.3000 1722.0000 1.0000
26.3100 1678.0000 1.0000
26.3200 1741.0000 1.0000
26.3300 1732.0000 1.0000
26.3400 1669.0000 1.0000
26.3500 1664.0000 1.0000
26.3600 1707.0000 1.0000
26.3700 1721.0000 1.0000
26.3800 1682.0000 1.0000
26.3900 1714.0000 1.0000
26.4000 1681.0000 1.0000
26.4100 1763.0000 1.0000
26.4200 1749.0000 1.0000
26.4300 1713.0000 1.0000
26.4400 1677.0000 1.0000
26.4500 1771.0000 1.0000
26.4600 1765.0000 1.0000
26.4700 1724.0000 1.0000
26.4800 1728.0000 1.0000
26.4900 1737.0000 1.0000
26.5000 1744.0000 1.0000
26.5100 1753.0000 1.0000
26.5200 1734.0000 1.0000
26.5300 1741.0000 1.0000
26.5400 1811.0000 1.0000
26.5500 1753.0000 1.0000
26.5600 1788.0000 1.0000
26.5700 1771.0000 1.0000
26.5800 1764.0000 1.0000
26.5900 1815.0000 1.0000
26.6000 1800.0000 1.0000
26.6100 1796.0000 1.0000
26.6200 1797.0000 1.0000
26.6300 1793.0000 1.0000
26.6400 1756.0000 1.0000
26.6500 1822.0000 1.0000
26.6600 1831.0000 1.0000
26.6700 1860.0000 1.0000
26.6800 1762.0000 1.0000
26.6900 1839.0000 1.0000
26.7000 1853.0000 1.0000
26.7100 1788.0000 1.0000
26.7200 1796.0000 1.0000
26.7300 1763.0000 1.0000
26.7400 1909.0000 1.0000
26.7500 1944.0000 1.0000
26.7600 1912.0000 1.0000
26.7700 1841.0000 1.0000
26.7800 1825.0000 1.0000
26.7900 1906.0000 1.0000
26.8000 1943.0000 1.0000
26.8100 1903.0000 1.0000
26.8200 1966.0000 1.0000
26.8300 1959.0000 1.0000
26.8400 1843.0000 1.0000
26.8500 1914.0000 1.0000
26.8600 2071.0000 1.0000
26.8700 1972.0000 1.0000
26.8800 2000.0000 1.0000
26.8900 2123.0000 1.0000
26.9000 2056.0000 1.0000
26.9100 2092.0000 1.0000
26.9200 2100.0000 1.0000
26.9300 2140.0000 1.0000
26.9400 2194.0000 1.0000
26.9500 2244.0000 1.0000
26.9600 2285.0000 1.0000
26.9700 2329.0000 1.0000
26.9800 2407.0000 1.0000
26.9900 2352.0000 1.0000
27.0000 2421.0000 1.0000
27.0100 2381.0000 1.0000
27.0200 2550.0000 1.0000
27.0300 2715.0000 1.0000
27.0400 2734.0000 1.0000
27.0500 2782.0000 1.0000
27.0600 2789.0000 1.0000
27.0700 2952.0000 1.0000
27.0800 3060.0000 1.0000
27.0900 3147.0000 1.0000
27.1000 3267.0000 1.0000
27.1100 3398.0000 1.0000
27.1200 3591.0000 1.0000
27.1300 3720.0000 1.0000
27.1400 3999.0000 1.0000
27.1500 4126.0000 1.0000
27.1600 4392.0000 1.0000
27.1700 4588.0000 1.0000
27.1800 4864.0000 1.0000
27.1900 5127.0000 1.0000
27.2000 5433.0000 1.0000
27.2100 5755.0000 1.0000
27.2200 6097.0000 1.0000
27.2300 6459.0000 1.0000
27.2400 6457.0000 1.0000
27.2500 6805.0000 1.0000
27.2600 6856.0000 1.0000
27.2700 7057.0000 1.0000
27.2800 7054.0000 1.0000
27.2900 6919.0000 1.0000
27.3000 6779.0000 1.0000
27.3100 6507.0000 1.0000
27.3200 6347.0000 1.0000
27.3300 6165.0000 1.0000
27.3400 5949.0000 1.0000
27.3500 5611.0000 1.0000
27.3600 5411.0000 1.0000
27.3700 5140.0000 1.0000
27.3800 4964.0000 1.0000
27.3900 4623.0000 1.0000
27.4000 4350.0000 1.0000
27.4100 4139.0000 1.0000
27.4200 3925.0000 1.0000
27.4300 3670.0000 1.0000
27.4400 3632.0000 1.0000
27.4500 3361.0000 1.0000
27.4600 3203.0000 1.0000
27.4700 3124.0000 1.0000
27.4800 3065.0000 1.0000
27.4900 2933.0000 1.0000
27.5000 2831.0000 1.0000
27.5100 2721.0000 1.0000
27.5200 2764.0000 1.0000
27.5300 2549.0000 1.0000
27.5400 2415.0000 1.0000
27.5500 2423.0000 1.0000
27.5600 2375.0000 1.0000
27.5700 2338.0000 1.0000
27.5800 2353.0000 1.0000
27.5900 2358.0000 1.0000
27.6000 2230.0000 1.0000
27.6100 2167.0000 1.0000
27.6200 2144.0000 1.0000
27.6300 2155.0000 1.0000
27.6400 2140.0000 1.0000
27.6500 2125.0000 1.0000
27.6600 2077.0000 1.0000
27.6700 1935.0000 1.0000
27.6800 1963.0000 1.0000
27.6900 2015.0000 1.0000
27.7000 1978.0000 1.0000
27.7100 1991.0000 1.0000
27.7200 1999.0000 1.0000
27.7300 1935.0000 1.0000
27.7400 1869.0000 1.0000
27.7500 1857.0000 1.0000
27.7600 1919.0000 1.0000
27.7700 1855.0000 1.0000
27.7800 1897.0000 1.0000
27.7900 1862.0000 1.0000
27.8000 1892.0000 1.0000
27.8100 1852.0000 1.0000
27.8200 1855.0000 1.0000
27.8300 1807.0000 1.0000
27.8400 1796.0000 1.0000
27.8500 1809.0000 1.0000
27.8600 1773.0000 1.0000
27.8700 1830.0000 1.0000
27.8800 1785.0000 1.0000
27.8900 1734.0000 1.0000
27.9000 1829.0000 1.0000
27.9100 1719.0000 1.0000
27.9200 1765.0000 1.0000
27.9300 1809.0000 1.0000
27.9400 1718.0000 1.0000
27.9500 1765.0000 1.0000
27.9600 1777.0000 1.0000
27.9700 1772.0000 1.0000
27.9800 1768.0000 1.0000
27.9900 1695.0000 1.0000
28.0000 1696.0000 1.0000
28.0100 1698.0000 1.0000
28.0200 1696.0000 1.0000
28.0300 1694.0000 1.0000
28.0400 1686.0000 1.0000
28.0500 1694.0000 1.0000
28.0600 1731.0000 1.0000
28.0700 1711.0000 1.0000
28.0800 1689.0000 1.0000
28.0900 1723.0000 1.0000
28.1000 1643.0000 1.0000
28.1100 1669.0000 1.0000
28.1200 1699.0000 1.0000
28.1300 1710.0000 1.0000
28.1400 1675.0000 1.0000
28.1500 1607.0000 1.0000
28.1600 1653.0000 1.0000
28.1700 1688.0000 1.0000
28.1800 1636.0000 1.0000
28.1900 1658.0000 1.0000
28.2000 1673.0000 1.0000
28.2100 1621.0000 1.0000
28.2200 1689.0000 1.0000
28.2300 1650.0000 1.0000
28.2400 1658.0000 1.0000
28.2500 1665.0000 1.0000
28.2600 1623.0000 1.0000
28.2700 1619.0000 1.0000
28.2800 1634.0000 1.0000
28.2900 1624.0000 1.0000
28.3000 1676.0000 1.0000
28.3100 1624.0000 1.0000
28.3200 1678.0000 1.0000
28.3300 1631.0000 1.0000
28.3400 1634.0000 1.0000
28.3500 1691.0000 1.0000
28.3600 1637.0000 1.0000
28.3700 1653.0000 1.0000
28.3800 1635.0000 1.0000
28.3900 1612.0000 1.0000
28.4000 1619.0000 1.0000
28.4100 1618.0000 1.0000
28.4200 1567.0000 1.0000
28.4300 1589.0000 1.0000
28.4400 1634.0000 1.0000
28.4500 1715.0000 1.0000
28.4600 1636.0000 1.0000
28.4700 1630.0000 1.0000
28.4800 1669.0000 1.0000
28.4900 1683.0000 1.0000
28.5000 1605.0000 1.0000
28.5100 1596.0000 1.0000
28.5200 1585.0000 1.0000
28.5300 1625.0000 1.0000
28.5400 1566.0000 1.0000
28.5500 1579.0000 1.0000
28.5600 1575.0000 1.0000
28.5700 1586.0000 1.0000
28.5800 1516.0000 1.0000
28.5900 1575.0000 1.0000
28.6000 1614.0000 1.0000
28.6100 1578.0000 1.0000
28.6200 1598.0000 1.0000
28.6300 1600.0000 1.0000
28.6400 1534.0000 1.0000
28.6500 1580.0000 1.0000
28.6600 1516.0000 1.0000
28.6700 1593.0000 1.0000
28.6800 1596.0000 1.0000
28.6900 1594.0000 1.0000
28.7000 1531.0000 1.0000
28.7100 1543.0000 1.0000
28.7200 1566.0000 1.0000
28.7300 1570.0000 1.0000
28.7400 1635.0000 1.0000
28.7500 1556.0000 1.0000
28.7600 1579.0000 1.0000
28.7700 1573.0000 1.0000
28.7800 1616.0000 1.0000
28.7900 1555.0000 1.0000
28.8000 1594.0000 1.0000
28.8100 1602.0000 1.0000
28.8200 1604.0000 1.0000
28.8300 1631.0000 1.0000
28.8400 1602.0000 1.0000
28.8500 1586.0000 1.0000
28.8600 1575.0000 1.0000
28.8700 1490.0000 1.0000
28.8800 1619.0000 1.0000
28.8900 1569.0000 1.0000
28.9000 1554.0000 1.0000
28.9100 1562.0000 1.0000
28.9200 1596.0000 1.0000
28.9300 1570.0000 1.0000
28.9400 1630.0000 1.0000
28.9500 1548.0000 1.0000
28.9600 1475.0000 1.0000
28.9700 1593.0000 1.0000
28.9800 1583.0000 1.0000
28.9900 1596.0000 1.0000
29.0000 1588.0000 1.0000
29.0100 1571.0000 1.0000
29.0200 1577.0000 1.0000
29.0300 1594.0000 1.0000
29.0400 1539.0000 1.0000
29.0500 1552.0000 1.0000
29.0600 1524.0000 1.0000
29.0700 1581.0000 1.0000
29.0800 1604.0000 1.0000
29.0900 1587.0000 1.0000
29.1000 1569.0000 1.0000
29.1100 1569.0000 1.0000
29.1200 1606.0000 1.0000
29.1300 1614.0000 1.0000
29.1400 1518.0000 1.0000
29.1500 1574.0000 1.0000
29.1600 1553.0000 1.0000
29.1700 1561.0000 1.0000
29.1800 1590.0000 1.0000
29.1900 1606.0000 1.0000
29.2000 1589.0000 1.0000
29.2100 1524.0000 1.0000
29.2200 1534.0000 1.0000
29.2300 1570.0000 1.0000
29.2400 1482.0000 1.0000
29.2500 1570.0000 1.0000
29.2600 1534.0000 1.0000
29.2700 1563.0000 1.0000
29.2800 1520.0000 1.0000
29.2900 1545.0000 1.0000
29.3000 1540.0000 1.0000
29.3100 1535.0000 1.0000
29.3200 1540.0000 1.0000
29.3300 1553.0000 1.0000
29.3400 1479.0000 1.0000
29.3500 1536.0000 1.0000
29.3600 1491.0000 1.0000
29.3700 1561.0000 1.0000
29.3800 1648.0000 1.0000
29.3900 1533.0000 1.0000
29.4000 1541.0000 1.0000
29.4100 1575.0000 1.0000
29.4200 1538.0000 1.0000
29.4300 1538.0000 1.0000
29.4400 1541.0000 1.0000
29.4500 1557.0000 1.0000
29.4600 1566.0000 1.0000
29.4700 1568.0000 1.0000
29.4800 1578.0000 1.0000
29.4900 1475.0000 1.0000
29.5000 1518.0000 1.0000
29.5100 1580.0000 1.0000
29.5200 1579.0000 1.0000
29.5300 1569.0000 1.0000
29.5400 1480.0000 1.0000
29.5500 1532.0000 1.0000
29.5600 1631.0000 1.0000
29.5700 1547.0000 1.0000
29.5800 1515.0000 1.0000
29.5900 1476.0000 1.0000
29.6000 1496.0000 1.0000
29.6100 1518.0000 1.0000
29.6200 1503.0000 1.0000
29.6300 1538.0000 1.0000
29.6400 1518.0000 1.0000
29.6500 1517.0000 1.0000
29.6600 1467.0000 1.0000
29.6700 1490.0000 1.0000
29.6800 1542.0000 1.0000
29.6900 1537.0000 1.0000
29.7000 1612.0000 1.0000
29.7100 1523.0000 1.0000
29.7200 1550.0000 1.0000
29.7300 1482.0000 1.0000
29.7400 1512.0000 1.0000
29.7500 1505.0000 1.0000
29.7600 1515.0000 1.0000
29.7700 1474.0000 1.0000
29.7800 1520.0000 1.0000
29.7900 1480.0000 1.0000
29.8000 1555.0000 1.0000
29.8100 1467.0000 1.0000
29.8200 1524.0000 1.0000
29.8300 1526.0000 1.0000
29.8400 1442.0000 1.0000
29.8500 1510.0000 1.0000
29.8600 1493.0000 1.0000
29.8700 1484.0000 1.0000
29.8800 1493.0000 1.0000
29.8900 1450.0000 1.0000
29.9000 1456.0000 1.0000
29.9100 1487.0000 1.0000
29.9200 1540.0000 1.0000
29.9300 1517.0000 1.0000
29.9400 1489.0000 1.0000
29.9500 1531.0000 1.0000
29.9600 1505.0000 1.0000
29.9700 1459.0000 1.0000
29.9800 1508.0000 1.0000
29.9900 1497.0000 1.0000
30.0000 1495.0000 1.0000
30.0100 1562.0000 1.0000
30.0200 1546.0000 1.0000
30.0300 1490.0000 1.0000
30.0400 1533.0000 1.0000
30.0500 1466.0000 1.0000
30.0600 1532.0000 1.0000
30.0700 1505.0000 1.0000
30.0800 1496.0000 1.0000
30.0900 1475.0000 1.0000
30.1000 1444.0000 1.0000
30.1100 1466.0000 1.0000
30.1200 1470.0000 1.0000
30.1300 1509.0000 1.0000
30.1400 1503.0000 1.0000
30.1500 1504.0000 1.0000
30.1600 1484.0000 1.0000
30.1700 1477.0000 1.0000
30.1800 1513.0000 1.0000
30.1900 1491.0000 1.0000
30.2000 1457.0000 1.0000
30.2100 1527.0000 1.0000
30.2200 1463.0000 1.0000
30.2300 1476.0000 1.0000
30.2400 1477.0000 1.0000
30.2500 1441.0000 1.0000
30.2600 1519.0000 1.0000
30.2700 1491.0000 1.0000
30.2800 1488.0000 1.0000
30.2900 1473.0000 1.0000
30.3000 1495.0000 1.0000
30.3100 1472.0000 1.0000
30.3200 1446.0000 1.0000
30.3300 1519.0000 1.0000
30.3400 1525.0000 1.0000
30.3500 1430.0000 1.0000
30.3600 1466.0000 1.0000
30.3700 1410.0000 1.0000
30.3800 1507.0000 1.0000
30.3900 1463.0000 1.0000
30.4000 1400.0000 1.0000
30.4100 1393.0000 1.0000
30.4200 1441.0000 1.0000
30.4300 1451.0000 1.0000
30.4400 1469.0000 1.0000
30.4500 1447.0000 1.0000
30.4600 1423.0000 1.0000
30.4700 1411.0000 1.0000
30.4800 1447.0000 1.0000
30.4900 1493.0000 1.0000
30.5000 1407.0000 1.0000
30.5100 1476.0000 1.0000
30.5200 1440.0000 1.0000
30.5300 1469.0000 1.0000
30.5400 1506.0000 1.0000
30.5500 1461.0000 1.0000
30.5600 1428.0000 1.0000
30.5700 1462.0000 1.0000
30.5800 1428.0000 1.0000
30.5900 1529.0000 1.0000
30.6000 1473.0000 1.0000
30.6100 1482.0000 1.0000
30.6200 1435.0000 1.0000
30.6300 1476.0000 1.0000
30.6400 1439.0000 1.0000
30.6500 1477.0000 1.0000
30.6600 1444.0000 1.0000
30.6700 1470.0000 1.0000
30.6800 1520.0000 1.0000
30.6900 1479.0000 1.0000
30.7000 1454.0000 1.0000
30.7100 1491.0000 1.0000
30.7200 1466.0000 1.0000
30.7300 1458.0000 1.0000
30.7400 1443.0000 1.0000
30.7500 1443.0000 1.0000
30.7600 1479.0000 1.0000
30.7700 1443.0000 1.0000
30.7800 1394.0000 1.0000
30.7900 1437.0000 1.0000
30.8000 1491.0000 1.0000
30.8100 1493.0000 1.0000
30.8200 1385.0000 1.0000
30.8300 1432.0000 1.0000
30.8400 1536.0000 1.0000
30.8500 1486.0000 1.0000
30.8600 1415.0000 1.0000
30.8700 1478.0000 1.0000
30.8800 1445.0000 1.0000
30.8900 1393.0000 1.0000
30.9000 1403.0000 1.0000
30.9100 1406.0000 1.0000
30.9200 1434.0000 1.0000
30.9300 1456.0000 1.0000
30.9400 1402.0000 1.0000
30.9500 1429.0000 1.0000
30.9600 1430.0000 1.0000
30.9700 1410.0000 1.0000
30.9800 1419.0000 1.0000
30.9900 1454.0000 1.0000
31.0000 1495.0000 1.0000
31.0100 1407.0000 1.0000
31.0200 1458.0000 1.0000
31.0300 1428.0000 1.0000
31.0400 1497.0000 1.0000
31.0500 1448.0000 1.0000
31.0600 1374.0000 1.0000
31.0700 1441.0000 1.0000
31.0800 1397.0000 1.0000
31.0900 1423.0000 1.0000
31.1000 1437.0000 1.0000
31.1100 1390.0000 1.0000
31.1200 1503.0000 1.0000
31.1300 1452.0000 1.0000
31.1400 1399.0000 1.0000
31.1500 1427.0000 1.0000
31.1600 1435.0000 1.0000
31.1700 1466.0000 1.0000
31.1800 1478.0000 1.0000
31.1900 1400.0000 1.0000
31.2000 1434.0000 1.0000
31.2100 1435.0000 1.0000
31.2200 1434.0000 1.0000
31.2300 1405.0000 1.0000
31.2400 1412.0000 1.0000
31.2500 1447.0000 1.0000
31.2600 1484.0000 1.0000
31.2700 1405.0000 1.0000
31.2800 1419.0000 1.0000
31.2900 1364.0000 1.0000
31.3000 1390.0000 1.0000
31.3100 1418.0000 1.0000
31.3200 1377.0000 1.0000
31.3300 1442.0000 1.0000
31.3400 1364.0000 1.0000
31.3500 1382.0000 1.0000
31.3600 1368.0000 1.0000
31.3700 1402.0000 1.0000
31.3800 1429.0000 1.0000
31.3900 1421.0000 1.0000
31.4000 1409.0000 1.0000
31.4100 1337.0000 1.0000
31.4200 1419.0000 1.0000
31.4300 1426.0000 1.0000
31.4400 1417.0000 1.0000
31.4500 1410.0000 1.0000
31.4600 1363.0000 1.0000
31.4700 1377.0000 1.0000
31.4800 1398.0000 1.0000
31.4900 1411.0000 1.0000
31.5000 1430.0000 1.0000
31.5100 1432.0000 1.0000
31.5200 1409.0000 1.0000
31.5300 1411.0000 1.0000
31.5400 1414.0000 1.0000
31.5500 1389.0000 1.0000
31.5600 1421.0000 1.0000
31.5700 1405.0000 1.0000
31.5800 1475.0000 1.0000
31.5900 1452.0000 1.0000
31.6000 1387.0000 1.0000
31.6100 1387.0000 1.0000
31.6200 1380.0000 1.0000
31.6300 1389.0000 1.0000
31.6400 1389.0000 1.0000
31.6500 1439.0000 1.0000
31.6600 1394.0000 1.0000
31.6700 1466.0000 1.0000
31.6800 1431.0000 1.0000
31.6900 1401.0000 1.0000
31.7000 1419.0000 1.0000
31.7100 1402.0000 1.0000
31.7200 1368.0000 1.0000
31.7300 1345.0000 1.0000
31.7400 1447.0000 1.0000
31.7500 1400.0000 1.0000
31.7600 1441.0000 1.0000
31.7700 1366.0000 1.0000
31.7800 1387.0000 1.0000
31.7900 1421.0000 1.0000
31.8000 1414.0000 1.0000
31.8100 1399.0000 1.0000
31.8200 1408.0000 1.0000
31.8300 1404.0000 1.0000
31.8400 1434.0000 1.0000
31.8500 1423.0000 1.0000
31.8600 1418.0000 1.0000
31.8700 1361.0000 1.0000
31.8800 1434.0000 1.0000
31.8900 1505.0000 1.0000
31.9000 1458.0000 1.0000
31.9100 1416.0000 1.0000
31.9200 1448.0000 1.0000
31.9300 1445.0000 1.0000
31.9400 1463.0000 1.0000
31.9500 1427.0000 1.0000
31.9600 1418.0000 1.0000
31.9700 1431.0000 1.0000
31.9800 1523.0000 1.0000
31.9900 1466.0000 1.0000
32.0000 1461.0000 1.0000
32.0100 1411.0000 1.0000
32.0200 1413.0000 1.0000
32.0300 1403.0000 1.0000
32.0400 1417.0000 1.0000
32.0500 1463.0000 1.0000
32.0600 1377.0000 1.0000
32.0700 1416.0000 1.0000
32.0800 1429.0000 1.0000
32.0900 1431.0000 1.0000
32.1000 1408.0000 1.0000
32.1100 1402.0000 1.0000
32.1200 1446.0000 1.0000
32.1300 1403.0000 1.0000
32.1400 1377.0000 1.0000
32.1500 1318.0000 1.0000
32.1600 1396.0000 1.0000
32.1700 1350.0000 1.0000
32.1800 1359.0000 1.0000
32.1900 1451.0000 1.0000
32.2000 1379.0000 1.0000
32.2100 1439.0000 1.0000
32.2200 1349.0000 1.0000
32.2300 1393.0000 1.0000
32.2400 1401.0000 1.0000
32.2500 1390.0000 1.0000
32.2600 1424.0000 1.0000
32.2700 1434.0000 1.0000
32.2800 1313.0000 1.0000
32.2900 1364.0000 1.0000
32.3000 1381.0000 1.0000
32.3100 1453.0000 1.0000
32.3200 1359.0000 1.0000
32.3300 1375.0000 1.0000
32.3400 1360.0000 1.0000
32.3500 1325.0000 1.0000
32.3600 1363.0000 1.0000
32.3700 1367.0000 1.0000
32.3800 1351.0000 1.0000
32.3900 1355.0000 1.0000
32.4000 1349.0000 1.0000
32.4100 1384.0000 1.0000
32.4200 1320.0000 1.0000
32.4300 1363.0000 1.0000
32.4400 1377.0000 1.0000
32.4500 1369.0000 1.0000
32.4600 1349.0000 1.0000
32.4700 1337.0000 1.0000
32.4800 1378.0000 1.0000
32.4900 1382.0000 1.0000
32.5000 1289.0000 1.0000
32.5100 1361.0000 1.0000
32.5200 1322.0000 1.0000
32.5300 1340.0000 1.0000
32.5400 1349.0000 1.0000
32.5500 1325.0000 1.0000
32.5600 1340.0000 1.0000
32.5700 1289.0000 1.0000
32.5800 1373.0000 1.0000
32.5900 1349.0000 1.0000
32.6000 1393.0000 1.0000
32.6100 1325.0000 1.0000
32.6200 1379.0000 1.0000
32.6300 1320.0000 1.0000
32.6400 1349.0000 1.0000
32.6500 1398.0000 1.0000
32.6600 1371.0000 1.0000
32.6700 1362.0000 1.0000
32.6800 1312.0000 1.0000
32.6900 1371.0000 1.0000
32.7000 1328.0000 1.0000
32.7100 1333.0000 1.0000
32.7200 1341.0000 1.0000
32.7300 1388.0000 1.0000
32.7400 1326.0000 1.0000
32.7500 1338.0000 1.0000
32.7600 1360.0000 1.0000
32.7700 1364.0000 1.0000
32.7800 1331.0000 1.0000
32.7900 1348.0000 1.0000
32.8000 1358.0000 1.0000
32.8100 1397.0000 1.0000
32.8200 1373.0000 1.0000
32.8300 1330.0000 1.0000
32.8400 1308.0000 1.0000
32.8500 1359.0000 1.0000
32.8600 1334.0000 1.0000
32.8700 1325.0000 1.0000
32.8800 1319.0000 1.0000
32.8900 1317.0000 1.0000
32.9000 1284.0000 1.0000
32.9100 1323.0000 1.0000
32.9200 1366.0000 1.0000
32.9300 1273.0000 1.0000
32.9400 1271.0000 1.0000
32.9500 1278.0000 1.0000
32.9600 1343.0000 1.0000
32.9700 1391.0000 1.0000
32.9800 1363.0000 1.0000
32.9900 1312.0000 1.0000
33.0000 1286.0000 1.0000
33.0100 1301.0000 1.0000
33.0200 1290.0000 1.0000
33.0300 1320.0000 1.0000
33.0400 1358.0000 1.0000
33.0500 1352.0000 1.0000
33.0600 1287.0000 1.0000
33.0700 1306.0000 1.0000
33.0800 1278.0000 1.0000
33.0900 1307.0000 1.0000
33.1000 1331.0000 1.0000
33.1100 1333.0000 1.0000
33.1200 1340.0000 1.0000
33.1300 1357.0000 1.0000
33.1400 1342.0000 1.0000
33.1500 1289.0000 1.0000
33.1600 1301.0000 1.0000
33.1700 1323.0000 1.0000
33.1800 1266.0000 1.0000
33.1900 1334.0000 1.0000
33.2000 1321.0000 1.0000
33.2100 1327.0000 1.0000
33.2200 1358.0000 1.0000
33.2300 1294.0000 1.0000
33.2400 1284.0000 1.0000
33.2500 1253.0000 1.0000
33.2600 1247.0000 1.0000
33.2700 1290.0000 1.0000
33.2800 1340.0000 1.0000
33.2900 1298.0000 1.0000
33.3000 1355.0000 1.0000
33.3100 1351.0000 1.0000
33.3200 1375.0000 1.0000
33.3300 1370.0000 1.0000
33.3400 1363.0000 1.0000
33.3500 1332.0000 1.0000
33.3600 1373.0000 1.0000
33.3700 1302.0000 1.0000
33.3800 1309.0000 1.0000
33.3900 1315.0000 1.0000
33.4000 1274.0000 1.0000
33.4100 1331.0000 1.0000
33.4200 1324.0000 1.0000
33.4300 1336.0000 1.0000
33.4400 1296.0000 1.0000
33.4500 1342.0000 1.0000
33.4600 1332.0000 1.0000
33.4700 1308.0000 1.0000
33.4800 1312.0000 1.0000
33.4900 1292.0000 1.0000
33.5000 1391.0000 1.0000
33.5100 1291.0000 1.0000
33.5200 1317.0000 1.0000
33.5300 1338.0000 1.0000
33.5400 1352.0000 1.0000
33.5500 1335.0000 1.0000
33.5600 1317.0000 1.0000
33.5700 1366.0000 1.0000
33.5800 1417.0000 1.0000
33.5900 1310.0000 1.0000
33.6000 1392.0000 1.0000
33.6100 1342.0000 1.0000
33.6200 1324.0000 1.0000
33.6300 1311.0000 1.0000
33.6400 1292.0000 1.0000
33.6500 1355.0000 1.0000
33.6600 1336.0000 1.0000
33.6700 1322.0000 1.0000
33.6800 1345.0000 1.0000
33.6900 1423.0000 1.0000
33.7000 1312.0000 1.0000
33.7100 1394.0000 1.0000
33.7200 1384.0000 1.0000
33.7300 1310.0000 1.0000
33.7400 1341.0000 1.0000
33.7500 1381.0000 1.0000
33.7600 1448.0000 1.0000
33.7700 1374.0000 1.0000
33.7800 1372.0000 1.0000
33.7900 1422.0000 1.0000
33.8000 1472.0000 1.0000
33.8100 1449.0000 1.0000
33.8200 1451.0000 1.0000
33.8300 1515.0000 1.0000
33.8400 1456.0000 1.0000
33.8500 1500.0000 1.0000
33.8600 1475.0000 1.0000
33.8700 1490.0000 1.0000
33.8800 1490.0000 1.0000
33.8900 1557.0000 1.0000
33.9000 1519.0000 1.0000
33.9100 1530.0000 1.0000
33.9200 1503.0000 1.0000
33.9300 1550.0000 1.0000
33.9400 1511.0000 1.0000
33.9500 1545.0000 1.0000
33.9600 1558.0000 1.0000
33.9700 1442.0000 1.0000
33.9800 1459.0000 1.0000
33.9900 1506.0000 1.0000
34.0000 1547.0000 1.0000
34.0100 1551.0000 1.0000
34.0200 1560.0000 1.0000
34.0300 1514.0000 1.0000
34.0400 1465.0000 1.0000
34.0500 1465.0000 1.0000
34.0600 1509.0000 1.0000
34.0700 1538.0000 1.0000
34.0800 1461.0000 1.0000
34.0900 1500.0000 1.0000
34.1000 1498.0000 1.0000
34.1100 1461.0000 1.0000
34.1200 1508.0000 1.0000
34.1300 1459.0000 1.0000
34.1400 1467.0000 1.0000
34.1500 1488.0000 1.0000
34.1600 1496.0000 1.0000
34.1700 1525.0000 1.0000
34.1800 1567.0000 1.0000
34.1900 1594.0000 1.0000
34.2000 1632.0000 1.0000
34.2100 1603.0000 1.0000
34.2200 1604.0000 1.0000
34.2300 1583.0000 1.0000
34.2400 1707.0000 1.0000
34.2500 1713.0000 1.0000
34.2600 1812.0000 1.0000
34.2700 1724.0000 1.0000
34.2800 1883.0000 1.0000
34.2900 1822.0000 1.0000
34.3000 1828.0000 1.0000
34.3100 1985.0000 1.0000
34.3200 1967.0000 1.0000
34.3300 2071.0000 1.0000
34.3400 2179.0000 1.0000
34.3500 2304.0000 1.0000
34.3600 2367.0000 1.0000
34.3700 2402.0000 1.0000
34.3800 2523.0000 1.0000
34.3900 2584.0000 1.0000
34.4000 2688.0000 1.0000
34.4100 2811.0000 1.0000
34.4200 2852.0000 1.0000
34.4300 2900.0000 1.0000
34.4400 2935.0000 1.0000
34.4500 2969.0000 1.0000
34.4600 3035.0000 1.0000
34.4700 3017.0000 1.0000
34.4800 2922.0000 1.0000
34.4900 3003.0000 1.0000
34.5000 3005.0000 1.0000
34.5100 2865.0000 1.0000
34.5200 2881.0000 1.0000
34.5300 2822.0000 1.0000
34.5400 2704.0000 1.0000
34.5500 2614.0000 1.0000
34.5600 2473.0000 1.0000
34.5700 2514.0000 1.0000
34.5800 2363.0000 1.0000
34.5900 2341.0000 1.0000
34.6000 2178.0000 1.0000
34.6100 2128.0000 1.0000
34.6200 2113.0000 1.0000
34.6300 2015.0000 1.0000
34.6400 2016.0000 1.0000
34.6500 1904.0000 1.0000
34.6600 1850.0000 1.0000
34.6700 1839.0000 1.0000
34.6800 1740.0000 1.0000
34.6900 1690.0000 1.0000
34.7000 1709.0000 1.0000
34.7100 1674.0000 1.0000
34.7200 1708.0000 1.0000
34.7300 1632.0000 1.0000
34.7400 1691.0000 1.0000
34.7500 1600.0000 1.0000
34.7600 1615.0000 1.0000
34.7700 1561.0000 1.0000
34.7800 1533.0000 1.0000
34.7900 1546.0000 1.0000
34.8000 1427.0000 1.0000
34.8100 1390.0000 1.0000
34.8200 1489.0000 1.0000
34.8300 1446.0000 1.0000
34.8400 1422.0000 1.0000
34.8500 1429.0000 1.0000
34.8600 1420.0000 1.0000
34.8700 1367.0000 1.0000
34.8800 1353.0000 1.0000
34.8900 1361.0000 1.0000
34.9000 1323.0000 1.0000
34.9100 1360.0000 1.0000
34.9200 1285.0000 1.0000
34.9300 1271.0000 1.0000
34.9400 1332.0000 1.0000
34.9500 1254.0000 1.0000
34.9600 1294.0000 1.0000
34.9700 1263.0000 1.0000
34.9800 1358.0000 1.0000
34.9900 1325.0000 1.0000
35.0000 1251.0000 1.0000
35.0100 1292.0000 1.0000
35.0200 1276.0000 1.0000
35.0300 1299.0000 1.0000
35.0400 1264.0000 1.0000
35.0500 1248.0000 1.0000
35.0600 1219.0000 1.0000
35.0700 1251.0000 1.0000
35.0800 1205.0000 1.0000
35.0900 1193.0000 1.0000
35.1000 1205.0000 1.0000
35.1100 1217.0000 1.0000
35.1200 1262.0000 1.0000
35.1300 1237.0000 1.0000
35.1400 1230.0000 1.0000
35.1500 1177.0000 1.0000
35.1600 1166.0000 1.0000
35.1700 1181.0000 1.0000
35.1800 1195.0000 1.0000
35.1900 1255.0000 1.0000
35.2000 1179.0000 1.0000
35.2100 1238.0000 1.0000
35.2200 1216.0000 1.0000
35.2300 1226.0000 1.0000
35.2400 1194.0000 1.0000
35.2500 1211.0000 1.0000
35.2600 1126.0000 1.0000
35.2700 1181.0000 1.0000
35.2800 1185.0000 1.0000
35.2900 1187.0000 1.0000
35.3000 1195.0000 1.0000
35.3100 1181.0000 1.0000
35.3200 1178.0000 1.0000
35.3300 1162.0000 1.0000
35.3400 1152.0000 1.0000
35.3500 1179.0000 1.0000
35.3600 1194.0000 1.0000
35.3700 1217.0000 1.0000
35.3800 1158.0000 1.0000
35.3900 1155.0000 1.0000
35.4000 1125.0000 1.0000
35.4100 1176.0000 1.0000
35.4200 1142.0000 1.0000
35.4300 1145.0000 1.0000
35.4400 1144.0000 1.0000
35.4500 1182.0000 1.0000
35.4600 1154.0000 1.0000
35.4700 1187.0000 1.0000
35.4800 1136.0000 1.0000
35.4900 1136.0000 1.0000
35.5000 1149.0000 1.0000
35.5100 1143.0000 1.0000
35.5200 1092.0000 1.0000
35.5300 1149.0000 1.0000
35.5400 1119.0000 1.0000
35.5500 1134.0000 1.0000
35.5600 1188.0000 1.0000
35.5700 1124.0000 1.0000
35.5800 1124.0000 1.0000
35.5900 1154.0000 1.0000
35.6000 1149.0000 1.0000
35.6100 1139.0000 1.0000
35.6200 1133.0000 1.0000
35.6300 1136.0000 1.0000
35.6400 1151.0000 1.0000
35.6500 1129.0000 1.0000
35.6600 1178.0000 1.0000
35.6700 1160.0000 1.0000
35.6800 1135.0000 1.0000
35.6900 1106.0000 1.0000
35.7000 1148.0000 1.0000
35.7100 1149.0000 1.0000
35.7200 1158.0000 1.0000
35.7300 1161.0000 1.0000
35.7400 1122.0000 1.0000
35.7500 1158.0000 1.0000
35.7600 1143.0000 1.0000
35.7700 1067.0000 1.0000
35.7800 1125.0000 1.0000
35.7900 1121.0000 1.0000
35.8000 1181.0000 1.0000
35.8100 1179.0000 1.0000
35.8200 1169.0000 1.0000
35.8300 1116.0000 1.0000
35.8400 1100.0000 1.0000
35.8500 1140.0000 1.0000
35.8600 1111.0000 1.0000
35.8700 1131.0000 1.0000
35.8800 1148.0000 1.0000
35.8900 1136.0000 1.0000
35.9000 1146.0000 1.0000
35.9100 1084.0000 1.0000
35.9200 1138.0000 1.0000
35.9300 1135.0000 1.0000
35.9400 1116.0000 1.0000
35.9500 1193.0000 1.0000
35.9600 1136.0000 1.0000
35.9700 1042.0000 1.0000
35.9800 1061.0000 1.0000
35.9900 1116.0000 1.0000
36.0000 1138.0000 1.0000
36.0100 1192.0000 1.0000
36.0200 1130.0000 1.0000
36.0300 1126.0000 1.0000
36.0400 1158.0000 1.0000
36.0500 1131.0000 1.0000
36.0600 1099.0000 1.0000
36.0700 1131.0000 1.0000
36.0800 1160.0000 1.0000
36.0900 1156.0000 1.0000
36.1000 1142.0000 1.0000
36.1100 1118.0000 1.0000
36.1200 1189.0000 1.0000
36.1300 1117.0000 1.0000
36.1400 1146.0000 1.0000
36.1500 1217.0000 1.0000
36.1600 1264.0000 1.0000
36.1700 1183.0000 1.0000
36.1800 1212.0000 1.0000
36.1900 1207.0000 1.0000
36.2000 1214.0000 1.0000
36.2100 1179.0000 1.0000
36.2200 1286.0000 1.0000
36.2300 1229.0000 1.0000
36.2400 1244.0000 1.0000
36.2500 1281.0000 1.0000
36.2600 1318.0000 1.0000
36.2700 1393.0000 1.0000
36.2800 1349.0000 1.0000
36.2900 1411.0000 1.0000
36.3000 1396.0000 1.0000
36.3100 1396.0000 1.0000
36.3200 1467.0000 1.0000
36.3300 1486.0000 1.0000
36.3400 1470.0000 1.0000
36.3500 1571.0000 1.0000
36.3600 1466.0000 1.0000
36.3700 1475.0000 1.0000
36.3800 1525.0000 1.0000
36.3900 1512.0000 1.0000
36.4000 1494.0000 1.0000
36.4100 1497.0000 1.0000
36.4200 1559.0000 1.0000
36.4300 1523.0000 1.0000
36.4400 1512.0000 1.0000
36.4500 1426.0000 1.0000
36.4600 1428.0000 1.0000
36.4700 1372.0000 1.0000
36.4800 1399.0000 1.0000
36.4900 1354.0000 1.0000
36.5000 1326.0000 1.0000
36.5100 1341.0000 1.0000
36.5200 1292.0000 1.0000
36.5300 1284.0000 1.0000
36.5400 1257.0000 1.0000
36.5500 1217.0000 1.0000
36.5600 1271.0000 1.0000
36.5700 1213.0000 1.0000
36.5800 1208.0000 1.0000
36.5900 1211.0000 1.0000
36.6000 1195.0000 1.0000
36.6100 1138.0000 1.0000
36.6200 1144.0000 1.0000
36.6300 1117.0000 1.0000
36.6400 1157.0000 1.0000
36.6500 1122.0000 1.0000
36.6600 1118.0000 1.0000
36.6700 1084.0000 1.0000
36.6800 1119.0000 1.0000
36.6900 1118.0000 1.0000
36.7000 1106.0000 1.0000
36.7100 1142.0000 1.0000
36.7200 1117.0000 1.0000
36.7300 1109.0000 1.0000
36.7400 1092.0000 1.0000
36.7500 1079.0000 1.0000
36.7600 1070.0000 1.0000
36.7700 1047.0000 1.0000
36.7800 1040.0000 1.0000
36.7900 1068.0000 1.0000
36.8000 1043.0000 1.0000
36.8100 1080.0000 1.0000
36.8200 1084.0000 1.0000
36.8300 1048.0000 1.0000
36.8400 1050.0000 1.0000
36.8500 1037.0000 1.0000
36.8600 1055.0000 1.0000
36.8700 1060.0000 1.0000
36.8800 1033.0000 1.0000
36.8900 1025.0000 1.0000
36.9000 1031.0000 1.0000
36.9100 1081.0000 1.0000
36.9200 1002.0000 1.0000
36.9300 999.0000 1.0000
36.9400 993.0000 1.0000
36.9500 1075.0000 1.0000
36.9600 1024.0000 1.0000
36.9700 1082.0000 1.0000
36.9800 1038.0000 1.0000
36.9900 1066.0000 1.0000
37.0000 1046.0000 1.0000
37.0100 985.0000 1.0000
37.0200 1077.0000 1.0000
37.0300 1046.0000 1.0000
37.0400 1040.0000 1.0000
37.0500 1078.0000 1.0000
37.0600 1035.0000 1.0000
37.0700 1029.0000 1.0000
37.0800 1004.0000 1.0000
37.0900 1016.0000 1.0000
37.1000 1038.0000 1.0000
37.1100 1043.0000 1.0000
37.1200 988.0000 1.0000
37.1300 1020.0000 1.0000
37.1400 985.0000 1.0000
37.1500 1058.0000 1.0000
37.1600 1054.0000 1.0000
37.1700 1021.0000 1.0000
37.1800 1035.0000 1.0000
37.1900 990.0000 1.0000
37.2000 1032.0000 1.0000
37.2100 1018.0000 1.0000
37.2200 1010.0000 1.0000
37.2300 1045.0000 1.0000
37.2400 1038.0000 1.0000
37.2500 1072.0000 1.0000
37.2600 1063.0000 1.0000
37.2700 1050.0000 1.0000
37.2800 1024.0000 1.0000
37.2900 1037.0000 1.0000
37.3000 1069.0000 1.0000
37.3100 1061.0000 1.0000
37.3200 1072.0000 1.0000
37.3300 1062.0000 1.0000
37.3400 1057.0000 1.0000
37.3500 1033.0000 1.0000
37.3600 1013.0000 1.0000
37.3700 1047.0000 1.0000
37.3800 1029.0000 1.0000
37.3900 1123.0000 1.0000
37.4000 1091.0000 1.0000
37.4100 1046.0000 1.0000
37.4200 1015.0000 1.0000
37.4300 1005.0000 1.0000
37.4400 1013.0000 1.0000
37.4500 996.0000 1.0000
37.4600 1062.0000 1.0000
37.4700 1096.0000 1.0000
37.4800 1044.0000 1.0000
37.4900 1031.0000 1.0000
37.5000 1034.0000 1.0000
37.5100 1024.0000 1.0000
37.5200 1046.0000 1.0000
37.5300 1022.0000 1.0000
37.5400 1035.0000 1.0000
37.5500 1042.0000 1.0000
37.5600 1051.0000 1.0000
37.5700 996.0000 1.0000
37.5800 1095.0000 1.0000
37.5900 1088.0000 1.0000
37.6000 1080.0000 1.0000
37.6100 1035.0000 1.0000
37.6200 996.0000 1.0000
37.6300 1050.0000 1.0000
37.6400 1069.0000 1.0000
37.6500 1044.0000 1.0000
37.6600 1050.0000 1.0000
37.6700 1069.0000 1.0000
37.6800 1057.0000 1.0000
37.6900 1031.0000 1.0000
37.7000 1015.0000 1.0000
37.7100 1063.0000 1.0000
37.7200 1012.0000 1.0000
37.7300 1038.0000 1.0000
37.7400 1036.0000 1.0000
37.7500 1040.0000 1.0000
37.7600 1116.0000 1.0000
37.7700 1084.0000 1.0000
37.7800 1036.0000 1.0000
37.7900 1052.0000 1.0000
37.8000 1046.0000 1.0000
37.8100 1066.0000 1.0000
37.8200 1124.0000 1.0000
37.8300 1101.0000 1.0000
37.8400 1060.0000 1.0000
37.8500 1045.0000 1.0000
37.8600 1031.0000 1.0000
37.8700 1006.0000 1.0000
37.8800 1099.0000 1.0000
37.8900 1083.0000 1.0000
37.9000 1132.0000 1.0000
37.9100 1135.0000 1.0000
37.9200 1082.0000 1.0000
37.9300 1087.0000 1.0000
37.9400 1073.0000 1.0000
37.9500 1134.0000 1.0000
37.9600 1102.0000 1.0000
37.9700 1110.0000 1.0000
37.9800 1131.0000 1.0000
37.9900 1159.0000 1.0000
38.0000 1189.0000 1.0000
38.0100 1185.0000 1.0000
38.0200 1190.0000 1.0000
38.0300 1174.0000 1.0000
38.0400 1181.0000 1.0000
38.0500 1251.0000 1.0000
38.0600 1213.0000 1.0000
38.0700 1233.0000 1.0000
38.0800 1190.0000 1.0000
38.0900 1249.0000 1.0000
38.1000 1299.0000 1.0000
38.1100 1263.0000 1.0000
38.1200 1336.0000 1.0000
38.1300 1346.0000 1.0000
38.1400 1432.0000 1.0000
38.1500 1474.0000 1.0000
38.1600 1504.0000 1.0000
38.1700 1487.0000 1.0000
38.1800 1536.0000 1.0000
38.1900 1622.0000 1.0000
38.2000 1645.0000 1.0000
38.2100 1728.0000 1.0000
38.2200 1796.0000 1.0000
38.2300 1815.0000 1.0000
38.2400 1892.0000 1.0000
38.2500 2027.0000 1.0000
38.2600 2113.0000 1.0000
38.2700 2124.0000 1.0000
38.2800 2179.0000 1.0000
38.2900 2350.0000 1.0000
38.3000 2507.0000 1.0000
38.3100 2647.0000 1.0000
38.3200 2829.0000 1.0000
38.3300 2881.0000 1.0000
38.3400 3092.0000 1.0000
38.3500 3383.0000 1.0000
38.3600 3663.0000 1.0000
38.3700 3945.0000 1.0000
38.3800 4128.0000 1.0000
38.3900 4534.0000 1.0000
38.4000 4945.0000 1.0000
38.4100 5209.0000 1.0000
38.4200 5567.0000 1.0000
38.4300 5992.0000 1.0000
38.4400 6332.0000 1.0000
38.4500 6778.0000 1.0000
38.4600 6978.0000 1.0000
38.4700 7426.0000 1.0000
38.4800 7665.0000 1.0000
38.4900 7816.0000 1.0000
38.5000 7916.0000 1.0000
38.5100 8178.0000 1.0000
38.5200 7979.0000 1.0000
38.5300 7906.0000 1.0000
38.5400 7683.0000 1.0000
38.5500 7324.0000 1.0000
38.5600 7243.0000 1.0000
38.5700 7048.0000 1.0000
38.5800 6747.0000 1.0000
38.5900 6655.0000 1.0000
38.6000 6257.0000 1.0000
38.6100 5918.0000 1.0000
38.6200 5578.0000 1.0000
38.6300 5190.0000 1.0000
38.6400 4872.0000 1.0000
38.6500 4689.0000 1.0000
38.6600 4306.0000 1.0000
38.6700 4016.0000 1.0000
38.6800 3764.0000 1.0000
38.6900 3487.0000 1.0000
38.7000 3248.0000 1.0000
38.7100 3043.0000 1.0000
38.7200 2859.0000 1.0000
38.7300 2623.0000 1.0000
38.7400 2489.0000 1.0000
38.7500 2318.0000 1.0000
38.7600 2107.0000 1.0000
38.7700 2132.0000 1.0000
38.7800 1944.0000 1.0000
38.7900 1895.0000 1.0000
38.8000 1779.0000 1.0000
38.8100 1750.0000 1.0000
38.8200 1684.0000 1.0000
38.8300 1548.0000 1.0000
38.8400 1537.0000 1.0000
38.8500 1513.0000 1.0000
38.8600 1424.0000 1.0000
38.8700 1489.0000 1.0000
38.8800 1410.0000 1.0000
38.8900 1372.0000 1.0000
38.9000 1364.0000 1.0000
38.9100 1254.0000 1.0000
38.9200 1306.0000 1.0000
38.9300 1265.0000 1.0000
38.9400 1135.0000 1.0000
38.9500 1215.0000 1.0000
38.9600 1169.0000 1.0000
38.9700 1139.0000 1.0000
38.9800 1113.0000 1.0000
38.9900 1120.0000 1.0000
39.0000 1121.0000 1.0000
39.0100 1029.0000 1.0000
39.0200 1080.0000 1.0000
39.0300 1108.0000 1.0000
39.0400 1098.0000 1.0000
39.0500 1090.0000 1.0000
39.0600 1083.0000 1.0000
39.0700 1072.0000 1.0000
39.0800 1038.0000 1.0000
39.0900 993.0000 1.0000
39.1000 1027.0000 1.0000
39.1100 1011.0000 1.0000
39.1200 1038.0000 1.0000
39.1300 1067.0000 1.0000
39.1400 1035.0000 1.0000
39.1500 993.0000 1.0000
39.1600 1006.0000 1.0000
39.1700 1006.0000 1.0000
39.1800 951.0000 1.0000
39.1900 964.0000 1.0000
39.2000 955.0000 1.0000
39.2100 997.0000 1.0000
39.2200 946.0000 1.0000
39.2300 986.0000 1.0000
39.2400 970.0000 1.0000
39.2500 966.0000 1.0000
39.2600 964.0000 1.0000
39.2700 965.0000 1.0000
39.2800 991.0000 1.0000
39.2900 992.0000 1.0000
39.3000 997.0000 1.0000
39.3100 948.0000 1.0000
39.3200 932.0000 1.0000
39.3300 934.0000 1.0000
39.3400 988.0000 1.0000
39.3500 944.0000 1.0000
39.3600 925.0000 1.0000
39.3700 1021.0000 1.0000
39.3800 978.0000 1.0000
39.3900 937.0000 1.0000
39.4000 933.0000 1.0000
39.4100 953.0000 1.0000
39.4200 930.0000 1.0000
39.4300 957.0000 1.0000
39.4400 1003.0000 1.0000
39.4500 953.0000 1.0000
39.4600 951.0000 1.0000
39.4700 997.0000 1.0000
39.4800 965.0000 1.0000
39.4900 955.0000 1.0000
39.5000 938.0000 1.0000
39.5100 988.0000 1.0000
39.5200 966.0000 1.0000
39.5300 989.0000 1.0000
39.5400 987.0000 1.0000
39.5500 994.0000 1.0000
39.5600 953.0000 1.0000
39.5700 1018.0000 1.0000
39.5800 982.0000 1.0000
39.5900 1029.0000 1.0000
39.6000 996.0000 1.0000
39.6100 948.0000 1.0000
39.6200 984.0000 1.0000
39.6300 955.0000 1.0000
39.6400 994.0000 1.0000
39.6500 937.0000 1.0000
39.6600 922.0000 1.0000
39.6700 1028.0000 1.0000
39.6800 975.0000 1.0000
39.6900 914.0000 1.0000
39.7000 966.0000 1.0000
39.7100 958.0000 1.0000
39.7200 899.0000 1.0000
39.7300 922.0000 1.0000
39.7400 940.0000 1.0000
39.7500 980.0000 1.0000
39.7600 892.0000 1.0000
39.7700 929.0000 1.0000
39.7800 961.0000 1.0000
39.7900 949.0000 1.0000
39.8000 976.0000 1.0000
39.8100 935.0000 1.0000
39.8200 886.0000 1.0000
39.8300 915.0000 1.0000
39.8400 871.0000 1.0000
39.8500 895.0000 1.0000
39.8600 913.0000 1.0000
39.8700 857.0000 1.0000
39.8800 908.0000 1.0000
39.8900 891.0000 1.0000
39.9000 860.0000 1.0000
39.9100 873.0000 1.0000
39.9200 914.0000 1.0000
39.9300 881.0000 1.0000
39.9400 861.0000 1.0000
39.9500 849.0000 1.0000
39.9600 890.0000 1.0000
39.9700 912.0000 1.0000
39.9800 865.0000 1.0000
39.9900 893.0000 1.0000
40.0000 905.0000 1.0000
40.0100 890.0000 1.0000
40.0200 912.0000 1.0000
40.0300 922.0000 1.0000
40.0400 865.0000 1.0000
40.0500 867.0000 1.0000
40.0600 897.0000 1.0000
40.0700 897.0000 1.0000
40.0800 860.0000 1.0000
40.0900 868.0000 1.0000
40.1000 887.0000 1.0000
40.1100 876.0000 1.0000
40.1200 863.0000 1.0000
40.1300 883.0000 1.0000
40.1400 854.0000 1.0000
40.1500 857.0000 1.0000
40.1600 884.0000 1.0000
40.1700 919.0000 1.0000
40.1800 843.0000 1.0000
40.1900 878.0000 1.0000
40.2000 862.0000 1.0000
40.2100 902.0000 1.0000
40.2200 874.0000 1.0000
40.2300 903.0000 1.0000
40.2400 858.0000 1.0000
40.2500 887.0000 1.0000
40.2600 916.0000 1.0000
40.2700 860.0000 1.0000
40.2800 875.0000 1.0000
40.2900 825.0000 1.0000
40.3000 828.0000 1.0000
40.3100 867.0000 1.0000
40.3200 852.0000 1.0000
40.3300 824.0000 1.0000
40.3400 812.0000 1.0000
40.3500 857.0000 1.0000
40.3600 852.0000 1.0000
40.3700 866.0000 1.0000
40.3800 877.0000 1.0000
40.3900 836.0000 1.0000
40.4000 825.0000 1.0000
40.4100 875.0000 1.0000
40.4200 882.0000 1.0000
40.4300 865.0000 1.0000
40.4400 881.0000 1.0000
40.4500 851.0000 1.0000
40.4600 852.0000 1.0000
40.4700 848.0000 1.0000
40.4800 831.0000 1.0000
40.4900 810.0000 1.0000
40.5000 851.0000 1.0000
40.5100 906.0000 1.0000
40.5200 881.0000 1.0000
40.5300 888.0000 1.0000
40.5400 844.0000 1.0000
40.5500 889.0000 1.0000
40.5600 864.0000 1.0000
40.5700 930.0000 1.0000
40.5800 879.0000 1.0000
40.5900 894.0000 1.0000
40.6000 903.0000 1.0000
40.6100 913.0000 1.0000
40.6200 903.0000 1.0000
40.6300 848.0000 1.0000
40.6400 832.0000 1.0000
40.6500 811.0000 1.0000
40.6600 842.0000 1.0000
40.6700 887.0000 1.0000
40.6800 867.0000 1.0000
40.6900 883.0000 1.0000
40.7000 837.0000 1.0000
40.7100 876.0000 1.0000
40.7200 853.0000 1.0000
40.7300 862.0000 1.0000
40.7400 905.0000 1.0000
40.7500 798.0000 1.0000
40.7600 854.0000 1.0000
40.7700 871.0000 1.0000
40.7800 834.0000 1.0000
40.7900 821.0000 1.0000
40.8000 817.0000 1.0000
40.8100 838.0000 1.0000
40.8200 899.0000 1.0000
40.8300 859.0000 1.0000
40.8400 878.0000 1.0000
40.8500 839.0000 1.0000
40.8600 865.0000 1.0000
40.8700 885.0000 1.0000
40.8800 797.0000 1.0000
40.8900 824.0000 1.0000
40.9000 865.0000 1.0000
40.9100 878.0000 1.0000
40.9200 858.0000 1.0000
40.9300 867.0000 1.0000
40.9400 868.0000 1.0000
40.9500 875.0000 1.0000
40.9600 799.0000 1.0000
40.9700 818.0000 1.0000
40.9800 831.0000 1.0000
40.9900 872.0000 1.0000
41.0000 829.0000 1.0000
41.0100 857.0000 1.0000
41.0200 860.0000 1.0000
41.0300 865.0000 1.0000
41.0400 802.0000 1.0000
41.0500 842.0000 1.0000
41.0600 848.0000 1.0000
41.0700 908.0000 1.0000
41.0800 877.0000 1.0000
41.0900 857.0000 1.0000
41.1000 845.0000 1.0000
41.1100 823.0000 1.0000
41.1200 840.0000 1.0000
41.1300 824.0000 1.0000
41.1400 870.0000 1.0000
41.1500 827.0000 1.0000
41.1600 865.0000 1.0000
41.1700 838.0000 1.0000
41.1800 829.0000 1.0000
41.1900 884.0000 1.0000
41.2000 857.0000 1.0000
41.2100 860.0000 1.0000
41.2200 842.0000 1.0000
41.2300 825.0000 1.0000
41.2400 860.0000 1.0000
41.2500 844.0000 1.0000
41.2600 854.0000 1.0000
41.2700 845.0000 1.0000
41.2800 868.0000 1.0000
41.2900 834.0000 1.0000
41.3000 841.0000 1.0000
41.3100 836.0000 1.0000
41.3200 864.0000 1.0000
41.3300 851.0000 1.0000
41.3400 867.0000 1.0000
41.3500 834.0000 1.0000
41.3600 845.0000 1.0000
41.3700 843.0000 1.0000
41.3800 832.0000 1.0000
41.3900 825.0000 1.0000
41.4000 864.0000 1.0000
41.4100 861.0000 1.0000
41.4200 894.0000 1.0000
41.4300 879.0000 1.0000
41.4400 882.0000 1.0000
41.4500 880.0000 1.0000
41.4600 880.0000 1.0000
41.4700 843.0000 1.0000
41.4800 891.0000 1.0000
41.4900 848.0000 1.0000
41.5000 842.0000 1.0000
41.5100 823.0000 1.0000
41.5200 866.0000 1.0000
41.5300 859.0000 1.0000
41.5400 829.0000 1.0000
41.5500 845.0000 1.0000
41.5600 856.0000 1.0000
41.5700 885.0000 1.0000
41.5800 871.0000 1.0000
41.5900 818.0000 1.0000
41.6000 885.0000 1.0000
41.6100 911.0000 1.0000
41.6200 896.0000 1.0000
41.6300 876.0000 1.0000
41.6400 854.0000 1.0000
41.6500 819.0000 1.0000
41.6600 888.0000 1.0000
41.6700 863.0000 1.0000
41.6800 836.0000 1.0000
41.6900 872.0000 1.0000
41.7000 809.0000 1.0000
41.7100 887.0000 1.0000
41.7200 869.0000 1.0000
41.7300 839.0000 1.0000
41.7400 849.0000 1.0000
41.7500 791.0000 1.0000
41.7600 868.0000 1.0000
41.7700 835.0000 1.0000
41.7800 856.0000 1.0000
41.7900 862.0000 1.0000
41.8000 821.0000 1.0000
41.8100 835.0000 1.0000
41.8200 836.0000 1.0000
41.8300 812.0000 1.0000
41.8400 826.0000 1.0000
41.8500 821.0000 1.0000
41.8600 831.0000 1.0000
41.8700 879.0000 1.0000
41.8800 852.0000 1.0000
41.8900 880.0000 1.0000
41.9000 858.0000 1.0000
41.9100 837.0000 1.0000
41.9200 851.0000 1.0000
41.9300 841.0000 1.0000
41.9400 851.0000 1.0000
41.9500 834.0000 1.0000
41.9600 835.0000 1.0000
41.9700 858.0000 1.0000
41.9800 845.0000 1.0000
41.9900 848.0000 1.0000
42.0000 855.0000 1.0000
42.0100 902.0000 1.0000
42.0200 830.0000 1.0000
42.0300 863.0000 1.0000
42.0400 821.0000 1.0000
42.0500 831.0000 1.0000
42.0600 827.0000 1.0000
42.0700 798.0000 1.0000
42.0800 857.0000 1.0000
42.0900 864.0000 1.0000
42.1000 784.0000 1.0000
42.1100 785.0000 1.0000
42.1200 763.0000 1.0000
42.1300 841.0000 1.0000
42.1400 832.0000 1.0000
42.1500 816.0000 1.0000
42.1600 805.0000 1.0000
42.1700 812.0000 1.0000
42.1800 817.0000 1.0000
42.1900 825.0000 1.0000
42.2000 797.0000 1.0000
42.2100 842.0000 1.0000
42.2200 796.0000 1.0000
42.2300 824.0000 1.0000
42.2400 843.0000 1.0000
42.2500 791.0000 1.0000
42.2600 838.0000 1.0000
42.2700 869.0000 1.0000
42.2800 854.0000 1.0000
42.2900 837.0000 1.0000
42.3000 836.0000 1.0000
42.3100 821.0000 1.0000
42.3200 827.0000 1.0000
42.3300 854.0000 1.0000
42.3400 822.0000 1.0000
42.3500 834.0000 1.0000
42.3600 852.0000 1.0000
42.3700 870.0000 1.0000
42.3800 829.0000 1.0000
42.3900 823.0000 1.0000
42.4000 829.0000 1.0000
42.4100 870.0000 1.0000
42.4200 870.0000 1.0000
42.4300 826.0000 1.0000
42.4400 851.0000 1.0000
42.4500 836.0000 1.0000
42.4600 861.0000 1.0000
42.4700 871.0000 1.0000
42.4800 806.0000 1.0000
42.4900 795.0000 1.0000
42.5000 831.0000 1.0000
42.5100 796.0000 1.0000
42.5200 760.0000 1.0000
42.5300 832.0000 1.0000
42.5400 803.0000 1.0000
42.5500 808.0000 1.0000
42.5600 841.0000 1.0000
42.5700 812.0000 1.0000
42.5800 792.0000 1.0000
42.5900 795.0000 1.0000
42.6000 830.0000 1.0000
42.6100 829.0000 1.0000
42.6200 855.0000 1.0000
42.6300 841.0000 1.0000
42.6400 818.0000 1.0000
42.6500 818.0000 1.0000
42.6600 844.0000 1.0000
42.6700 870.0000 1.0000
42.6800 819.0000 1.0000
42.6900 830.0000 1.0000
42.7000 847.0000 1.0000
42.7100 809.0000 1.0000
42.7200 850.0000 1.0000
42.7300 850.0000 1.0000
42.7400 875.0000 1.0000
42.7500 817.0000 1.0000
42.7600 811.0000 1.0000
42.7700 820.0000 1.0000
42.7800 800.0000 1.0000
42.7900 874.0000 1.0000
42.8000 828.0000 1.0000
42.8100 792.0000 1.0000
42.8200 843.0000 1.0000
42.8300 875.0000 1.0000
42.8400 801.0000 1.0000
42.8500 834.0000 1.0000
42.8600 787.0000 1.0000
42.8700 771.0000 1.0000
42.8800 844.0000 1.0000
42.8900 828.0000 1.0000
42.9000 843.0000 1.0000
42.9100 842.0000 1.0000
42.9200 823.0000 1.0000
42.9300 871.0000 1.0000
42.9400 859.0000 1.0000
42.9500 852.0000 1.0000
42.9600 820.0000 1.0000
42.9700 858.0000 1.0000
42.9800 837.0000 1.0000
42.9900 859.0000 1.0000
43.0000 870.0000 1.0000
43.0100 840.0000 1.0000
43.0200 816.0000 1.0000
43.0300 859.0000 1.0000
43.0400 862.0000 1.0000
43.0500 907.0000 1.0000
43.0600 886.0000 1.0000
43.0700 859.0000 1.0000
43.0800 854.0000 1.0000
43.0900 911.0000 1.0000
43.1000 883.0000 1.0000
43.1100 902.0000 1.0000
43.1200 933.0000 1.0000
43.1300 874.0000 1.0000
43.1400 878.0000 1.0000
43.1500 883.0000 1.0000
43.1600 913.0000 1.0000
43.1700 857.0000 1.0000
43.1800 885.0000 1.0000
43.1900 889.0000 1.0000
43.2000 945.0000 1.0000
43.2100 878.0000 1.0000
43.2200 921.0000 1.0000
43.2300 933.0000 1.0000
43.2400 914.0000 1.0000
43.2500 885.0000 1.0000
43.2600 860.0000 1.0000
43.2700 922.0000 1.0000
43.2800 897.0000 1.0000
43.2900 886.0000 1.0000
43.3000 903.0000 1.0000
43.3100 900.0000 1.0000
43.3200 882.0000 1.0000
43.3300 919.0000 1.0000
43.3400 903.0000 1.0000
43.3500 858.0000 1.0000
43.3600 877.0000 1.0000
43.3700 852.0000 1.0000
43.3800 844.0000 1.0000
43.3900 860.0000 1.0000
43.4000 860.0000 1.0000
43.4100 844.0000 1.0000
43.4200 826.0000 1.0000
43.4300 810.0000 1.0000
43.4400 884.0000 1.0000
43.4500 806.0000 1.0000
43.4600 813.0000 1.0000
43.4700 806.0000 1.0000
43.4800 845.0000 1.0000
43.4900 783.0000 1.0000
43.5000 784.0000 1.0000
43.5100 832.0000 1.0000
43.5200 849.0000 1.0000
43.5300 878.0000 1.0000
43.5400 793.0000 1.0000
43.5500 783.0000 1.0000
43.5600 841.0000 1.0000
43.5700 843.0000 1.0000
43.5800 826.0000 1.0000
43.5900 843.0000 1.0000
43.6000 800.0000 1.0000
43.6100 769.0000 1.0000
43.6200 749.0000 1.0000
43.6300 791.0000 1.0000
43.6400 795.0000 1.0000
43.6500 790.0000 1.0000
43.6600 769.0000 1.0000
43.6700 804.0000 1.0000
43.6800 835.0000 1.0000
43.6900 831.0000 1.0000
43.7000 819.0000 1.0000
43.7100 830.0000 1.0000
43.7200 841.0000 1.0000
43.7300 844.0000 1.0000
43.7400 808.0000 1.0000
43.7500 836.0000 1.0000
43.7600 806.0000 1.0000
43.7700 829.0000 1.0000
43.7800 837.0000 1.0000
43.7900 816.0000 1.0000
43.8000 814.0000 1.0000
43.8100 810.0000 1.0000
43.8200 796.0000 1.0000
43.8300 813.0000 1.0000
43.8400 806.0000 1.0000
43.8500 774.0000 1.0000
43.8600 827.0000 1.0000
43.8700 839.0000 1.0000
43.8800 815.0000 1.0000
43.8900 780.0000 1.0000
43.9000 822.0000 1.0000
43.9100 800.0000 1.0000
43.9200 825.0000 1.0000
43.9300 769.0000 1.0000
43.9400 789.0000 1.0000
43.9500 782.0000 1.0000
43.9600 800.0000 1.0000
43.9700 801.0000 1.0000
43.9800 811.0000 1.0000
43.9900 819.0000 1.0000
44.0000 797.0000 1.0000
44.0100 812.0000 1.0000
44.0200 785.0000 1.0000
44.0300 815.0000 1.0000
44.0400 768.0000 1.0000
44.0500 810.0000 1.0000
44.0600 769.0000 1.0000
44.0700 822.0000 1.0000
44.0800 765.0000 1.0000
44.0900 760.0000 1.0000
44.1000 780.0000 1.0000
44.1100 773.0000 1.0000
44.1200 789.0000 1.0000
44.1300 776.0000 1.0000
44.1400 797.0000 1.0000
44.1500 801.0000 1.0000
44.1600 806.0000 1.0000
44.1700 796.0000 1.0000
44.1800 836.0000 1.0000
44.1900 807.0000 1.0000
44.2000 836.0000 1.0000
44.2100 794.0000 1.0000
44.2200 785.0000 1.0000
44.2300 776.0000 1.0000
44.2400 805.0000 1.0000
44.2500 803.0000 1.0000
44.2600 839.0000 1.0000
44.2700 775.0000 1.0000
44.2800 795.0000 1.0000
44.2900 788.0000 1.0000
44.3000 795.0000 1.0000
44.3100 822.0000 1.0000
44.3200 813.0000 1.0000
44.3300 798.0000 1.0000
44.3400 720.0000 1.0000
44.3500 798.0000 1.0000
44.3600 808.0000 1.0000
44.3700 798.0000 1.0000
44.3800 803.0000 1.0000
44.3900 788.0000 1.0000
44.4000 774.0000 1.0000
44.4100 830.0000 1.0000
44.4200 777.0000 1.0000
44.4300 808.0000 1.0000
44.4400 799.0000 1.0000
44.4500 806.0000 1.0000
44.4600 758.0000 1.0000
44.4700 770.0000 1.0000
44.4800 808.0000 1.0000
44.4900 834.0000 1.0000
44.5000 820.0000 1.0000
44.5100 826.0000 1.0000
44.5200 759.0000 1.0000
44.5300 792.0000 1.0000
44.5400 746.0000 1.0000
44.5500 757.0000 1.0000
44.5600 792.0000 1.0000
44.5700 777.0000 1.0000
44.5800 789.0000 1.0000
44.5900 761.0000 1.0000
44.6000 775.0000 1.0000
44.6100 787.0000 1.0000
44.6200 789.0000 1.0000
44.6300 775.0000 1.0000
44.6400 811.0000 1.0000
44.6500 761.0000 1.0000
44.6600 790.0000 1.0000
44.6700 766.0000 1.0000
44.6800 768.0000 1.0000
44.6900 747.0000 1.0000
44.7000 768.0000 1.0000
44.7100 774.0000 1.0000
44.7200 782.0000 1.0000
44.7300 803.0000 1.0000
44.7400 832.0000 1.0000
44.7500 812.0000 1.0000
44.7600 757.0000 1.0000
44.7700 780.0000 1.0000
44.7800 747.0000 1.0000
44.7900 725.0000 1.0000
44.8000 766.0000 1.0000
44.8100 743.0000 1.0000
44.8200 751.0000 1.0000
44.8300 743.0000 1.0000
44.8400 769.0000 1.0000
44.8500 752.0000 1.0000
44.8600 763.0000 1.0000
44.8700 773.0000 1.0000
44.8800 808.0000 1.0000
44.8900 779.0000 1.0000
44.9000 752.0000 1.0000
44.9100 724.0000 1.0000
44.9200 745.0000 1.0000
44.9300 778.0000 1.0000
44.9400 790.0000 1.0000
44.9500 785.0000 1.0000
44.9600 781.0000 1.0000
44.9700 826.0000 1.0000
44.9800 800.0000 1.0000
44.9900 785.0000 1.0000
45.0000 775.0000 1.0000
45.0100 787.0000 1.0000
45.0200 783.0000 1.0000
45.0300 731.0000 1.0000
45.0400 780.0000 1.0000
45.0500 749.0000 1.0000
45.0600 776.0000 1.0000
45.0700 758.0000 1.0000
45.0800 783.0000 1.0000
45.0900 830.0000 1.0000
45.1000 757.0000 1.0000
45.1100 780.0000 1.0000
45.1200 770.0000 1.0000
45.1300 749.0000 1.0000
45.1400 773.0000 1.0000
45.1500 758.0000 1.0000
45.1600 755.0000 1.0000
45.1700 744.0000 1.0000
45.1800 771.0000 1.0000
45.1900 789.0000 1.0000
45.2000 737.0000 1.0000
45.2100 748.0000 1.0000
45.2200 770.0000 1.0000
45.2300 788.0000 1.0000
45.2400 754.0000 1.0000
45.2500 770.0000 1.0000
45.2600 782.0000 1.0000
45.2700 797.0000 1.0000
45.2800 803.0000 1.0000
45.2900 820.0000 1.0000
45.3000 798.0000 1.0000
45.3100 777.0000 1.0000
45.3200 752.0000 1.0000
45.3300 757.0000 1.0000
45.3400 773.0000 1.0000
45.3500 793.0000 1.0000
45.3600 785.0000 1.0000
45.3700 754.0000 1.0000
45.3800 733.0000 1.0000
45.3900 725.0000 1.0000
45.4000 749.0000 1.0000
45.4100 796.0000 1.0000
45.4200 748.0000 1.0000
45.4300 739.0000 1.0000
45.4400 807.0000 1.0000
45.4500 769.0000 1.0000
45.4600 726.0000 1.0000
45.4700 773.0000 1.0000
45.4800 750.0000 1.0000
45.4900 771.0000 1.0000
45.5000 758.0000 1.0000
45.5100 750.0000 1.0000
45.5200 773.0000 1.0000
45.5300 749.0000 1.0000
45.5400 764.0000 1.0000
45.5500 738.0000 1.0000
45.5600 758.0000 1.0000
45.5700 768.0000 1.0000
45.5800 759.0000 1.0000
45.5900 780.0000 1.0000
45.6000 823.0000 1.0000
45.6100 770.0000 1.0000
45.6200 793.0000 1.0000
45.6300 763.0000 1.0000
45.6400 743.0000 1.0000
45.6500 750.0000 1.0000
45.6600 752.0000 1.0000
45.6700 755.0000 1.0000
45.6800 796.0000 1.0000
45.6900 763.0000 1.0000
45.7000 765.0000 1.0000
45.7100 764.0000 1.0000
45.7200 760.0000 1.0000
45.7300 749.0000 1.0000
45.7400 747.0000 1.0000
45.7500 729.0000 1.0000
45.7600 784.0000 1.0000
45.7700 736.0000 1.0000
45.7800 773.0000 1.0000
45.7900 814.0000 1.0000
45.8000 810.0000 1.0000
45.8100 801.0000 1.0000
45.8200 732.0000 1.0000
45.8300 735.0000 1.0000
45.8400 783.0000 1.0000
45.8500 749.0000 1.0000
45.8600 754.0000 1.0000
45.8700 743.0000 1.0000
45.8800 759.0000 1.0000
45.8900 775.0000 1.0000
45.9000 805.0000 1.0000
45.9100 792.0000 1.0000
45.9200 760.0000 1.0000
45.9300 795.0000 1.0000
45.9400 771.0000 1.0000
45.9500 766.0000 1.0000
45.9600 737.0000 1.0000
45.9700 747.0000 1.0000
45.9800 729.0000 1.0000
45.9900 764.0000 1.0000
46.0000 795.0000 1.0000
46.0100 725.0000 1.0000
46.0200 786.0000 1.0000
46.0300 824.0000 1.0000
46.0400 752.0000 1.0000
46.0500 746.0000 1.0000
46.0600 777.0000 1.0000
46.0700 782.0000 1.0000
46.0800 743.0000 1.0000
46.0900 760.0000 1.0000
46.1000 759.0000 1.0000
46.1100 758.0000 1.0000
46.1200 758.0000 1.0000
46.1300 768.0000 1.0000
46.1400 769.0000 1.0000
46.1500 728.0000 1.0000
46.1600 708.0000 1.0000
46.1700 721.0000 1.0000
46.1800 762.0000 1.0000
46.1900 804.0000 1.0000
46.2000 785.0000 1.0000
46.2100 775.0000 1.0000
46.2200 735.0000 1.0000
46.2300 761.0000 1.0000
46.2400 764.0000 1.0000
46.2500 772.0000 1.0000
46.2600 800.0000 1.0000
46.2700 764.0000 1.0000
46.2800 768.0000 1.0000
46.2900 765.0000 1.0000
46.3000 730.0000 1.0000
46.3100 744.0000 1.0000
46.3200 732.0000 1.0000
46.3300 760.0000 1.0000
46.3400 767.0000 1.0000
46.3500 757.0000 1.0000
46.3600 748.0000 1.0000
46.3700 735.0000 1.0000
46.3800 787.0000 1.0000
46.3900 749.0000 1.0000
46.4000 759.0000 1.0000
46.4100 727.0000 1.0000
46.4200 751.0000 1.0000
46.4300 740.0000 1.0000
46.4400 739.0000 1.0000
46.4500 741.0000 1.0000
46.4600 767.0000 1.0000
46.4700 727.0000 1.0000
46.4800 707.0000 1.0000
46.4900 748.0000 1.0000
46.5000 709.0000 1.0000
46.5100 736.0000 1.0000
46.5200 755.0000 1.0000
46.5300 760.0000 1.0000
46.5400 768.0000 1.0000
46.5500 767.0000 1.0000
46.5600 742.0000 1.0000
46.5700 740.0000 1.0000
46.5800 734.0000 1.0000
46.5900 743.0000 1.0000
46.6000 739.0000 1.0000
46.6100 722.0000 1.0000
46.6200 768.0000 1.0000
46.6300 779.0000 1.0000
46.6400 750.0000 1.0000
46.6500 767.0000 1.0000
46.6600 753.0000 1.0000
46.6700 729.0000 1.0000
46.6800 713.0000 1.0000
46.6900 713.0000 1.0000
46.7000 742.0000 1.0000
46.7100 722.0000 1.0000
46.7200 725.0000 1.0000
46.7300 745.0000 1.0000
46.7400 736.0000 1.0000
46.7500 774.0000 1.0000
46.7600 762.0000 1.0000
46.7700 774.0000 1.0000
46.7800 751.0000 1.0000
46.7900 734.0000 1.0000
46.8000 773.0000 1.0000
46.8100 762.0000 1.0000
46.8200 755.0000 1.0000
46.8300 774.0000 1.0000
46.8400 761.0000 1.0000
46.8500 772.0000 1.0000
46.8600 817.0000 1.0000
46.8700 761.0000 1.0000
46.8800 763.0000 1.0000
46.8900 722.0000 1.0000
46.9000 759.0000 1.0000
46.9100 757.0000 1.0000
46.9200 780.0000 1.0000
46.9300 789.0000 1.0000
46.9400 749.0000 1.0000
46.9500 802.0000 1.0000
46.9600 751.0000 1.0000
46.9700 769.0000 1.0000
46.9800 781.0000 1.0000
46.9900 789.0000 1.0000
47.0000 787.0000 1.0000
47.0100 792.0000 1.0000
47.0200 785.0000 1.0000
47.0300 741.0000 1.0000
47.0400 738.0000 1.0000
47.0500 766.0000 1.0000
47.0600 752.0000 1.0000
47.0700 805.0000 1.0000
47.0800 747.0000 1.0000
47.0900 765.0000 1.0000
47.1000 770.0000 1.0000
47.1100 748.0000 1.0000
47.1200 760.0000 1.0000
47.1300 772.0000 1.0000
47.1400 786.0000 1.0000
47.1500 743.0000 1.0000
47.1600 731.0000 1.0000
47.1700 700.0000 1.0000
47.1800 728.0000 1.0000
47.1900 748.0000 1.0000
47.2000 734.0000 1.0000
47.2100 715.0000 1.0000
47.2200 734.0000 1.0000
47.2300 730.0000 1.0000
47.2400 761.0000 1.0000
47.2500 799.0000 1.0000
47.2600 739.0000 1.0000
47.2700 735.0000 1.0000
47.2800 738.0000 1.0000
47.2900 702.0000 1.0000
47.3000 756.0000 1.0000
47.3100 731.0000 1.0000
47.3200 719.0000 1.0000
47.3300 712.0000 1.0000
47.3400 780.0000 1.0000
47.3500 792.0000 1.0000
47.3600 730.0000 1.0000
47.3700 763.0000 1.0000
47.3800 744.0000 1.0000
47.3900 754.0000 1.0000
47.4000 704.0000 1.0000
47.4100 696.0000 1.0000
47.4200 745.0000 1.0000
47.4300 741.0000 1.0000
47.4400 719.0000 1.0000
47.4500 731.0000 1.0000
47.4600 723.0000 1.0000
47.4700 717.0000 1.0000
47.4800 770.0000 1.0000
47.4900 756.0000 1.0000
47.5000 710.0000 1.0000
47.5100 701.0000 1.0000
47.5200 752.0000 1.0000
47.5300 687.0000 1.0000
47.5400 709.0000 1.0000
47.5500 699.0000 1.0000
47.5600 780.0000 1.0000
47.5700 727.0000 1.0000
47.5800 751.0000 1.0000
47.5900 760.0000 1.0000
47.6000 730.0000 1.0000
47.6100 719.0000 1.0000
47.6200 684.0000 1.0000
47.6300 749.0000 1.0000
47.6400 725.0000 1.0000
47.6500 672.0000 1.0000
47.6600 672.0000 1.0000
47.6700 719.0000 1.0000
47.6800 692.0000 1.0000
47.6900 743.0000 1.0000
47.7000 739.0000 1.0000
47.7100 714.0000 1.0000
47.7200 685.0000 1.0000
47.7300 698.0000 1.0000
47.7400 762.0000 1.0000
47.7500 708.0000 1.0000
47.7600 705.0000 1.0000
47.7700 747.0000 1.0000
47.7800 704.0000 1.0000
47.7900 739.0000 1.0000
47.8000 712.0000 1.0000
47.8100 695.0000 1.0000
47.8200 697.0000 1.0000
47.8300 711.0000 1.0000
47.8400 721.0000 1.0000
47.8500 725.0000 1.0000
47.8600 761.0000 1.0000
47.8700 727.0000 1.0000
47.8800 738.0000 1.0000
47.8900 783.0000 1.0000
47.9000 763.0000 1.0000
47.9100 712.0000 1.0000
47.9200 666.0000 1.0000
47.9300 711.0000 1.0000
47.9400 721.0000 1.0000
47.9500 693.0000 1.0000
47.9600 692.0000 1.0000
47.9700 731.0000 1.0000
47.9800 743.0000 1.0000
47.9900 728.0000 1.0000
48.0000 758.0000 1.0000
48.0100 762.0000 1.0000
48.0200 733.0000 1.0000
48.0300 751.0000 1.0000
48.0400 780.0000 1.0000
48.0500 729.0000 1.0000
48.0600 748.0000 1.0000
48.0700 717.0000 1.0000
48.0800 700.0000 1.0000
48.0900 731.0000 1.0000
48.1000 682.0000 1.0000
48.1100 687.0000 1.0000
48.1200 724.0000 1.0000
48.1300 736.0000 1.0000
48.1400 722.0000 1.0000
48.1500 723.0000 1.0000
48.1600 691.0000 1.0000
48.1700 690.0000 1.0000
48.1800 713.0000 1.0000
48.1900 733.0000 1.0000
48.2000 701.0000 1.0000
48.2100 695.0000 1.0000
48.2200 666.0000 1.0000
48.2300 686.0000 1.0000
48.2400 723.0000 1.0000
48.2500 710.0000 1.0000
48.2600 728.0000 1.0000
48.2700 702.0000 1.0000
48.2800 729.0000 1.0000
48.2900 691.0000 1.0000
48.3000 744.0000 1.0000
48.3100 660.0000 1.0000
48.3200 709.0000 1.0000
48.3300 750.0000 1.0000
48.3400 704.0000 1.0000
48.3500 705.0000 1.0000
48.3600 718.0000 1.0000
48.3700 780.0000 1.0000
48.3800 691.0000 1.0000
48.3900 731.0000 1.0000
48.4000 746.0000 1.0000
48.4100 694.0000 1.0000
48.4200 703.0000 1.0000
48.4300 701.0000 1.0000
48.4400 718.0000 1.0000
48.4500 750.0000 1.0000
48.4600 702.0000 1.0000
48.4700 687.0000 1.0000
48.4800 693.0000 1.0000
48.4900 659.0000 1.0000
48.5000 695.0000 1.0000
48.5100 722.0000 1.0000
48.5200 736.0000 1.0000
48.5300 720.0000 1.0000
48.5400 734.0000 1.0000
48.5500 714.0000 1.0000
48.5600 708.0000 1.0000
48.5700 715.0000 1.0000
48.5800 743.0000 1.0000
48.5900 690.0000 1.0000
48.6000 723.0000 1.0000
48.6100 712.0000 1.0000
48.6200 681.0000 1.0000
48.6300 673.0000 1.0000
48.6400 701.0000 1.0000
48.6500 701.0000 1.0000
48.6600 731.0000 1.0000
48.6700 694.0000 1.0000
48.6800 718.0000 1.0000
48.6900 697.0000 1.0000
48.7000 686.0000 1.0000
48.7100 720.0000 1.0000
48.7200 684.0000 1.0000
48.7300 724.0000 1.0000
48.7400 675.0000 1.0000
48.7500 747.0000 1.0000
48.7600 713.0000 1.0000
48.7700 721.0000 1.0000
48.7800 698.0000 1.0000
48.7900 717.0000 1.0000
48.8000 709.0000 1.0000
48.8100 741.0000 1.0000
48.8200 749.0000 1.0000
48.8300 725.0000 1.0000
48.8400 686.0000 1.0000
48.8500 716.0000 1.0000
48.8600 762.0000 1.0000
48.8700 716.0000 1.0000
48.8800 710.0000 1.0000
48.8900 713.0000 1.0000
48.9000 713.0000 1.0000
48.9100 691.0000 1.0000
48.9200 699.0000 1.0000
48.9300 750.0000 1.0000
48.9400 701.0000 1.0000
48.9500 744.0000 1.0000
48.9600 722.0000 1.0000
48.9700 708.0000 1.0000
48.9800 704.0000 1.0000
48.9900 746.0000 1.0000
49.0000 721.0000 1.0000
49.0100 699.0000 1.0000
49.0200 748.0000 1.0000
49.0300 687.0000 1.0000
49.0400 654.0000 1.0000
49.0500 687.0000 1.0000
49.0600 728.0000 1.0000
49.0700 701.0000 1.0000
49.0800 728.0000 1.0000
49.0900 724.0000 1.0000
49.1000 733.0000 1.0000
49.1100 739.0000 1.0000
49.1200 713.0000 1.0000
49.1300 713.0000 1.0000
49.1400 704.0000 1.0000
49.1500 721.0000 1.0000
49.1600 680.0000 1.0000
49.1700 720.0000 1.0000
49.1800 714.0000 1.0000
49.1900 722.0000 1.0000
49.2000 663.0000 1.0000
49.2100 736.0000 1.0000
49.2200 751.0000 1.0000
49.2300 741.0000 1.0000
49.2400 739.0000 1.0000
49.2500 718.0000 1.0000
49.2600 731.0000 1.0000
49.2700 677.0000 1.0000
49.2800 704.0000 1.0000
49.2900 704.0000 1.0000
49.3000 694.0000 1.0000
49.3100 730.0000 1.0000
49.3200 703.0000 1.0000
49.3300 667.0000 1.0000
49.3400 672.0000 1.0000
49.3500 694.0000 1.0000
49.3600 753.0000 1.0000
49.3700 692.0000 1.0000
49.3800 696.0000 1.0000
49.3900 723.0000 1.0000
49.4000 698.0000 1.0000
49.4100 707.0000 1.0000
49.4200 695.0000 1.0000
49.4300 732.0000 1.0000
49.4400 698.0000 1.0000
49.4500 658.0000 1.0000
49.4600 649.0000 1.0000
49.4700 759.0000 1.0000
49.4800 669.0000 1.0000
49.4900 668.0000 1.0000
49.5000 719.0000 1.0000
49.5100 712.0000 1.0000
49.5200 690.0000 1.0000
49.5300 702.0000 1.0000
49.5400 694.0000 1.0000
49.5500 691.0000 1.0000
49.5600 725.0000 1.0000
49.5700 716.0000 1.0000
49.5800 727.0000 1.0000
49.5900 715.0000 1.0000
49.6000 690.0000 1.0000
49.6100 752.0000 1.0000
49.6200 680.0000 1.0000
49.6300 708.0000 1.0000
49.6400 746.0000 1.0000
49.6500 735.0000 1.0000
49.6600 656.0000 1.0000
49.6700 709.0000 1.0000
49.6800 706.0000 1.0000
49.6900 687.0000 1.0000
49.7000 700.0000 1.0000
49.7100 718.0000 1.0000
49.7200 708.0000 1.0000
49.7300 688.0000 1.0000
49.7400 683.0000 1.0000
49.7500 693.0000 1.0000
49.7600 685.0000 1.0000
49.7700 699.0000 1.0000
49.7800 702.0000 1.0000
49.7900 706.0000 1.0000
49.8000 738.0000 1.0000
49.8100 730.0000 1.0000
49.8200 701.0000 1.0000
49.8300 674.0000 1.0000
49.8400 728.0000 1.0000
49.8500 769.0000 1.0000
49.8600 710.0000 1.0000
49.8700 679.0000 1.0000
49.8800 694.0000 1.0000
49.8900 681.0000 1.0000
49.9000 750.0000 1.0000
49.9100 713.0000 1.0000
49.9200 704.0000 1.0000
49.9300 689.0000 1.0000
49.9400 693.0000 1.0000
49.9500 704.0000 1.0000
49.9600 708.0000 1.0000
49.9700 736.0000 1.0000
49.9800 720.0000 1.0000
49.9900 739.0000 1.0000
50.0000 731.0000 1.0000
50.0100 723.0000 1.0000
50.0200 710.0000 1.0000
50.0300 694.0000 1.0000
50.0400 694.0000 1.0000
50.0500 665.0000 1.0000
50.0600 702.0000 1.0000
50.0700 725.0000 1.0000
50.0800 689.0000 1.0000
50.0900 671.0000 1.0000
50.1000 710.0000 1.0000
50.1100 743.0000 1.0000
50.1200 714.0000 1.0000
50.1300 713.0000 1.0000
50.1400 785.0000 1.0000
50.1500 708.0000 1.0000
50.1600 702.0000 1.0000
50.1700 662.0000 1.0000
50.1800 744.0000 1.0000
50.1900 763.0000 1.0000
50.2000 713.0000 1.0000
50.2100 737.0000 1.0000
50.2200 770.0000 1.0000
50.2300 732.0000 1.0000
50.2400 736.0000 1.0000
50.2500 722.0000 1.0000
50.2600 720.0000 1.0000
50.2700 697.0000 1.0000
50.2800 709.0000 1.0000
50.2900 719.0000 1.0000
50.3000 746.0000 1.0000
50.3100 682.0000 1.0000
50.3200 752.0000 1.0000
50.3300 733.0000 1.0000
50.3400 718.0000 1.0000
50.3500 765.0000 1.0000
50.3600 769.0000 1.0000
50.3700 755.0000 1.0000
50.3800 724.0000 1.0000
50.3900 736.0000 1.0000
50.4000 753.0000 1.0000
50.4100 740.0000 1.0000
50.4200 750.0000 1.0000
50.4300 720.0000 1.0000
50.4400 751.0000 1.0000
50.4500 728.0000 1.0000
50.4600 752.0000 1.0000
50.4700 695.0000 1.0000
50.4800 719.0000 1.0000
50.4900 680.0000 1.0000
50.5000 735.0000 1.0000
50.5100 745.0000 1.0000
50.5200 740.0000 1.0000
50.5300 754.0000 1.0000
50.5400 690.0000 1.0000
50.5500 703.0000 1.0000
50.5600 728.0000 1.0000
50.5700 739.0000 1.0000
50.5800 678.0000 1.0000
50.5900 703.0000 1.0000
50.6000 742.0000 1.0000
50.6100 684.0000 1.0000
50.6200 695.0000 1.0000
50.6300 759.0000 1.0000
50.6400 730.0000 1.0000
50.6500 727.0000 1.0000
50.6600 715.0000 1.0000
50.6700 702.0000 1.0000
50.6800 673.0000 1.0000
50.6900 724.0000 1.0000
50.7000 713.0000 1.0000
50.7100 738.0000 1.0000
50.7200 724.0000 1.0000
50.7300 724.0000 1.0000
50.7400 701.0000 1.0000
50.7500 740.0000 1.0000
50.7600 721.0000 1.0000
50.7700 708.0000 1.0000
50.7800 722.0000 1.0000
50.7900 725.0000 1.0000
50.8000 689.0000 1.0000
50.8100 757.0000 1.0000
50.8200 726.0000 1.0000
50.8300 693.0000 1.0000
50.8400 741.0000 1.0000
50.8500 721.0000 1.0000
50.8600 684.0000 1.0000
50.8700 723.0000 1.0000
50.8800 721.0000 1.0000
50.8900 677.0000 1.0000
50.9000 746.0000 1.0000
50.9100 742.0000 1.0000
50.9200 753.0000 1.0000
50.9300 706.0000 1.0000
50.9400 686.0000 1.0000
50.9500 729.0000 1.0000
50.9600 734.0000 1.0000
50.9700 750.0000 1.0000
50.9800 735.0000 1.0000
50.9900 707.0000 1.0000
51.0000 703.0000 1.0000
51.0100 739.0000 1.0000
51.0200 763.0000 1.0000
51.0300 742.0000 1.0000
51.0400 756.0000 1.0000
51.0500 660.0000 1.0000
51.0600 689.0000 1.0000
51.0700 687.0000 1.0000
51.0800 732.0000 1.0000
51.0900 693.0000 1.0000
51.1000 709.0000 1.0000
51.1100 694.0000 1.0000
51.1200 721.0000 1.0000
51.1300 732.0000 1.0000
51.1400 735.0000 1.0000
51.1500 709.0000 1.0000
51.1600 734.0000 1.0000
51.1700 707.0000 1.0000
51.1800 710.0000 1.0000
51.1900 722.0000 1.0000
51.2000 752.0000 1.0000
51.2100 777.0000 1.0000
51.2200 717.0000 1.0000
51.2300 731.0000 1.0000
51.2400 746.0000 1.0000
51.2500 748.0000 1.0000
51.2600 733.0000 1.0000
51.2700 715.0000 1.0000
51.2800 662.0000 1.0000
51.2900 686.0000 1.0000
51.3000 735.0000 1.0000
51.3100 661.0000 1.0000
51.3200 712.0000 1.0000
51.3300 725.0000 1.0000
51.3400 739.0000 1.0000
51.3500 736.0000 1.0000
51.3600 726.0000 1.0000
51.3700 716.0000 1.0000
51.3800 738.0000 1.0000
51.3900 723.0000 1.0000
51.4000 735.0000 1.0000
51.4100 721.0000 1.0000
51.4200 699.0000 1.0000
51.4300 733.0000 1.0000
51.4400 745.0000 1.0000
51.4500 738.0000 1.0000
51.4600 737.0000 1.0000
51.4700 747.0000 1.0000
51.4800 733.0000 1.0000
51.4900 769.0000 1.0000
51.5000 705.0000 1.0000
51.5100 700.0000 1.0000
51.5200 726.0000 1.0000
51.5300 695.0000 1.0000
51.5400 758.0000 1.0000
51.5500 741.0000 1.0000
51.5600 727.0000 1.0000
51.5700 762.0000 1.0000
51.5800 764.0000 1.0000
51.5900 736.0000 1.0000
51.6000 751.0000 1.0000
51.6100 715.0000 1.0000
51.6200 749.0000 1.0000
51.6300 753.0000 1.0000
51.6400 767.0000 1.0000
51.6500 756.0000 1.0000
51.6600 770.0000 1.0000
51.6700 846.0000 1.0000
51.6800 757.0000 1.0000
51.6900 764.0000 1.0000
51.7000 785.0000 1.0000
51.7100 772.0000 1.0000
51.7200 789.0000 1.0000
51.7300 770.0000 1.0000
51.7400 818.0000 1.0000
51.7500 777.0000 1.0000
51.7600 764.0000 1.0000
51.7700 768.0000 1.0000
51.7800 832.0000 1.0000
51.7900 840.0000 1.0000
51.8000 821.0000 1.0000
51.8100 883.0000 1.0000
51.8200 851.0000 1.0000
51.8300 874.0000 1.0000
51.8400 842.0000 1.0000
51.8500 866.0000 1.0000
51.8600 902.0000 1.0000
51.8700 930.0000 1.0000
51.8800 904.0000 1.0000
51.8900 940.0000 1.0000
51.9000 960.0000 1.0000
51.9100 990.0000 1.0000
51.9200 1036.0000 1.0000
51.9300 1079.0000 1.0000
51.9400 1113.0000 1.0000
51.9500 1094.0000 1.0000
51.9600 1164.0000 1.0000
51.9700 1206.0000 1.0000
51.9800 1214.0000 1.0000
51.9900 1231.0000 1.0000
52.0000 1265.0000 1.0000
52.0100 1350.0000 1.0000
52.0200 1334.0000 1.0000
52.0300 1466.0000 1.0000
52.0400 1527.0000 1.0000
52.0500 1579.0000 1.0000
52.0600 1665.0000 1.0000
52.0700 1824.0000 1.0000
52.0800 1882.0000 1.0000
52.0900 2130.0000 1.0000
52.1000 2246.0000 1.0000
52.1100 2405.0000 1.0000
52.1200 2610.0000 1.0000
52.1300 2806.0000 1.0000
52.1400 3078.0000 1.0000
52.1500 3353.0000 1.0000
52.1600 3604.0000 1.0000
52.1700 3952.0000 1.0000
52.1800 4184.0000 1.0000
52.1900 4495.0000 1.0000
52.2000 4789.0000 1.0000
52.2100 4966.0000 1.0000
52.2200 5035.0000 1.0000
52.2300 5209.0000 1.0000
52.2400 5288.0000 1.0000
52.2500 5064.0000 1.0000
52.2600 5001.0000 1.0000
52.2700 4800.0000 1.0000
52.2800 4596.0000 1.0000
52.2900 4516.0000 1.0000
52.3000 4475.0000 1.0000
52.3100 4310.0000 1.0000
52.3200 4091.0000 1.0000
52.3300 4094.0000 1.0000
52.3400 4018.0000 1.0000
52.3500 3931.0000 1.0000
52.3600 3898.0000 1.0000
52.3700 3779.0000 1.0000
52.3800 3490.0000 1.0000
52.3900 3335.0000 1.0000
52.4000 3270.0000 1.0000
52.4100 3078.0000 1.0000
52.4200 2836.0000 1.0000
52.4300 2656.0000 1.0000
52.4400 2448.0000 1.0000
52.4500 2236.0000 1.0000
52.4600 2119.0000 1.0000
52.4700 1985.0000 1.0000
52.4800 1858.0000 1.0000
52.4900 1707.0000 1.0000
52.5000 1635.0000 1.0000
52.5100 1597.0000 1.0000
52.5200 1524.0000 1.0000
52.5300 1460.0000 1.0000
52.5400 1396.0000 1.0000
52.5500 1300.0000 1.0000
52.5600 1287.0000 1.0000
52.5700 1225.0000 1.0000
52.5800 1233.0000 1.0000
52.5900 1122.0000 1.0000
52.6000 1110.0000 1.0000
52.6100 1043.0000 1.0000
52.6200 1059.0000 1.0000
52.6300 1068.0000 1.0000
52.6400 1069.0000 1.0000
52.6500 954.0000 1.0000
52.6600 961.0000 1.0000
52.6700 977.0000 1.0000
52.6800 940.0000 1.0000
52.6900 943.0000 1.0000
52.7000 898.0000 1.0000
52.7100 900.0000 1.0000
52.7200 883.0000 1.0000
52.7300 912.0000 1.0000
52.7400 831.0000 1.0000
52.7500 853.0000 1.0000
52.7600 868.0000 1.0000
52.7700 825.0000 1.0000
52.7800 842.0000 1.0000
52.7900 852.0000 1.0000
52.8000 841.0000 1.0000
52.8100 806.0000 1.0000
52.8200 824.0000 1.0000
52.8300 828.0000 1.0000
52.8400 805.0000 1.0000
52.8500 787.0000 1.0000
52.8600 825.0000 1.0000
52.8700 778.0000 1.0000
52.8800 793.0000 1.0000
52.8900 793.0000 1.0000
52.9000 778.0000 1.0000
52.9100 788.0000 1.0000
52.9200 781.0000 1.0000
52.9300 811.0000 1.0000
52.9400 764.0000 1.0000
52.9500 763.0000 1.0000
52.9600 776.0000 1.0000
52.9700 731.0000 1.0000
52.9800 796.0000 1.0000
52.9900 753.0000 1.0000
53.0000 779.0000 1.0000
53.0100 747.0000 1.0000
53.0200 711.0000 1.0000
53.0300 727.0000 1.0000
53.0400 742.0000 1.0000
53.0500 755.0000 1.0000
53.0600 749.0000 1.0000
53.0700 732.0000 1.0000
53.0800 718.0000 1.0000
53.0900 755.0000 1.0000
53.1000 778.0000 1.0000
53.1100 736.0000 1.0000
53.1200 774.0000 1.0000
53.1300 740.0000 1.0000
53.1400 733.0000 1.0000
53.1500 675.0000 1.0000
53.1600 712.0000 1.0000
53.1700 745.0000 1.0000
53.1800 765.0000 1.0000
53.1900 738.0000 1.0000
53.2000 691.0000 1.0000
53.2100 743.0000 1.0000
53.2200 704.0000 1.0000
53.2300 712.0000 1.0000
53.2400 723.0000 1.0000
53.2500 738.0000 1.0000
53.2600 719.0000 1.0000
53.2700 684.0000 1.0000
53.2800 726.0000 1.0000
53.2900 732.0000 1.0000
53.3000 748.0000 1.0000
53.3100 720.0000 1.0000
53.3200 711.0000 1.0000
53.3300 697.0000 1.0000
53.3400 686.0000 1.0000
53.3500 718.0000 1.0000
53.3600 740.0000 1.0000
53.3700 767.0000 1.0000
53.3800 680.0000 1.0000
53.3900 688.0000 1.0000
53.4000 706.0000 1.0000
53.4100 725.0000 1.0000
53.4200 721.0000 1.0000
53.4300 747.0000 1.0000
53.4400 696.0000 1.0000
53.4500 715.0000 1.0000
53.4600 729.0000 1.0000
53.4700 759.0000 1.0000
53.4800 682.0000 1.0000
53.4900 697.0000 1.0000
53.5000 690.0000 1.0000
53.5100 673.0000 1.0000
53.5200 707.0000 1.0000
53.5300 662.0000 1.0000
53.5400 709.0000 1.0000
53.5500 665.0000 1.0000
53.5600 694.0000 1.0000
53.5700 691.0000 1.0000
53.5800 726.0000 1.0000
53.5900 697.0000 1.0000
53.6000 702.0000 1.0000
53.6100 708.0000 1.0000
53.6200 691.0000 1.0000
53.6300 709.0000 1.0000
53.6400 708.0000 1.0000
53.6500 727.0000 1.0000
53.6600 703.0000 1.0000
53.6700 732.0000 1.0000
53.6800 672.0000 1.0000
53.6900 685.0000 1.0000
53.7000 708.0000 1.0000
53.7100 721.0000 1.0000
53.7200 695.0000 1.0000
53.7300 663.0000 1.0000
53.7400 710.0000 1.0000
53.7500 703.0000 1.0000
53.7600 700.0000 1.0000
53.7700 708.0000 1.0000
53.7800 685.0000 1.0000
53.7900 690.0000 1.0000
53.8000 715.0000 1.0000
53.8100 674.0000 1.0000
53.8200 693.0000 1.0000
53.8300 698.0000 1.0000
53.8400 688.0000 1.0000
53.8500 708.0000 1.0000
53.8600 730.0000 1.0000
53.8700 744.0000 1.0000
53.8800 712.0000 1.0000
53.8900 699.0000 1.0000
53.9000 733.0000 1.0000
53.9100 673.0000 1.0000
53.9200 666.0000 1.0000
53.9300 714.0000 1.0000
53.9400 676.0000 1.0000
53.9500 668.0000 1.0000
53.9600 671.0000 1.0000
53.9700 678.0000 1.0000
53.9800 687.0000 1.0000
53.9900 678.0000 1.0000
54.0000 744.0000 1.0000
54.0100 681.0000 1.0000
54.0200 733.0000 1.0000
54.0300 728.0000 1.0000
54.0400 679.0000 1.0000
54.0500 709.0000 1.0000
54.0600 679.0000 1.0000
54.0700 714.0000 1.0000
54.0800 686.0000 1.0000
54.0900 719.0000 1.0000
54.1000 693.0000 1.0000
54.1100 726.0000 1.0000
54.1200 698.0000 1.0000
54.1300 681.0000 1.0000
54.1400 673.0000 1.0000
54.1500 722.0000 1.0000
54.1600 714.0000 1.0000
54.1700 662.0000 1.0000
54.1800 698.0000 1.0000
54.1900 653.0000 1.0000
54.2000 684.0000 1.0000
54.2100 715.0000 1.0000
54.2200 668.0000 1.0000
54.2300 699.0000 1.0000
54.2400 707.0000 1.0000
54.2500 693.0000 1.0000
54.2600 710.0000 1.0000
54.2700 676.0000 1.0000
54.2800 705.0000 1.0000
54.2900 670.0000 1.0000
54.3000 709.0000 1.0000
54.3100 697.0000 1.0000
54.3200 670.0000 1.0000
54.3300 694.0000 1.0000
54.3400 690.0000 1.0000
54.3500 696.0000 1.0000
54.3600 670.0000 1.0000
54.3700 661.0000 1.0000
54.3800 716.0000 1.0000
54.3900 683.0000 1.0000
54.4000 673.0000 1.0000
54.4100 686.0000 1.0000
54.4200 691.0000 1.0000
54.4300 721.0000 1.0000
54.4400 692.0000 1.0000
54.4500 716.0000 1.0000
54.4600 672.0000 1.0000
54.4700 696.0000 1.0000
54.4800 667.0000 1.0000
54.4900 711.0000 1.0000
54.5000 676.0000 1.0000
54.5100 692.0000 1.0000
54.5200 685.0000 1.0000
54.5300 715.0000 1.0000
54.5400 722.0000 1.0000
54.5500 704.0000 1.0000
54.5600 715.0000 1.0000
54.5700 688.0000 1.0000
54.5800 744.0000 1.0000
54.5900 716.0000 1.0000
54.6000 702.0000 1.0000
54.6100 737.0000 1.0000
54.6200 702.0000 1.0000
54.6300 768.0000 1.0000
54.6400 771.0000 1.0000
54.6500 730.0000 1.0000
54.6600 727.0000 1.0000
54.6700 713.0000 1.0000
54.6800 740.0000 1.0000
54.6900 754.0000 1.0000
54.7000 767.0000 1.0000
54.7100 760.0000 1.0000
54.7200 725.0000 1.0000
54.7300 739.0000 1.0000
54.7400 703.0000 1.0000
54.7500 755.0000 1.0000
54.7600 738.0000 1.0000
54.7700 754.0000 1.0000
54.7800 774.0000 1.0000
54.7900 771.0000 1.0000
54.8000 763.0000 1.0000
54.8100 739.0000 1.0000
54.8200 743.0000 1.0000
54.8300 756.0000 1.0000
54.8400 745.0000 1.0000
54.8500 768.0000 1.0000
54.8600 787.0000 1.0000
54.8700 760.0000 1.0000
54.8800 797.0000 1.0000
54.8900 756.0000 1.0000
54.9000 776.0000 1.0000
54.9100 788.0000 1.0000
54.9200 782.0000 1.0000
54.9300 764.0000 1.0000
54.9400 756.0000 1.0000
54.9500 748.0000 1.0000
54.9600 787.0000 1.0000
54.9700 801.0000 1.0000
54.9800 845.0000 1.0000
54.9900 825.0000 1.0000
55.0000 806.0000 1.0000
55.0100 788.0000 1.0000
55.0200 768.0000 1.0000
55.0300 866.0000 1.0000
55.0400 834.0000 1.0000
55.0500 811.0000 1.0000
55.0600 821.0000 1.0000
55.0700 823.0000 1.0000
55.0800 862.0000 1.0000
55.0900 810.0000 1.0000
55.1000 887.0000 1.0000
55.1100 869.0000 1.0000
55.1200 934.0000 1.0000
55.1300 884.0000 1.0000
55.1400 956.0000 1.0000
55.1500 986.0000 1.0000
55.1600 984.0000 1.0000
55.1700 1011.0000 1.0000
55.1800 1045.0000 1.0000
55.1900 1049.0000 1.0000
55.2000 1022.0000 1.0000
55.2100 1065.0000 1.0000
55.2200 1127.0000 1.0000
55.2300 1116.0000 1.0000
55.2400 1138.0000 1.0000
55.2500 1110.0000 1.0000
55.2600 1153.0000 1.0000
55.2700 1066.0000 1.0000
55.2800 1078.0000 1.0000
55.2900 1132.0000 1.0000
55.3000 1096.0000 1.0000
55.3100 1054.0000 1.0000
55.3200 1077.0000 1.0000
55.3300 1075.0000 1.0000
55.3400 1066.0000 1.0000
55.3500 1025.0000 1.0000
55.3600 1046.0000 1.0000
55.3700 1021.0000 1.0000
55.3800 1054.0000 1.0000
55.3900 972.0000 1.0000
55.4000 1036.0000 1.0000
55.4100 974.0000 1.0000
55.4200 992.0000 1.0000
55.4300 975.0000 1.0000
55.4400 922.0000 1.0000
55.4500 957.0000 1.0000
55.4600 916.0000 1.0000
55.4700 874.0000 1.0000
55.4800 899.0000 1.0000
55.4900 846.0000 1.0000
55.5000 849.0000 1.0000
55.5100 847.0000 1.0000
55.5200 845.0000 1.0000
55.5300 841.0000 1.0000
55.5400 783.0000 1.0000
55.5500 754.0000 1.0000
55.5600 827.0000 1.0000
55.5700 797.0000 1.0000
55.5800 752.0000 1.0000
55.5900 797.0000 1.0000
55.6000 755.0000 1.0000
55.6100 761.0000 1.0000
55.6200 758.0000 1.0000
55.6300 746.0000 1.0000
55.6400 745.0000 1.0000
55.6500 717.0000 1.0000
55.6600 776.0000 1.0000
55.6700 717.0000 1.0000
55.6800 680.0000 1.0000
55.6900 716.0000 1.0000
55.7000 707.0000 1.0000
55.7100 724.0000 1.0000
55.7200 740.0000 1.0000
55.7300 742.0000 1.0000
55.7400 737.0000 1.0000
55.7500 670.0000 1.0000
55.7600 708.0000 1.0000
55.7700 703.0000 1.0000
55.7800 699.0000 1.0000
55.7900 694.0000 1.0000
55.8000 692.0000 1.0000
55.8100 721.0000 1.0000
55.8200 732.0000 1.0000
55.8300 717.0000 1.0000
55.8400 719.0000 1.0000
55.8500 706.0000 1.0000
55.8600 697.0000 1.0000
55.8700 697.0000 1.0000
55.8800 718.0000 1.0000
55.8900 733.0000 1.0000
55.9000 679.0000 1.0000
55.9100 682.0000 1.0000
55.9200 651.0000 1.0000
55.9300 700.0000 1.0000
55.9400 676.0000 1.0000
55.9500 681.0000 1.0000
55.9600 698.0000 1.0000
55.9700 679.0000 1.0000
55.9800 679.0000 1.0000
55.9900 732.0000 1.0000
56.0000 671.0000 1.0000
56.0100 691.0000 1.0000
56.0200 662.0000 1.0000
56.0300 667.0000 1.0000
56.0400 699.0000 1.0000
56.0500 685.0000 1.0000
56.0600 685.0000 1.0000
56.0700 749.0000 1.0000
56.0800 714.0000 1.0000
56.0900 698.0000 1.0000
56.1000 717.0000 1.0000
56.1100 668.0000 1.0000
56.1200 702.0000 1.0000
56.1300 659.0000 1.0000
56.1400 667.0000 1.0000
56.1500 659.0000 1.0000
56.1600 676.0000 1.0000
56.1700 712.0000 1.0000
56.1800 673.0000 1.0000
56.1900 682.0000 1.0000
56.2000 666.0000 1.0000
56.2100 623.0000 1.0000
56.2200 673.0000 1.0000
56.2300 684.0000 1.0000
56.2400 667.0000 1.0000
56.2500 698.0000 1.0000
56.2600 692.0000 1.0000
56.2700 674.0000 1.0000
56.2800 666.0000 1.0000
56.2900 662.0000 1.0000
56.3000 712.0000 1.0000
56.3100 678.0000 1.0000
56.3200 646.0000 1.0000
56.3300 655.0000 1.0000
56.3400 678.0000 1.0000
56.3500 658.0000 1.0000
56.3600 700.0000 1.0000
56.3700 645.0000 1.0000
56.3800 651.0000 1.0000
56.3900 665.0000 1.0000
56.4000 647.0000 1.0000
56.4100 659.0000 1.0000
56.4200 681.0000 1.0000
56.4300 658.0000 1.0000
56.4400 665.0000 1.0000
56.4500 694.0000 1.0000
56.4600 718.0000 1.0000
56.4700 704.0000 1.0000
56.4800 666.0000 1.0000
56.4900 690.0000 1.0000
56.5000 658.0000 1.0000
56.5100 621.0000 1.0000
56.5200 672.0000 1.0000
56.5300 678.0000 1.0000
56.5400 658.0000 1.0000
56.5500 660.0000 1.0000
56.5600 664.0000 1.0000
56.5700 649.0000 1.0000
56.5800 634.0000 1.0000
56.5900 652.0000 1.0000
56.6000 653.0000 1.0000
56.6100 635.0000 1.0000
56.6200 670.0000 1.0000
56.6300 672.0000 1.0000
56.6400 667.0000 1.0000
56.6500 687.0000 1.0000
56.6600 646.0000 1.0000
56.6700 633.0000 1.0000
56.6800 665.0000 1.0000
56.6900 655.0000 1.0000
56.7000 663.0000 1.0000
56.7100 672.0000 1.0000
56.7200 689.0000 1.0000
56.7300 713.0000 1.0000
56.7400 678.0000 1.0000
56.7500 687.0000 1.0000
56.7600 665.0000 1.0000
56.7700 668.0000 1.0000
56.7800 608.0000 1.0000
56.7900 694.0000 1.0000
56.8000 672.0000 1.0000
56.8100 673.0000 1.0000
56.8200 638.0000 1.0000
56.8300 675.0000 1.0000
56.8400 675.0000 1.0000
56.8500 714.0000 1.0000
56.8600 630.0000 1.0000
56.8700 628.0000 1.0000
56.8800 652.0000 1.0000
56.8900 645.0000 1.0000
56.9000 666.0000 1.0000
56.9100 644.0000 1.0000
56.9200 693.0000 1.0000
56.9300 697.0000 1.0000
56.9400 683.0000 1.0000
56.9500 681.0000 1.0000
56.9600 654.0000 1.0000
56.9700 680.0000 1.0000
56.9800 705.0000 1.0000
56.9900 660.0000 1.0000
57.0000 649.0000 1.0000
57.0100 694.0000 1.0000
57.0200 690.0000 1.0000
57.0300 669.0000 1.0000
57.0400 668.0000 1.0000
57.0500 677.0000 1.0000
57.0600 696.0000 1.0000
57.0700 646.0000 1.0000
57.0800 665.0000 1.0000
57.0900 682.0000 1.0000
57.1000 654.0000 1.0000
57.1100 647.0000 1.0000
57.1200 669.0000 1.0000
57.1300 656.0000 1.0000
57.1400 677.0000 1.0000
57.1500 682.0000 1.0000
57.1600 684.0000 1.0000
57.1700 708.0000 1.0000
57.1800 675.0000 1.0000
57.1900 677.0000 1.0000
57.2000 650.0000 1.0000
57.2100 692.0000 1.0000
57.2200 654.0000 1.0000
57.2300 684.0000 1.0000
57.2400 678.0000 1.0000
57.2500 664.0000 1.0000
57.2600 674.0000 1.0000
57.2700 678.0000 1.0000
57.2800 673.0000 1.0000
57.2900 682.0000 1.0000
57.3000 682.0000 1.0000
57.3100 688.0000 1.0000
57.3200 694.0000 1.0000
57.3300 692.0000 1.0000
57.3400 652.0000 1.0000
57.3500 651.0000 1.0000
57.3600 667.0000 1.0000
57.3700 694.0000 1.0000
57.3800 687.0000 1.0000
57.3900 697.0000 1.0000
57.4000 681.0000 1.0000
57.4100 640.0000 1.0000
57.4200 648.0000 1.0000
57.4300 666.0000 1.0000
57.4400 687.0000 1.0000
57.4500 647.0000 1.0000
57.4600 664.0000 1.0000
57.4700 690.0000 1.0000
57.4800 681.0000 1.0000
57.4900 682.0000 1.0000
57.5000 675.0000 1.0000
57.5100 631.0000 1.0000
57.5200 677.0000 1.0000
57.5300 693.0000 1.0000
57.5400 698.0000 1.0000
57.5500 709.0000 1.0000
57.5600 641.0000 1.0000
57.5700 675.0000 1.0000
57.5800 622.0000 1.0000
57.5900 665.0000 1.0000
57.6000 684.0000 1.0000
57.6100 645.0000 1.0000
57.6200 637.0000 1.0000
57.6300 686.0000 1.0000
57.6400 668.0000 1.0000
57.6500 683.0000 1.0000
57.6600 665.0000 1.0000
57.6700 642.0000 1.0000
57.6800 662.0000 1.0000
57.6900 619.0000 1.0000
57.7000 683.0000 1.0000
57.7100 695.0000 1.0000
57.7200 674.0000 1.0000
57.7300 674.0000 1.0000
57.7400 660.0000 1.0000
57.7500 665.0000 1.0000
57.7600 667.0000 1.0000
57.7700 641.0000 1.0000
57.7800 685.0000 1.0000
57.7900 668.0000 1.0000
57.8000 651.0000 1.0000
57.8100 686.0000 1.0000
57.8200 665.0000 1.0000
57.8300 668.0000 1.0000
57.8400 673.0000 1.0000
57.8500 661.0000 1.0000
57.8600 634.0000 1.0000
57.8700 649.0000 1.0000
57.8800 666.0000 1.0000
57.8900 669.0000 1.0000
57.9000 639.0000 1.0000
57.9100 706.0000 1.0000
57.9200 639.0000 1.0000
57.9300 673.0000 1.0000
57.9400 683.0000 1.0000
57.9500 713.0000 1.0000
57.9600 712.0000 1.0000
57.9700 697.0000 1.0000
57.9800 656.0000 1.0000
57.9900 677.0000 1.0000
58.0000 667.0000 1.0000
58.0100 664.0000 1.0000
58.0200 676.0000 1.0000
58.0300 654.0000 1.0000
58.0400 677.0000 1.0000
58.0500 698.0000 1.0000
58.0600 706.0000 1.0000
58.0700 660.0000 1.0000
58.0800 672.0000 1.0000
58.0900 661.0000 1.0000
58.1000 706.0000 1.0000
58.1100 703.0000 1.0000
58.1200 709.0000 1.0000
58.1300 659.0000 1.0000
58.1400 721.0000 1.0000
58.1500 683.0000 1.0000
58.1600 674.0000 1.0000
58.1700 644.0000 1.0000
58.1800 676.0000 1.0000
58.1900 661.0000 1.0000
58.2000 651.0000 1.0000
58.2100 653.0000 1.0000
58.2200 677.0000 1.0000
58.2300 702.0000 1.0000
58.2400 707.0000 1.0000
58.2500 661.0000 1.0000
58.2600 664.0000 1.0000
58.2700 664.0000 1.0000
58.2800 657.0000 1.0000
58.2900 684.0000 1.0000
58.3000 722.0000 1.0000
58.3100 745.0000 1.0000
58.3200 687.0000 1.0000
58.3300 666.0000 1.0000
58.3400 675.0000 1.0000
58.3500 648.0000 1.0000
58.3600 680.0000 1.0000
58.3700 664.0000 1.0000
58.3800 695.0000 1.0000
58.3900 695.0000 1.0000
58.4000 700.0000 1.0000
58.4100 701.0000 1.0000
58.4200 676.0000 1.0000
58.4300 661.0000 1.0000
58.4400 635.0000 1.0000
58.4500 682.0000 1.0000
58.4600 687.0000 1.0000
58.4700 698.0000 1.0000
58.4800 678.0000 1.0000
58.4900 712.0000 1.0000
58.5000 660.0000 1.0000
58.5100 632.0000 1.0000
58.5200 640.0000 1.0000
58.5300 661.0000 1.0000
58.5400 685.0000 1.0000
58.5500 710.0000 1.0000
58.5600 655.0000 1.0000
58.5700 628.0000 1.0000
58.5800 657.0000 1.0000
58.5900 655.0000 1.0000
58.6000 641.0000 1.0000
58.6100 636.0000 1.0000
58.6200 639.0000 1.0000
58.6300 652.0000 1.0000
58.6400 653.0000 1.0000
58.6500 648.0000 1.0000
58.6600 700.0000 1.0000
58.6700 690.0000 1.0000
58.6800 659.0000 1.0000
58.6900 675.0000 1.0000
58.7000 644.0000 1.0000
58.7100 655.0000 1.0000
58.7200 670.0000 1.0000
58.7300 670.0000 1.0000
58.7400 644.0000 1.0000
58.7500 626.0000 1.0000
58.7600 646.0000 1.0000
58.7700 699.0000 1.0000
58.7800 676.0000 1.0000
58.7900 697.0000 1.0000
58.8000 665.0000 1.0000
58.8100 658.0000 1.0000
58.8200 636.0000 1.0000
58.8300 643.0000 1.0000
58.8400 659.0000 1.0000
58.8500 607.0000 1.0000
58.8600 664.0000 1.0000
58.8700 644.0000 1.0000
58.8800 694.0000 1.0000
58.8900 678.0000 1.0000
58.9000 666.0000 1.0000
58.9100 688.0000 1.0000
58.9200 647.0000 1.0000
58.9300 697.0000 1.0000
58.9400 664.0000 1.0000
58.9500 619.0000 1.0000
58.9600 660.0000 1.0000
58.9700 665.0000 1.0000
58.9800 704.0000 1.0000
58.9900 624.0000 1.0000
59.0000 675.0000 1.0000
59.0100 627.0000 1.0000
59.0200 668.0000 1.0000
59.0300 691.0000 1.0000
59.0400 687.0000 1.0000
59.0500 688.0000 1.0000
59.0600 687.0000 1.0000
59.0700 673.0000 1.0000
59.0800 678.0000 1.0000
59.0900 660.0000 1.0000
59.1000 651.0000 1.0000
59.1100 697.0000 1.0000
59.1200 666.0000 1.0000
59.1300 665.0000 1.0000
59.1400 610.0000 1.0000
59.1500 663.0000 1.0000
59.1600 673.0000 1.0000
59.1700 676.0000 1.0000
59.1800 649.0000 1.0000
59.1900 681.0000 1.0000
59.2000 716.0000 1.0000
59.2100 656.0000 1.0000
59.2200 708.0000 1.0000
59.2300 648.0000 1.0000
59.2400 693.0000 1.0000
59.2500 683.0000 1.0000
59.2600 691.0000 1.0000
59.2700 658.0000 1.0000
59.2800 639.0000 1.0000
59.2900 663.0000 1.0000
59.3000 665.0000 1.0000
59.3100 681.0000 1.0000
59.3200 719.0000 1.0000
59.3300 687.0000 1.0000
59.3400 670.0000 1.0000
59.3500 708.0000 1.0000
59.3600 648.0000 1.0000
59.3700 639.0000 1.0000
59.3800 667.0000 1.0000
59.3900 655.0000 1.0000
59.4000 675.0000 1.0000
59.4100 680.0000 1.0000
59.4200 661.0000 1.0000
59.4300 657.0000 1.0000
59.4400 624.0000 1.0000
59.4500 656.0000 1.0000
59.4600 677.0000 1.0000
59.4700 660.0000 1.0000
59.4800 716.0000 1.0000
59.4900 626.0000 1.0000
59.5000 689.0000 1.0000
59.5100 657.0000 1.0000
59.5200 646.0000 1.0000
59.5300 623.0000 1.0000
59.5400 648.0000 1.0000
59.5500 667.0000 1.0000
59.5600 650.0000 1.0000
59.5700 646.0000 1.0000
59.5800 627.0000 1.0000
59.5900 693.0000 1.0000
59.6000 684.0000 1.0000
59.6100 685.0000 1.0000
59.6200 671.0000 1.0000
59.6300 674.0000 1.0000
59.6400 655.0000 1.0000
59.6500 647.0000 1.0000
59.6600 655.0000 1.0000
59.6700 666.0000 1.0000
59.6800 644.0000 1.0000
59.6900 672.0000 1.0000
59.7000 663.0000 1.0000
59.7100 649.0000 1.0000
59.7200 675.0000 1.0000
59.7300 665.0000 1.0000
59.7400 671.0000 1.0000
59.7500 678.0000 1.0000
59.7600 658.0000 1.0000
59.7700 633.0000 1.0000
59.7800 684.0000 1.0000
59.7900 725.0000 1.0000
59.8000 639.0000 1.0000
59.8100 696.0000 1.0000
59.8200 659.0000 1.0000
59.8300 656.0000 1.0000
59.8400 672.0000 1.0000
59.8500 654.0000 1.0000
59.8600 654.0000 1.0000
59.8700 668.0000 1.0000
59.8800 645.0000 1.0000
59.8900 667.0000 1.0000
59.9000 646.0000 1.0000
59.9100 650.0000 1.0000
59.9200 695.0000 1.0000
59.9300 667.0000 1.0000
59.9400 660.0000 1.0000
59.9500 677.0000 1.0000
59.9600 665.0000 1.0000
59.9700 663.0000 1.0000
59.9800 645.0000 1.0000
59.9900 670.0000 1.0000
60.0000 683.0000 1.0000
60.0100 668.0000 1.0000
60.0200 632.0000 1.0000
60.0300 637.0000 1.0000
60.0400 658.0000 1.0000
60.0500 656.0000 1.0000
60.0600 660.0000 1.0000
60.0700 661.0000 1.0000
60.0800 655.0000 1.0000
60.0900 664.0000 1.0000
60.1000 668.0000 1.0000
60.1100 651.0000 1.0000
60.1200 665.0000 1.0000
60.1300 655.0000 1.0000
60.1400 671.0000 1.0000
60.1500 655.0000 1.0000
60.1600 666.0000 1.0000
60.1700 640.0000 1.0000
60.1800 682.0000 1.0000
60.1900 666.0000 1.0000
60.2000 668.0000 1.0000
60.2100 656.0000 1.0000
60.2200 616.0000 1.0000
60.2300 661.0000 1.0000
60.2400 690.0000 1.0000
60.2500 647.0000 1.0000
60.2600 620.0000 1.0000
60.2700 653.0000 1.0000
60.2800 683.0000 1.0000
60.2900 682.0000 1.0000
60.3000 656.0000 1.0000
60.3100 641.0000 1.0000
60.3200 673.0000 1.0000
60.3300 711.0000 1.0000
60.3400 632.0000 1.0000
60.3500 618.0000 1.0000
60.3600 662.0000 1.0000
60.3700 614.0000 1.0000
60.3800 635.0000 1.0000
60.3900 659.0000 1.0000
60.4000 667.0000 1.0000
60.4100 655.0000 1.0000
60.4200 681.0000 1.0000
60.4300 666.0000 1.0000
60.4400 686.0000 1.0000
60.4500 670.0000 1.0000
60.4600 671.0000 1.0000
60.4700 664.0000 1.0000
60.4800 663.0000 1.0000
60.4900 683.0000 1.0000
60.5000 652.0000 1.0000
60.5100 627.0000 1.0000
60.5200 634.0000 1.0000
60.5300 650.0000 1.0000
60.5400 697.0000 1.0000
60.5500 694.0000 1.0000
60.5600 647.0000 1.0000
60.5700 692.0000 1.0000
60.5800 670.0000 1.0000
60.5900 644.0000 1.0000
60.6000 652.0000 1.0000
60.6100 647.0000 1.0000
60.6200 677.0000 1.0000
60.6300 680.0000 1.0000
60.6400 652.0000 1.0000
60.6500 675.0000 1.0000
60.6600 651.0000 1.0000
60.6700 650.0000 1.0000
60.6800 667.0000 1.0000
60.6900 627.0000 1.0000
60.7000 636.0000 1.0000
60.7100 661.0000 1.0000
60.7200 711.0000 1.0000
60.7300 659.0000 1.0000
60.7400 627.0000 1.0000
60.7500 634.0000 1.0000
60.7600 679.0000 1.0000
60.7700 655.0000 1.0000
60.7800 661.0000 1.0000
60.7900 656.0000 1.0000
60.8000 629.0000 1.0000
60.8100 707.0000 1.0000
60.8200 672.0000 1.0000
60.8300 644.0000 1.0000
60.8400 646.0000 1.0000
60.8500 684.0000 1.0000
60.8600 658.0000 1.0000
60.8700 650.0000 1.0000
60.8800 660.0000 1.0000
60.8900 692.0000 1.0000
60.9000 626.0000 1.0000
60.9100 643.0000 1.0000
60.9200 648.0000 1.0000
60.9300 661.0000 1.0000
60.9400 650.0000 1.0000
60.9500 662.0000 1.0000
60.9600 635.0000 1.0000
60.9700 681.0000 1.0000
60.9800 688.0000 1.0000
60.9900 714.0000 1.0000
61.0000 635.0000 1.0000
61.0100 696.0000 1.0000
61.0200 666.0000 1.0000
61.0300 670.0000 1.0000
61.0400 681.0000 1.0000
61.0500 646.0000 1.0000
61.0600 643.0000 1.0000
61.0700 689.0000 1.0000
61.0800 714.0000 1.0000
61.0900 665.0000 1.0000
61.1000 668.0000 1.0000
61.1100 703.0000 1.0000
61.1200 699.0000 1.0000
61.1300 654.0000 1.0000
61.1400 643.0000 1.0000
61.1500 645.0000 1.0000
61.1600 657.0000 1.0000
61.1700 668.0000 1.0000
61.1800 614.0000 1.0000
61.1900 659.0000 1.0000
61.2000 684.0000 1.0000
61.2100 659.0000 1.0000
61.2200 678.0000 1.0000
61.2300 679.0000 1.0000
61.2400 728.0000 1.0000
61.2500 701.0000 1.0000
61.2600 638.0000 1.0000
61.2700 663.0000 1.0000
61.2800 704.0000 1.0000
61.2900 674.0000 1.0000
61.3000 679.0000 1.0000
61.3100 740.0000 1.0000
61.3200 700.0000 1.0000
61.3300 681.0000 1.0000
61.3400 664.0000 1.0000
61.3500 649.0000 1.0000
61.3600 670.0000 1.0000
61.3700 691.0000 1.0000
61.3800 673.0000 1.0000
61.3900 676.0000 1.0000
61.4000 651.0000 1.0000
61.4100 703.0000 1.0000
61.4200 648.0000 1.0000
61.4300 661.0000 1.0000
61.4400 675.0000 1.0000
61.4500 691.0000 1.0000
61.4600 672.0000 1.0000
61.4700 695.0000 1.0000
61.4800 713.0000 1.0000
61.4900 716.0000 1.0000
61.5000 672.0000 1.0000
61.5100 660.0000 1.0000
61.5200 703.0000 1.0000
61.5300 644.0000 1.0000
61.5400 675.0000 1.0000
61.5500 684.0000 1.0000
61.5600 697.0000 1.0000
61.5700 674.0000 1.0000
61.5800 710.0000 1.0000
61.5900 749.0000 1.0000
61.6000 707.0000 1.0000
61.6100 699.0000 1.0000
61.6200 702.0000 1.0000
61.6300 748.0000 1.0000
61.6400 732.0000 1.0000
61.6500 714.0000 1.0000
61.6600 680.0000 1.0000
61.6700 693.0000 1.0000
61.6800 713.0000 1.0000
61.6900 715.0000 1.0000
61.7000 718.0000 1.0000
61.7100 766.0000 1.0000
61.7200 719.0000 1.0000
61.7300 693.0000 1.0000
61.7400 748.0000 1.0000
61.7500 734.0000 1.0000
61.7600 774.0000 1.0000
61.7700 755.0000 1.0000
61.7800 727.0000 1.0000
61.7900 756.0000 1.0000
61.8000 747.0000 1.0000
61.8100 829.0000 1.0000
61.8200 788.0000 1.0000
61.8300 727.0000 1.0000
61.8400 766.0000 1.0000
61.8500 782.0000 1.0000
61.8600 762.0000 1.0000
61.8700 793.0000 1.0000
61.8800 738.0000 1.0000
61.8900 830.0000 1.0000
61.9000 823.0000 1.0000
61.9100 839.0000 1.0000
61.9200 820.0000 1.0000
61.9300 851.0000 1.0000
61.9400 900.0000 1.0000
61.9500 910.0000 1.0000
61.9600 882.0000 1.0000
61.9700 919.0000 1.0000
61.9800 943.0000 1.0000
61.9900 991.0000 1.0000
62.0000 956.0000 1.0000
62.0100 980.0000 1.0000
62.0200 979.0000 1.0000
62.0300 1005.0000 1.0000
62.0400 1049.0000 1.0000
62.0500 1119.0000 1.0000
62.0600 1143.0000 1.0000
62.0700 1131.0000 1.0000
62.0800 1173.0000 1.0000
62.0900 1218.0000 1.0000
62.1000 1240.0000 1.0000
62.1100 1323.0000 1.0000
62.1200 1321.0000 1.0000
62.1300 1350.0000 1.0000
62.1400 1327.0000 1.0000
62.1500 1513.0000 1.0000
62.1600 1483.0000 1.0000
62.1700 1443.0000 1.0000
62.1800 1578.0000 1.0000
62.1900 1522.0000 1.0000
62.2000 1637.0000 1.0000
62.2100 1650.0000 1.0000
62.2200 1639.0000 1.0000
62.2300 1729.0000 1.0000
62.2400 1729.0000 1.0000
62.2500 1734.0000 1.0000
62.2600 1758.0000 1.0000
62.2700 1755.0000 1.0000
62.2800 1743.0000 1.0000
62.2900 1752.0000 1.0000
62.3000 1728.0000 1.0000
62.3100 1721.0000 1.0000
62.3200 1689.0000 1.0000
62.3300 1670.0000 1.0000
62.3400 1660.0000 1.0000
62.3500 1634.0000 1.0000
62.3600 1593.0000 1.0000
62.3700 1596.0000 1.0000
62.3800 1593.0000 1.0000
62.3900 1595.0000 1.0000
62.4000 1494.0000 1.0000
62.4100 1541.0000 1.0000
62.4200 1450.0000 1.0000
62.4300 1449.0000 1.0000
62.4400 1429.0000 1.0000
62.4500 1436.0000 1.0000
62.4600 1312.0000 1.0000
62.4700 1318.0000 1.0000
62.4800 1254.0000 1.0000
62.4900 1322.0000 1.0000
62.5000 1285.0000 1.0000
62.5100 1206.0000 1.0000
62.5200 1196.0000 1.0000
62.5300 1181.0000 1.0000
62.5400 1161.0000 1.0000
62.5500 1130.0000 1.0000
62.5600 1060.0000 1.0000
62.5700 1030.0000 1.0000
62.5800 1070.0000 1.0000
62.5900 1010.0000 1.0000
62.6000 1009.0000 1.0000
62.6100 1013.0000 1.0000
62.6200 994.0000 1.0000
62.6300 909.0000 1.0000
62.6400 985.0000 1.0000
62.6500 941.0000 1.0000
62.6600 958.0000 1.0000
62.6700 874.0000 1.0000
62.6800 889.0000 1.0000
62.6900 886.0000 1.0000
62.7000 868.0000 1.0000
62.7100 853.0000 1.0000
62.7200 877.0000 1.0000
62.7300 854.0000 1.0000
62.7400 839.0000 1.0000
62.7500 832.0000 1.0000
62.7600 861.0000 1.0000
62.7700 827.0000 1.0000
62.7800 784.0000 1.0000
62.7900 828.0000 1.0000
62.8000 805.0000 1.0000
62.8100 782.0000 1.0000
62.8200 786.0000 1.0000
62.8300 756.0000 1.0000
62.8400 775.0000 1.0000
62.8500 766.0000 1.0000
62.8600 789.0000 1.0000
62.8700 795.0000 1.0000
62.8800 731.0000 1.0000
62.8900 697.0000 1.0000
62.9000 727.0000 1.0000
62.9100 763.0000 1.0000
62.9200 800.0000 1.0000
62.9300 752.0000 1.0000
62.9400 760.0000 1.0000
62.9500 723.0000 1.0000
62.9600 730.0000 1.0000
62.9700 746.0000 1.0000
62.9800 767.0000 1.0000
62.9900 741.0000 1.0000
63.0000 786.0000 1.0000
63.0100 727.0000 1.0000
63.0200 743.0000 1.0000
63.0300 763.0000 1.0000
63.0400 721.0000 1.0000
63.0500 730.0000 1.0000
63.0600 708.0000 1.0000
63.0700 730.0000 1.0000
63.0800 731.0000 1.0000
63.0900 712.0000 1.0000
63.1000 733.0000 1.0000
63.1100 706.0000 1.0000
63.1200 770.0000 1.0000
63.1300 746.0000 1.0000
63.1400 732.0000 1.0000
63.1500 730.0000 1.0000
63.1600 712.0000 1.0000
63.1700 707.0000 1.0000
63.1800 709.0000 1.0000
63.1900 704.0000 1.0000
63.2000 710.0000 1.0000
63.2100 693.0000 1.0000
63.2200 761.0000 1.0000
63.2300 707.0000 1.0000
63.2400 678.0000 1.0000
63.2500 718.0000 1.0000
63.2600 676.0000 1.0000
63.2700 663.0000 1.0000
63.2800 701.0000 1.0000
63.2900 712.0000 1.0000
63.3000 684.0000 1.0000
63.3100 752.0000 1.0000
63.3200 731.0000 1.0000
63.3300 656.0000 1.0000
63.3400 708.0000 1.0000
63.3500 688.0000 1.0000
63.3600 685.0000 1.0000
63.3700 686.0000 1.0000
63.3800 688.0000 1.0000
63.3900 732.0000 1.0000
63.4000 692.0000 1.0000
63.4100 655.0000 1.0000
63.4200 705.0000 1.0000
63.4300 673.0000 1.0000
63.4400 716.0000 1.0000
63.4500 664.0000 1.0000
63.4600 718.0000 1.0000
63.4700 655.0000 1.0000
63.4800 687.0000 1.0000
63.4900 659.0000 1.0000
63.5000 662.0000 1.0000
63.5100 631.0000 1.0000
63.5200 655.0000 1.0000
63.5300 634.0000 1.0000
63.5400 665.0000 1.0000
63.5500 644.0000 1.0000
63.5600 654.0000 1.0000
63.5700 673.0000 1.0000
63.5800 681.0000 1.0000
63.5900 690.0000 1.0000
63.6000 715.0000 1.0000
63.6100 664.0000 1.0000
63.6200 714.0000 1.0000
63.6300 701.0000 1.0000
63.6400 649.0000 1.0000
63.6500 624.0000 1.0000
63.6600 660.0000 1.0000
63.6700 682.0000 1.0000
63.6800 677.0000 1.0000
63.6900 624.0000 1.0000
63.7000 659.0000 1.0000
63.7100 675.0000 1.0000
63.7200 658.0000 1.0000
63.7300 645.0000 1.0000
63.7400 664.0000 1.0000
63.7500 657.0000 1.0000
63.7600 659.0000 1.0000
63.7700 701.0000 1.0000
63.7800 710.0000 1.0000
63.7900 682.0000 1.0000
63.8000 673.0000 1.0000
63.8100 665.0000 1.0000
63.8200 658.0000 1.0000
63.8300 655.0000 1.0000
63.8400 671.0000 1.0000
63.8500 693.0000 1.0000
63.8600 733.0000 1.0000
63.8700 700.0000 1.0000
63.8800 682.0000 1.0000
63.8900 683.0000 1.0000
63.9000 674.0000 1.0000
63.9100 675.0000 1.0000
63.9200 677.0000 1.0000
63.9300 653.0000 1.0000
63.9400 679.0000 1.0000
63.9500 720.0000 1.0000
63.9600 706.0000 1.0000
63.9700 719.0000 1.0000
63.9800 699.0000 1.0000
63.9900 688.0000 1.0000
64.0000 663.0000 1.0000
64.0100 692.0000 1.0000
64.0200 713.0000 1.0000
64.0300 682.0000 1.0000
64.0400 659.0000 1.0000
64.0500 649.0000 1.0000
64.0600 649.0000 1.0000
64.0700 657.0000 1.0000
64.0800 693.0000 1.0000
64.0900 680.0000 1.0000
64.1000 675.0000 1.0000
64.1100 666.0000 1.0000
64.1200 674.0000 1.0000
64.1300 707.0000 1.0000
64.1400 652.0000 1.0000
64.1500 671.0000 1.0000
64.1600 702.0000 1.0000
64.1700 705.0000 1.0000
64.1800 691.0000 1.0000
64.1900 677.0000 1.0000
64.2000 709.0000 1.0000
64.2100 635.0000 1.0000
64.2200 667.0000 1.0000
64.2300 683.0000 1.0000
64.2400 694.0000 1.0000
64.2500 672.0000 1.0000
64.2600 673.0000 1.0000
64.2700 650.0000 1.0000
64.2800 630.0000 1.0000
64.2900 691.0000 1.0000
64.3000 646.0000 1.0000
64.3100 678.0000 1.0000
64.3200 684.0000 1.0000
64.3300 675.0000 1.0000
64.3400 724.0000 1.0000
64.3500 691.0000 1.0000
64.3600 719.0000 1.0000
64.3700 706.0000 1.0000
64.3800 663.0000 1.0000
64.3900 723.0000 1.0000
64.4000 718.0000 1.0000
64.4100 693.0000 1.0000
64.4200 659.0000 1.0000
64.4300 685.0000 1.0000
64.4400 758.0000 1.0000
64.4500 695.0000 1.0000
64.4600 738.0000 1.0000
64.4700 706.0000 1.0000
64.4800 729.0000 1.0000
64.4900 742.0000 1.0000
64.5000 714.0000 1.0000
64.5100 729.0000 1.0000
64.5200 714.0000 1.0000
64.5300 739.0000 1.0000
64.5400 746.0000 1.0000
64.5500 724.0000 1.0000
64.5600 713.0000 1.0000
64.5700 745.0000 1.0000
64.5800 761.0000 1.0000
64.5900 756.0000 1.0000
64.6000 725.0000 1.0000
64.6100 783.0000 1.0000
64.6200 790.0000 1.0000
64.6300 771.0000 1.0000
64.6400 799.0000 1.0000
64.6500 751.0000 1.0000
64.6600 766.0000 1.0000
64.6700 785.0000 1.0000
64.6800 719.0000 1.0000
64.6900 754.0000 1.0000
64.7000 776.0000 1.0000
64.7100 790.0000 1.0000
64.7200 725.0000 1.0000
64.7300 727.0000 1.0000
64.7400 765.0000 1.0000
64.7500 770.0000 1.0000
64.7600 741.0000 1.0000
64.7700 755.0000 1.0000
64.7800 724.0000 1.0000
64.7900 765.0000 1.0000
64.8000 773.0000 1.0000
64.8100 817.0000 1.0000
64.8200 752.0000 1.0000
64.8300 750.0000 1.0000
64.8400 744.0000 1.0000
64.8500 787.0000 1.0000
64.8600 741.0000 1.0000
64.8700 758.0000 1.0000
64.8800 789.0000 1.0000
64.8900 769.0000 1.0000
64.9000 782.0000 1.0000
64.9100 722.0000 1.0000
64.9200 762.0000 1.0000
64.9300 780.0000 1.0000
64.9400 722.0000 1.0000
64.9500 712.0000 1.0000
64.9600 688.0000 1.0000
64.9700 716.0000 1.0000
64.9800 753.0000 1.0000
64.9900 728.0000 1.0000
65.0000 719.0000 1.0000
65.0100 738.0000 1.0000
65.0200 714.0000 1.0000
65.0300 715.0000 1.0000
65.0400 736.0000 1.0000
65.0500 744.0000 1.0000
65.0600 711.0000 1.0000
65.0700 655.0000 1.0000
65.0800 699.0000 1.0000
65.0900 690.0000 1.0000
65.1000 704.0000 1.0000
65.1100 692.0000 1.0000
65.1200 711.0000 1.0000
65.1300 714.0000 1.0000
65.1400 724.0000 1.0000
65.1500 714.0000 1.0000
65.1600 661.0000 1.0000
65.1700 686.0000 1.0000
65.1800 728.0000 1.0000
65.1900 747.0000 1.0000
65.2000 713.0000 1.0000
65.2100 654.0000 1.0000
65.2200 685.0000 1.0000
65.2300 686.0000 1.0000
65.2400 728.0000 1.0000
65.2500 655.0000 1.0000
65.2600 713.0000 1.0000
65.2700 700.0000 1.0000
65.2800 685.0000 1.0000
65.2900 697.0000 1.0000
65.3000 658.0000 1.0000
65.3100 709.0000 1.0000
65.3200 738.0000 1.0000
65.3300 706.0000 1.0000
65.3400 717.0000 1.0000
65.3500 684.0000 1.0000
65.3600 696.0000 1.0000
65.3700 735.0000 1.0000
65.3800 663.0000 1.0000
65.3900 733.0000 1.0000
65.4000 730.0000 1.0000
65.4100 728.0000 1.0000
65.4200 730.0000 1.0000
65.4300 732.0000 1.0000
65.4400 704.0000 1.0000
65.4500 699.0000 1.0000
65.4600 740.0000 1.0000
65.4700 750.0000 1.0000
65.4800 722.0000 1.0000
65.4900 743.0000 1.0000
65.5000 685.0000 1.0000
65.5100 711.0000 1.0000
65.5200 682.0000 1.0000
65.5300 723.0000 1.0000
65.5400 714.0000 1.0000
65.5500 670.0000 1.0000
65.5600 744.0000 1.0000
65.5700 681.0000 1.0000
65.5800 703.0000 1.0000
65.5900 731.0000 1.0000
65.6000 725.0000 1.0000
65.6100 718.0000 1.0000
65.6200 769.0000 1.0000
65.6300 714.0000 1.0000
65.6400 716.0000 1.0000
65.6500 741.0000 1.0000
65.6600 744.0000 1.0000
65.6700 759.0000 1.0000
65.6800 759.0000 1.0000
65.6900 763.0000 1.0000
65.7000 712.0000 1.0000
65.7100 759.0000 1.0000
65.7200 742.0000 1.0000
65.7300 790.0000 1.0000
65.7400 830.0000 1.0000
65.7500 772.0000 1.0000
65.7600 787.0000 1.0000
65.7700 751.0000 1.0000
65.7800 788.0000 1.0000
65.7900 752.0000 1.0000
65.8000 809.0000 1.0000
65.8100 839.0000 1.0000
65.8200 848.0000 1.0000
65.8300 832.0000 1.0000
65.8400 860.0000 1.0000
65.8500 880.0000 1.0000
65.8600 890.0000 1.0000
65.8700 908.0000 1.0000
65.8800 885.0000 1.0000
65.8900 931.0000 1.0000
65.9000 948.0000 1.0000
65.9100 968.0000 1.0000
65.9200 984.0000 1.0000
65.9300 983.0000 1.0000
65.9400 1065.0000 1.0000
65.9500 1047.0000 1.0000
65.9600 1042.0000 1.0000
65.9700 1090.0000 1.0000
65.9800 1118.0000 1.0000
65.9900 1160.0000 1.0000
66.0000 1193.0000 1.0000
66.0100 1236.0000 1.0000
66.0200 1272.0000 1.0000
66.0300 1370.0000 1.0000
66.0400 1471.0000 1.0000
66.0500 1469.0000 1.0000
66.0600 1518.0000 1.0000
66.0700 1584.0000 1.0000
66.0800 1642.0000 1.0000
66.0900 1778.0000 1.0000
66.1000 1880.0000 1.0000
66.1100 1948.0000 1.0000
66.1200 2172.0000 1.0000
66.1300 2275.0000 1.0000
66.1400 2364.0000 1.0000
66.1500 2433.0000 1.0000
66.1600 2542.0000 1.0000
66.1700 2694.0000 1.0000
66.1800 2766.0000 1.0000
66.1900 2781.0000 1.0000
66.2000 2803.0000 1.0000
66.2100 2797.0000 1.0000
66.2200 2837.0000 1.0000
66.2300 2763.0000 1.0000
66.2400 2622.0000 1.0000
66.2500 2649.0000 1.0000
66.2600 2617.0000 1.0000
66.2700 2512.0000 1.0000
66.2800 2635.0000 1.0000
66.2900 2457.0000 1.0000
66.3000 2453.0000 1.0000
66.3100 2511.0000 1.0000
66.3200 2352.0000 1.0000
66.3300 2430.0000 1.0000
66.3400 2398.0000 1.0000
66.3500 2329.0000 1.0000
66.3600 2354.0000 1.0000
66.3700 2370.0000 1.0000
66.3800 2217.0000 1.0000
66.3900 2162.0000 1.0000
66.4000 2129.0000 1.0000
66.4100 2137.0000 1.0000
66.4200 2022.0000 1.0000
66.4300 1962.0000 1.0000
66.4400 1864.0000 1.0000
66.4500 1796.0000 1.0000
66.4600 1722.0000 1.0000
66.4700 1641.0000 1.0000
66.4800 1628.0000 1.0000
66.4900 1556.0000 1.0000
66.5000 1461.0000 1.0000
66.5100 1406.0000 1.0000
66.5200 1347.0000 1.0000
66.5300 1259.0000 1.0000
66.5400 1255.0000 1.0000
66.5500 1306.0000 1.0000
66.5600 1234.0000 1.0000
66.5700 1182.0000 1.0000
66.5800 1159.0000 1.0000
66.5900 1069.0000 1.0000
66.6000 1030.0000 1.0000
66.6100 1027.0000 1.0000
66.6200 985.0000 1.0000
66.6300 950.0000 1.0000
66.6400 945.0000 1.0000
66.6500 960.0000 1.0000
66.6600 970.0000 1.0000
66.6700 931.0000 1.0000
66.6800 916.0000 1.0000
66.6900 888.0000 1.0000
66.7000 827.0000 1.0000
66.7100 804.0000 1.0000
66.7200 849.0000 1.0000
66.7300 824.0000 1.0000
66.7400 829.0000 1.0000
66.7500 838.0000 1.0000
66.7600 807.0000 1.0000
66.7700 786.0000 1.0000
66.7800 780.0000 1.0000
66.7900 798.0000 1.0000
66.8000 773.0000 1.0000
66.8100 774.0000 1.0000
66.8200 735.0000 1.0000
66.8300 761.0000 1.0000
66.8400 776.0000 1.0000
66.8500 794.0000 1.0000
66.8600 704.0000 1.0000
66.8700 724.0000 1.0000
66.8800 733.0000 1.0000
66.8900 701.0000 1.0000
66.9000 673.0000 1.0000
66.9100 736.0000 1.0000
66.9200 675.0000 1.0000
66.9300 727.0000 1.0000
66.9400 702.0000 1.0000
66.9500 707.0000 1.0000
66.9600 706.0000 1.0000
66.9700 699.0000 1.0000
66.9800 701.0000 1.0000
66.9900 688.0000 1.0000
67.0000 732.0000 1.0000
67.0100 661.0000 1.0000
67.0200 684.0000 1.0000
67.0300 690.0000 1.0000
67.0400 676.0000 1.0000
67.0500 688.0000 1.0000
67.0600 689.0000 1.0000
67.0700 698.0000 1.0000
67.0800 660.0000 1.0000
67.0900 662.0000 1.0000
67.1000 652.0000 1.0000
67.1100 658.0000 1.0000
67.1200 699.0000 1.0000
67.1300 649.0000 1.0000
67.1400 705.0000 1.0000
67.1500 663.0000 1.0000
67.1600 674.0000 1.0000
67.1700 671.0000 1.0000
67.1800 685.0000 1.0000
67.1900 641.0000 1.0000
67.2000 648.0000 1.0000
67.2100 649.0000 1.0000
67.2200 655.0000 1.0000
67.2300 681.0000 1.0000
67.2400 671.0000 1.0000
67.2500 658.0000 1.0000
67.2600 650.0000 1.0000
67.2700 638.0000 1.0000
67.2800 621.0000 1.0000
67.2900 661.0000 1.0000
67.3000 657.0000 1.0000
67.3100 645.0000 1.0000
67.3200 636.0000 1.0000
67.3300 657.0000 1.0000
67.3400 674.0000 1.0000
67.3500 633.0000 1.0000
67.3600 634.0000 1.0000
67.3700 645.0000 1.0000
67.3800 612.0000 1.0000
67.3900 632.0000 1.0000
67.4000 648.0000 1.0000
67.4100 692.0000 1.0000
67.4200 674.0000 1.0000
67.4300 679.0000 1.0000
67.4400 632.0000 1.0000
67.4500 634.0000 1.0000
67.4600 637.0000 1.0000
67.4700 622.0000 1.0000
67.4800 599.0000 1.0000
67.4900 583.0000 1.0000
67.5000 601.0000 1.0000
67.5100 644.0000 1.0000
67.5200 628.0000 1.0000
67.5300 650.0000 1.0000
67.5400 630.0000 1.0000
67.5500 622.0000 1.0000
67.5600 608.0000 1.0000
67.5700 640.0000 1.0000
67.5800 634.0000 1.0000
67.5900 592.0000 1.0000
67.6000 664.0000 1.0000
67.6100 605.0000 1.0000
67.6200 640.0000 1.0000
67.6300 618.0000 1.0000
67.6400 650.0000 1.0000
67.6500 613.0000 1.0000
67.6600 616.0000 1.0000
67.6700 616.0000 1.0000
67.6800 595.0000 1.0000
67.6900 671.0000 1.0000
67.7000 632.0000 1.0000
67.7100 660.0000 1.0000
67.7200 654.0000 1.0000
67.7300 604.0000 1.0000
67.7400 645.0000 1.0000
67.7500 665.0000 1.0000
67.7600 623.0000 1.0000
67.7700 634.0000 1.0000
67.7800 598.0000 1.0000
67.7900 610.0000 1.0000
67.8000 626.0000 1.0000
67.8100 608.0000 1.0000
67.8200 606.0000 1.0000
67.8300 676.0000 1.0000
67.8400 649.0000 1.0000
67.8500 612.0000 1.0000
67.8600 587.0000 1.0000
67.8700 621.0000 1.0000
67.8800 624.0000 1.0000
67.8900 613.0000 1.0000
67.9000 630.0000 1.0000
67.9100 584.0000 1.0000
67.9200 636.0000 1.0000
67.9300 605.0000 1.0000
67.9400 610.0000 1.0000
67.9500 619.0000 1.0000
67.9600 617.0000 1.0000
67.9700 633.0000 1.0000
67.9800 598.0000 1.0000
67.9900 574.0000 1.0000
68.0000 603.0000 1.0000
68.0100 604.0000 1.0000
68.0200 609.0000 1.0000
68.0300 639.0000 1.0000
68.0400 594.0000 1.0000
68.0500 588.0000 1.0000
68.0600 601.0000 1.0000
68.0700 636.0000 1.0000
68.0800 589.0000 1.0000
68.0900 597.0000 1.0000
68.1000 610.0000 1.0000
68.1100 624.0000 1.0000
68.1200 606.0000 1.0000
68.1300 638.0000 1.0000
68.1400 636.0000 1.0000
68.1500 622.0000 1.0000
68.1600 619.0000 1.0000
68.1700 615.0000 1.0000
68.1800 573.0000 1.0000
68.1900 616.0000 1.0000
68.2000 635.0000 1.0000
68.2100 619.0000 1.0000
68.2200 615.0000 1.0000
68.2300 610.0000 1.0000
68.2400 625.0000 1.0000
68.2500 615.0000 1.0000
68.2600 625.0000 1.0000
68.2700 612.0000 1.0000
68.2800 584.0000 1.0000
68.2900 600.0000 1.0000
68.3000 607.0000 1.0000
68.3100 601.0000 1.0000
68.3200 595.0000 1.0000
68.3300 633.0000 1.0000
68.3400 572.0000 1.0000
68.3500 590.0000 1.0000
68.3600 624.0000 1.0000
68.3700 610.0000 1.0000
68.3800 611.0000 1.0000
68.3900 620.0000 1.0000
68.4000 607.0000 1.0000
68.4100 641.0000 1.0000
68.4200 615.0000 1.0000
68.4300 647.0000 1.0000
68.4400 629.0000 1.0000
68.4500 598.0000 1.0000
68.4600 606.0000 1.0000
68.4700 617.0000 1.0000
68.4800 603.0000 1.0000
68.4900 638.0000 1.0000
68.5000 613.0000 1.0000
68.5100 612.0000 1.0000
68.5200 591.0000 1.0000
68.5300 575.0000 1.0000
68.5400 633.0000 1.0000
68.5500 576.0000 1.0000
68.5600 620.0000 1.0000
68.5700 596.0000 1.0000
68.5800 620.0000 1.0000
68.5900 601.0000 1.0000
68.6000 603.0000 1.0000
68.6100 603.0000 1.0000
68.6200 602.0000 1.0000
68.6300 606.0000 1.0000
68.6400 608.0000 1.0000
68.6500 579.0000 1.0000
68.6600 601.0000 1.0000
68.6700 589.0000 1.0000
68.6800 580.0000 1.0000
68.6900 590.0000 1.0000
68.7000 609.0000 1.0000
68.7100 544.0000 1.0000
68.7200 605.0000 1.0000
68.7300 619.0000 1.0000
68.7400 617.0000 1.0000
68.7500 622.0000 1.0000
68.7600 605.0000 1.0000
68.7700 602.0000 1.0000
68.7800 647.0000 1.0000
68.7900 607.0000 1.0000
68.8000 595.0000 1.0000
68.8100 599.0000 1.0000
68.8200 569.0000 1.0000
68.8300 604.0000 1.0000
68.8400 624.0000 1.0000
68.8500 587.0000 1.0000
68.8600 569.0000 1.0000
68.8700 601.0000 1.0000
68.8800 615.0000 1.0000
68.8900 603.0000 1.0000
68.9000 613.0000 1.0000
68.9100 582.0000 1.0000
68.9200 583.0000 1.0000
68.9300 629.0000 1.0000
68.9400 620.0000 1.0000
68.9500 635.0000 1.0000
68.9600 603.0000 1.0000
68.9700 607.0000 1.0000
68.9800 625.0000 1.0000
68.9900 601.0000 1.0000
69.0000 560.0000 1.0000
69.0100 554.0000 1.0000
69.0200 574.0000 1.0000
69.0300 576.0000 1.0000
69.0400 606.0000 1.0000
69.0500 610.0000 1.0000
69.0600 579.0000 1.0000
69.0700 594.0000 1.0000
69.0800 598.0000 1.0000
69.0900 614.0000 1.0000
69.1000 593.0000 1.0000
69.1100 574.0000 1.0000
69.1200 600.0000 1.0000
69.1300 621.0000 1.0000
69.1400 606.0000 1.0000
69.1500 575.0000 1.0000
69.1600 611.0000 1.0000
69.1700 621.0000 1.0000
69.1800 575.0000 1.0000
69.1900 613.0000 1.0000
69.2000 627.0000 1.0000
69.2100 592.0000 1.0000
69.2200 569.0000 1.0000
69.2300 585.0000 1.0000
69.2400 599.0000 1.0000
69.2500 638.0000 1.0000
69.2600 593.0000 1.0000
69.2700 563.0000 1.0000
69.2800 647.0000 1.0000
69.2900 617.0000 1.0000
69.3000 576.0000 1.0000
69.3100 554.0000 1.0000
69.3200 609.0000 1.0000
69.3300 594.0000 1.0000
69.3400 564.0000 1.0000
69.3500 601.0000 1.0000
69.3600 556.0000 1.0000
69.3700 599.0000 1.0000
69.3800 611.0000 1.0000
69.3900 629.0000 1.0000
69.4000 600.0000 1.0000
69.4100 623.0000 1.0000
69.4200 626.0000 1.0000
69.4300 583.0000 1.0000
69.4400 596.0000 1.0000
69.4500 618.0000 1.0000
69.4600 591.0000 1.0000
69.4700 588.0000 1.0000
69.4800 595.0000 1.0000
69.4900 590.0000 1.0000
69.5000 595.0000 1.0000
69.5100 581.0000 1.0000
69.5200 632.0000 1.0000
69.5300 610.0000 1.0000
69.5400 579.0000 1.0000
69.5500 613.0000 1.0000
69.5600 637.0000 1.0000
69.5700 598.0000 1.0000
69.5800 573.0000 1.0000
69.5900 599.0000 1.0000
69.6000 613.0000 1.0000
69.6100 601.0000 1.0000
69.6200 591.0000 1.0000
69.6300 600.0000 1.0000
69.6400 613.0000 1.0000
69.6500 625.0000 1.0000
69.6600 601.0000 1.0000
69.6700 611.0000 1.0000
69.6800 635.0000 1.0000
69.6900 607.0000 1.0000
69.7000 567.0000 1.0000
69.7100 578.0000 1.0000
69.7200 632.0000 1.0000
69.7300 551.0000 1.0000
69.7400 598.0000 1.0000
69.7500 612.0000 1.0000
69.7600 614.0000 1.0000
69.7700 575.0000 1.0000
69.7800 613.0000 1.0000
69.7900 598.0000 1.0000
69.8000 606.0000 1.0000
69.8100 585.0000 1.0000
69.8200 595.0000 1.0000
69.8300 604.0000 1.0000
69.8400 634.0000 1.0000
69.8500 591.0000 1.0000
69.8600 554.0000 1.0000
69.8700 552.0000 1.0000
69.8800 595.0000 1.0000
69.8900 547.0000 1.0000
69.9000 612.0000 1.0000
69.9100 572.0000 1.0000
69.9200 556.0000 1.0000
69.9300 589.0000 1.0000
69.9400 599.0000 1.0000
69.9500 620.0000 1.0000
69.9600 602.0000 1.0000
69.9700 624.0000 1.0000
69.9800 586.0000 1.0000
69.9900 589.0000 1.0000
70.0000 541.0000 1.0000
*RAS_INT_END
*RAS_TEMPERATURE_START
*RAS_TEMPERATURE_END
*RAS_DATA_END
