*RAS_DATA_START
*RAS_HEADER_START
*DISP_FMT_X "%.2f"
*DISP_FMT_Y "%.0f"
*DISP_FULLSCALE "16205.0000000000"
*DISP_LINE_COLOR "255.0000000000"
*DISP_LINE_STYLE "0.0000000000"
*DISP_LINE_WIDTH "0.2500000000"
*DISP_NOTE "測定データ-8"
*DISP_OFFSET_Y "0.0000000000"
*DISP_PEAKSEARCH_UNIT_Y "cps"
*DISP_RANGE_BOTTOM "0.0000000000"
*DISP_RANGE_LEFT "20.0000000000"
*DISP_RANGE_LOGCUTOFF "0.0100000000"
*DISP_RANGE_RIGHT "70.0000000000"
*DISP_RANGE_TOP "16205.0000000000"
*DISP_SCALE_MODE_Y "0.0000000000"
*DISP_TAB_NAME "2θ/θ"
*DISP_TITLE_Y "強度"
*DISP_UNIT_Y "cps"
*DISP_WINDOW_NAME "MSG_MACROENGINE"
*FILE_COMMENT " "
*FILE_MD5 ""
*FILE_MEMO " "
*FILE_OPERATOR "Administrator"
*FILE_SAMPLE " "
*FILE_TYPE "RAS_RAW"
*FILE_USERGROUP "システムマネージャ"
*FILE_VERSION "1.0000000000"
*HW_ATTACHMENT_ID "ATT0025"
*HW_ATTACHMENT_NAME "標準|Standard"
*HW_COUNTER_ID-0 "CUT0025"
*HW_COUNTER_ID-1 "CUT0020"
*HW_COUNTER_ID-2 "CUT0020"
*HW_COUNTER_ID-3 "CSL0021"
*HW_COUNTER_ID-4 "CMC0021"
*HW_COUNTER_NAME-0 "D/teX Ultra|D/teX Ultra"
*HW_COUNTER_NAME-1 "None|None"
*HW_COUNTER_NAME-2 "None|None"
*HW_COUNTER_NAME-3 "BBM|BBM"
*HW_COUNTER_NAME-4 "検出器モノクロメータ|Detector monochromator"
*HW_COUNTER_SELECT_NAME "D/teX Ultra|D/teX Ultra"
*HW_GONIOMETER_ID "GON0023"
*HW_GONIOMETER_NAME "SmartLab|SmartLab"
*HW_GONIOMETER_RADIUS-0 "90.0"
*HW_GONIOMETER_RADIUS-1 "114.0"
*HW_GONIOMETER_RADIUS-2 "190.0"
*HW_GONIOMETER_RADIUS-3 "300.0"
*HW_GONIOMETER_RADIUS-4 "187.0"
*HW_GONIOMETER_RADIUS-5 "300.0"
*HW_GONIOMETER_RADIUS-6 "113.0"
*HW_GONIOMETER_RADIUS-7 "331.0"
*HW_I_OPT_ID-0 "CBO0021"
*HW_I_OPT_ID-1 "ICR0023"
*HW_I_OPT_ID-2 "ISL0021"
*HW_I_OPT_ID-3 "ISO0021"
*HW_I_OPT_ID-4 "IAD0021"
*HW_I_OPT_ID-5 "IPR0001"
*HW_I_OPT_NAME-0 "CBOユニット|CBO unit"
*HW_I_OPT_NAME-1 "標準入射光学ユニット|Standard incident optical unit"
*HW_I_OPT_NAME-2 "標準入射スリットボックス|Standard incident slit box"
*HW_I_OPT_NAME-3 "入射平行スリット|Incident parallel slit"
*HW_I_OPT_NAME-4 "長手制限スリット|Length limiting slit"
*HW_I_OPT_NAME-5 "None|None"
*HW_R_ATTENUATER_AUTOMODE "0"
*HW_R_OPT_ID-0 "RSS0021"
*HW_R_OPT_ID-1 "RCR0023"
*HW_R_OPT_ID-2 "RSO0021"
*HW_R_OPT_ID-3 "RRS0021"
*HW_R_OPT_ID-4 "ATN0021"
*HW_R_OPT_ID-5 "RFL0021"
*HW_R_OPT_ID-6 "RAD0021"
*HW_R_OPT_NAME-0 "標準受光スリットボックス1|Standard receiving slit box # 1"
*HW_R_OPT_NAME-1 "標準受光光学ユニット1|Standard receiving unit # 1"
*HW_R_OPT_NAME-2 "標準受光光学ユニット2|Standard receiving optical unit # 2"
*HW_R_OPT_NAME-3 "標準受光スリットボックス2|Standard receiving slit box # 2"
*HW_R_OPT_NAME-4 "標準アッテネータ|Standard Attenuator"
*HW_R_OPT_NAME-5 "Cu Kβ|Cu K-beta"
*HW_R_OPT_NAME-6 "調整用受光スリット|Alignment receiving slit"
*HW_SAMPLE_HOLDER_ID "SMP0023"
*HW_SAMPLE_HOLDER_NAME "標準Zステージ|Standard Z stage"
*HW_XG_CURRENT_MAX "50"
*HW_XG_CURRENT_MIN "2"
*HW_XG_CURRENT_RESOLUTION "1"
*HW_XG_CURRENT_UNIT "mA"
*HW_XG_FOCUS "1mm x 10mm"
*HW_XG_FOCUS_TYPE "Normal"
*HW_XG_ID ""
*HW_XG_NAME "3kW 封入管(ID:1200)|3kW Sealed tube(ID:1200)"
*HW_XG_TARGET_ATOMIC_NUMBER "29.0000000000"
*HW_XG_TARGET_NAME "Cu"
*HW_XG_TYPE "Hermetic"
*HW_XG_VOLTAGE_MAX "60"
*HW_XG_VOLTAGE_MIN "20"
*HW_XG_VOLTAGE_RESOLUTION "1"
*HW_XG_VOLTAGE_UNIT "kV"
*HW_XG_WATT_MAX "1.500"
*HW_XG_WATT_UNIT "kW"
*HW_XG_WAVE_LENGTH_ALPHA1 "1.540593"
*HW_XG_WAVE_LENGTH_ALPHA2 "1.544414"
*HW_XG_WAVE_LENGTH_BETA "1.392250"
*MEAS_COND_AXIS_NAME-0 "2θ/θ"
*MEAS_COND_AXIS_NAME-1 "2θ"
*MEAS_COND_AXIS_NAME-2 "ω"
*MEAS_COND_AXIS_NAME-3 "Z"
*MEAS_COND_AXIS_NAME-4 "2θ/ω"
*MEAS_COND_AXIS_NAME-5 "θs"
*MEAS_COND_AXIS_NAME-6 "θd"
*MEAS_COND_AXIS_NAME-7 "Ts"
*MEAS_COND_AXIS_NAME-8 "CBO選択スリット"
*MEAS_COND_AXIS_NAME-9 "M"
*MEAS_COND_AXIS_NAME-10 "入射平行スリット"
*MEAS_COND_AXIS_NAME-11 "入射スリット"
*MEAS_COND_AXIS_NAME-12 ""
*MEAS_COND_AXIS_NAME-13 "Zs"
*MEAS_COND_AXIS_NAME-14 "入射光学素子"
*MEAS_COND_AXIS_NAME-15 "長手制限スリット"
*MEAS_COND_AXIS_NAME-16 "センタースリット"
*MEAS_COND_AXIS_NAME-17 "フィルター"
*MEAS_COND_AXIS_NAME-18 "受光スリット1"
*MEAS_COND_AXIS_NAME-19 "受光スリット2"
*MEAS_COND_AXIS_NAME-20 "受光光学素子"
*MEAS_COND_AXIS_NAME-21 "受光平行スリット"
*MEAS_COND_AXIS_NAME-22 "調整用受光スリット"
*MEAS_COND_AXIS_NAME-23 ""
*MEAS_COND_AXIS_NAME-24 ""
*MEAS_COND_AXIS_NAME-25 "Zd"
*MEAS_COND_AXIS_NAME-26 "アッテネータ"
*MEAS_COND_AXIS_NAME-27 "検出器モノクロメータ"
*MEAS_COND_AXIS_NAME-28 "モノクロメータスリット"
*MEAS_COND_AXIS_NAME-29 "プライマリビーム"
*MEAS_COND_AXIS_NAME-30 "PHA"
*MEAS_COND_AXIS_NAME_INTERNAL-0 "TwoThetaTheta"
*MEAS_COND_AXIS_NAME_INTERNAL-1 "TwoTheta"
*MEAS_COND_AXIS_NAME_INTERNAL-2 "Omega"
*MEAS_COND_AXIS_NAME_INTERNAL-3 "Z"
*MEAS_COND_AXIS_NAME_INTERNAL-4 "TwoThetaOmega"
*MEAS_COND_AXIS_NAME_INTERNAL-5 "ThetaS"
*MEAS_COND_AXIS_NAME_INTERNAL-6 "ThetaD"
*MEAS_COND_AXIS_NAME_INTERNAL-7 "Ts"
*MEAS_COND_AXIS_NAME_INTERNAL-8 "CBO"
*MEAS_COND_AXIS_NAME_INTERNAL-9 "CBO-M"
*MEAS_COND_AXIS_NAME_INTERNAL-10 "IncidentSollerSlit"
*MEAS_COND_AXIS_NAME_INTERNAL-11 "IncidentSlitBox"
*MEAS_COND_AXIS_NAME_INTERNAL-12 "IncidentSlitBox-_Axis"
*MEAS_COND_AXIS_NAME_INTERNAL-13 "Zs"
*MEAS_COND_AXIS_NAME_INTERNAL-14 "IncidentMonochromator"
*MEAS_COND_AXIS_NAME_INTERNAL-15 "IncidentAxdSlit"
*MEAS_COND_AXIS_NAME_INTERNAL-16 "CenterSlit"
*MEAS_COND_AXIS_NAME_INTERNAL-17 "Filter"
*MEAS_COND_AXIS_NAME_INTERNAL-18 "ReceivingSlitBox1"
*MEAS_COND_AXIS_NAME_INTERNAL-19 "ReceivingSlitBox2"
*MEAS_COND_AXIS_NAME_INTERNAL-20 "ReceivingOptics"
*MEAS_COND_AXIS_NAME_INTERNAL-21 "ReceivingSollerSlit"
*MEAS_COND_AXIS_NAME_INTERNAL-22 "ReceivingAxdSlit"
*MEAS_COND_AXIS_NAME_INTERNAL-23 "ReceivingSlitBox1-_Axis"
*MEAS_COND_AXIS_NAME_INTERNAL-24 "ReceivingSlitBox2-_Axis"
*MEAS_COND_AXIS_NAME_INTERNAL-25 "ReceivingSlitBox2-Zd"
*MEAS_COND_AXIS_NAME_INTERNAL-26 "Attenuator"
*MEAS_COND_AXIS_NAME_INTERNAL-27 "CounterMonochromator"
*MEAS_COND_AXIS_NAME_INTERNAL-28 "CounterSlit"
*MEAS_COND_AXIS_NAME_INTERNAL-29 "IncidentPrimary"
*MEAS_COND_AXIS_NAME_INTERNAL-30 "PHA"
*MEAS_COND_AXIS_NAME_MAGICNO-0 "83951616.0000000000"
*MEAS_COND_AXIS_NAME_MAGICNO-1 "268632064.0000000000"
*MEAS_COND_AXIS_NAME_MAGICNO-2 "268500992.0000000000"
*MEAS_COND_AXIS_NAME_MAGICNO-3 "285278208.0000000000"
*MEAS_COND_AXIS_NAME_MAGICNO-4 "83951616.0000000000"
*MEAS_COND_AXIS_NAME_MAGICNO-5 "131072.0000000000"
*MEAS_COND_AXIS_NAME_MAGICNO-6 "131072.0000000000"
*MEAS_COND_AXIS_NAME_MAGICNO-7 "318898176.0000000000"
*MEAS_COND_AXIS_NAME_MAGICNO-8 "20971521.0000000000"
*MEAS_COND_AXIS_NAME_MAGICNO-9 "285343744.0000000000"
*MEAS_COND_AXIS_NAME_MAGICNO-10 "20971521.0000000000"
*MEAS_COND_AXIS_NAME_MAGICNO-11 "22020097.0000000000"
*MEAS_COND_AXIS_NAME_MAGICNO-12 "25165824.0000000000"
*MEAS_COND_AXIS_NAME_MAGICNO-13 "318898176.0000000000"
*MEAS_COND_AXIS_NAME_MAGICNO-14 "1.0000000000"
*MEAS_COND_AXIS_NAME_MAGICNO-15 "20971521.0000000000"
*MEAS_COND_AXIS_NAME_MAGICNO-16 "20971521.0000000000"
*MEAS_COND_AXIS_NAME_MAGICNO-17 "20971521.0000000000"
*MEAS_COND_AXIS_NAME_MAGICNO-18 "23068673.0000000000"
*MEAS_COND_AXIS_NAME_MAGICNO-19 "23068673.0000000000"
*MEAS_COND_AXIS_NAME_MAGICNO-20 "20971521.0000000000"
*MEAS_COND_AXIS_NAME_MAGICNO-21 "20971521.0000000000"
*MEAS_COND_AXIS_NAME_MAGICNO-22 "20971521.0000000000"
*MEAS_COND_AXIS_NAME_MAGICNO-23 "25165824.0000000000"
*MEAS_COND_AXIS_NAME_MAGICNO-24 "25165824.0000000000"
*MEAS_COND_AXIS_NAME_MAGICNO-25 "285343744.0000000000"
*MEAS_COND_AXIS_NAME_MAGICNO-26 "17301505.0000000000"
*MEAS_COND_AXIS_NAME_MAGICNO-27 "20971521.0000000000"
*MEAS_COND_AXIS_NAME_MAGICNO-28 "20971521.0000000000"
*MEAS_COND_AXIS_NAME_MAGICNO-29 "20971521.0000000000"
*MEAS_COND_AXIS_NAME_MAGICNO-30 "0.0000000000"
*MEAS_COND_AXIS_OFFSET-0 "-"
*MEAS_COND_AXIS_OFFSET-1 "-0.0801000000"
*MEAS_COND_AXIS_OFFSET-2 "0.2338000000"
*MEAS_COND_AXIS_OFFSET-3 "-"
*MEAS_COND_AXIS_OFFSET-4 "-"
*MEAS_COND_AXIS_OFFSET-5 "0.2338000000"
*MEAS_COND_AXIS_OFFSET-6 "-0.3139000000"
*MEAS_COND_AXIS_OFFSET-7 "-"
*MEAS_COND_AXIS_OFFSET-8 "-"
*MEAS_COND_AXIS_OFFSET-9 "-"
*MEAS_COND_AXIS_OFFSET-10 "-"
*MEAS_COND_AXIS_OFFSET-11 "-"
*MEAS_COND_AXIS_OFFSET-12 "-"
*MEAS_COND_AXIS_OFFSET-13 "-"
*MEAS_COND_AXIS_OFFSET-14 "-"
*MEAS_COND_AXIS_OFFSET-15 "-"
*MEAS_COND_AXIS_OFFSET-16 "-"
*MEAS_COND_AXIS_OFFSET-17 "-"
*MEAS_COND_AXIS_OFFSET-18 "-"
*MEAS_COND_AXIS_OFFSET-19 "-"
*MEAS_COND_AXIS_OFFSET-20 "-"
*MEAS_COND_AXIS_OFFSET-21 "-"
*MEAS_COND_AXIS_OFFSET-22 "-"
*MEAS_COND_AXIS_OFFSET-23 "-"
*MEAS_COND_AXIS_OFFSET-24 "-"
*MEAS_COND_AXIS_OFFSET-25 "-"
*MEAS_COND_AXIS_OFFSET-26 "-"
*MEAS_COND_AXIS_OFFSET-27 "-"
*MEAS_COND_AXIS_OFFSET-28 "-"
*MEAS_COND_AXIS_OFFSET-29 "-"
*MEAS_COND_AXIS_OFFSET-30 "-"
*MEAS_COND_AXIS_POSITION-0 "0.0000000000"
*MEAS_COND_AXIS_POSITION-1 "0.0000000000"
*MEAS_COND_AXIS_POSITION-2 "0.0000000000"
*MEAS_COND_AXIS_POSITION-3 "-2.9583600000"
*MEAS_COND_AXIS_POSITION-4 "0.0000000000"
*MEAS_COND_AXIS_POSITION-5 "0.0000000000"
*MEAS_COND_AXIS_POSITION-6 "0.0000000000"
*MEAS_COND_AXIS_POSITION-7 "-0.4278800000"
*MEAS_COND_AXIS_POSITION-8 "BB"
*MEAS_COND_AXIS_POSITION-9 "0.0000000000"
*MEAS_COND_AXIS_POSITION-10 "Soller_slit_5.0deg"
*MEAS_COND_AXIS_POSITION-11 "2/3deg"
*MEAS_COND_AXIS_POSITION-12 "2.2088000000"
*MEAS_COND_AXIS_POSITION-13 "-1.0609400000"
*MEAS_COND_AXIS_POSITION-14 "0.0000000000"
*MEAS_COND_AXIS_POSITION-15 "10.0mm"
*MEAS_COND_AXIS_POSITION-16 "None"
*MEAS_COND_AXIS_POSITION-17 "Cu_K-beta"
*MEAS_COND_AXIS_POSITION-18 "13.000mm"
*MEAS_COND_AXIS_POSITION-19 "13.000mm"
*MEAS_COND_AXIS_POSITION-20 "No_unit"
*MEAS_COND_AXIS_POSITION-21 "Soller_slit_5.0deg"
*MEAS_COND_AXIS_POSITION-22 "None"
*MEAS_COND_AXIS_POSITION-23 "13.0000000000"
*MEAS_COND_AXIS_POSITION-24 "13.0000000000"
*MEAS_COND_AXIS_POSITION-25 "0.0081300000"
*MEAS_COND_AXIS_POSITION-26 "Open"
*MEAS_COND_AXIS_POSITION-27 "None"
*MEAS_COND_AXIS_POSITION-28 "None"
*MEAS_COND_AXIS_POSITION-29 "None"
*MEAS_COND_AXIS_POSITION-30 "38.0000000000"
*MEAS_COND_AXIS_UNIT-0 "deg"
*MEAS_COND_AXIS_UNIT-1 "deg"
*MEAS_COND_AXIS_UNIT-2 "deg"
*MEAS_COND_AXIS_UNIT-3 "mm"
*MEAS_COND_AXIS_UNIT-4 "deg"
*MEAS_COND_AXIS_UNIT-5 "deg"
*MEAS_COND_AXIS_UNIT-6 "deg"
*MEAS_COND_AXIS_UNIT-7 "mm"
*MEAS_COND_AXIS_UNIT-8 ""
*MEAS_COND_AXIS_UNIT-9 "pulse"
*MEAS_COND_AXIS_UNIT-10 ""
*MEAS_COND_AXIS_UNIT-11 ""
*MEAS_COND_AXIS_UNIT-12 "mm"
*MEAS_COND_AXIS_UNIT-13 "mm"
*MEAS_COND_AXIS_UNIT-14 ""
*MEAS_COND_AXIS_UNIT-15 ""
*MEAS_COND_AXIS_UNIT-16 ""
*MEAS_COND_AXIS_UNIT-17 ""
*MEAS_COND_AXIS_UNIT-18 ""
*MEAS_COND_AXIS_UNIT-19 ""
*MEAS_COND_AXIS_UNIT-20 ""
*MEAS_COND_AXIS_UNIT-21 ""
*MEAS_COND_AXIS_UNIT-22 ""
*MEAS_COND_AXIS_UNIT-23 "mm"
*MEAS_COND_AXIS_UNIT-24 "mm"
*MEAS_COND_AXIS_UNIT-25 "mm"
*MEAS_COND_AXIS_UNIT-26 ""
*MEAS_COND_AXIS_UNIT-27 ""
*MEAS_COND_AXIS_UNIT-28 ""
*MEAS_COND_AXIS_UNIT-29 ""
*MEAS_COND_AXIS_UNIT-30 "div"
*MEAS_COND_COUNTER_CNTLOSS_CORR "0.0000000000"
*MEAS_COND_COUNTER_PHABASE "38.0000000000"
*MEAS_COND_COUNTER_PHAWINDOW "16.0000000000"
*MEAS_COND_COUNTER_PHA_UNIT "div"
*MEAS_COND_COUNTER_TAUDIFF "30.0000000000"
*MEAS_COND_COUNTER_TAUINT "0.0000000000"
*MEAS_COND_IRRADIATION_MODE "OFF"
*MEAS_COND_IRRADIATION_WIDTH ""
*MEAS_COND_OPT_ATTR "集中法"
*MEAS_COND_OPT_NAME "@集中法"
*MEAS_COND_UNSYMMETRIC_MODE "OFF"
*MEAS_COND_XG_CURRENT "30.0000000000"
*MEAS_COND_XG_VOLTAGE "40.0000000000"
*MEAS_COND_XG_WAVE_TYPE "Ka"
*MEAS_DATA_COUNT "5001.0000000000"
*MEAS_SCAN_AXIS_X "2θ/θ"
*MEAS_SCAN_AXIS_X_INTERNAL "TwoThetaTheta"
*MEAS_SCAN_END_TIME "08/06/22 16:05:03"
*MEAS_SCAN_MODE "CONTINUOUS"
*MEAS_SCAN_MONITOR "0"
*MEAS_SCAN_RESOLUTION_X "0.0002"
*MEAS_SCAN_SPEED "2.5"
*MEAS_SCAN_SPEED_UNIT "deg/min"
*MEAS_SCAN_START "20.0000000000"
*MEAS_SCAN_START_TIME "08/06/22 15:43:39"
*MEAS_SCAN_STEP "0.0100000000"
*MEAS_SCAN_STOP "70.0000000000"
*MEAS_SCAN_UNIT_X "deg"
*MEAS_SCAN_UNIT_Y "counts"
*RAS_HEADER_END
*RAS_INT_START
20.0000 927.0000 1.0000
20.0100 926.0000 1.0000
20.0200 945.0000 1.0000
20.0300 852.0000 1.0000
20.0400 920.0000 1.0000
20.0500 887.0000 1.0000
20.0600 922.0000 1.0000
20.0700 984.0000 1.0000
20.0800 923.0000 1.0000
20.0900 936.0000 1.0000
20.1000 959.0000 1.0000
20.1100 914.0000 1.0000
20.1200 964.0000 1.0000
20.1300 906.0000 1.0000
20.1400 920.0000 1.0000
20.1500 980.0000 1.0000
20.1600 943.0000 1.0000
20.1700 909.0000 1.0000
20.1800 942.0000 1.0000
20.1900 887.0000 1.0000
20.2000 950.0000 1.0000
20.2100 923.0000 1.0000
20.2200 945.0000 1.0000
20.2300 945.0000 1.0000
20.2400 999.0000 1.0000
20.2500 911.0000 1.0000
20.2600 887.0000 1.0000
20.2700 936.0000 1.0000
20.2800 956.0000 1.0000
20.2900 940.0000 1.0000
20.3000 878.0000 1.0000
20.3100 903.0000 1.0000
20.3200 953.0000 1.0000
20.3300 932.0000 1.0000
20.3400 905.0000 1.0000
20.3500 923.0000 1.0000
20.3600 904.0000 1.0000
20.3700 984.0000 1.0000
20.3800 921.0000 1.0000
20.3900 925.0000 1.0000
20.4000 888.0000 1.0000
20.4100 934.0000 1.0000
20.4200 961.0000 1.0000
20.4300 972.0000 1.0000
20.4400 983.0000 1.0000
20.4500 955.0000 1.0000
20.4600 942.0000 1.0000
20.4700 908.0000 1.0000
20.4800 940.0000 1.0000
20.4900 1003.0000 1.0000
20.5000 947.0000 1.0000
20.5100 924.0000 1.0000
20.5200 923.0000 1.0000
20.5300 930.0000 1.0000
20.5400 922.0000 1.0000
20.5500 948.0000 1.0000
20.5600 989.0000 1.0000
20.5700 897.0000 1.0000
20.5800 904.0000 1.0000
20.5900 918.0000 1.0000
20.6000 952.0000 1.0000
20.6100 953.0000 1.0000
20.6200 969.0000 1.0000
20.6300 967.0000 1.0000
20.6400 886.0000 1.0000
20.6500 908.0000 1.0000
20.6600 922.0000 1.0000
20.6700 949.0000 1.0000
20.6800 902.0000 1.0000
20.6900 922.0000 1.0000
20.7000 914.0000 1.0000
20.7100 899.0000 1.0000
20.7200 947.0000 1.0000
20.7300 969.0000 1.0000
20.7400 918.0000 1.0000
20.7500 928.0000 1.0000
20.7600 905.0000 1.0000
20.7700 948.0000 1.0000
20.7800 872.0000 1.0000
20.7900 916.0000 1.0000
20.8000 893.0000 1.0000
20.8100 899.0000 1.0000
20.8200 943.0000 1.0000
20.8300 943.0000 1.0000
20.8400 918.0000 1.0000
20.8500 964.0000 1.0000
20.8600 924.0000 1.0000
20.8700 945.0000 1.0000
20.8800 948.0000 1.0000
20.8900 952.0000 1.0000
20.9000 888.0000 1.0000
20.9100 980.0000 1.0000
20.9200 933.0000 1.0000
20.9300 969.0000 1.0000
20.9400 907.0000 1.0000
20.9500 939.0000 1.0000
20.9600 903.0000 1.0000
20.9700 931.0000 1.0000
20.9800 957.0000 1.0000
20.9900 938.0000 1.0000
21.0000 944.0000 1.0000
21.0100 936.0000 1.0000
21.0200 927.0000 1.0000
21.0300 965.0000 1.0000
21.0400 868.0000 1.0000
21.0500 980.0000 1.0000
21.0600 948.0000 1.0000
21.0700 921.0000 1.0000
21.0800 913.0000 1.0000
21.0900 906.0000 1.0000
21.1000 946.0000 1.0000
21.1100 906.0000 1.0000
21.1200 955.0000 1.0000
21.1300 887.0000 1.0000
21.1400 966.0000 1.0000
21.1500 924.0000 1.0000
21.1600 956.0000 1.0000
21.1700 902.0000 1.0000
21.1800 914.0000 1.0000
21.1900 963.0000 1.0000
21.2000 914.0000 1.0000
21.2100 914.0000 1.0000
21.2200 962.0000 1.0000
21.2300 970.0000 1.0000
21.2400 951.0000 1.0000
21.2500 894.0000 1.0000
21.2600 933.0000 1.0000
21.2700 939.0000 1.0000
21.2800 977.0000 1.0000
21.2900 983.0000 1.0000
21.3000 929.0000 1.0000
21.3100 970.0000 1.0000
21.3200 872.0000 1.0000
21.3300 904.0000 1.0000
21.3400 949.0000 1.0000
21.3500 954.0000 1.0000
21.3600 935.0000 1.0000
21.3700 933.0000 1.0000
21.3800 946.0000 1.0000
21.3900 946.0000 1.0000
21.4000 916.0000 1.0000
21.4100 939.0000 1.0000
21.4200 907.0000 1.0000
21.4300 915.0000 1.0000
21.4400 879.0000 1.0000
21.4500 881.0000 1.0000
21.4600 921.0000 1.0000
21.4700 925.0000 1.0000
21.4800 988.0000 1.0000
21.4900 945.0000 1.0000
21.5000 996.0000 1.0000
21.5100 1009.0000 1.0000
21.5200 931.0000 1.0000
21.5300 910.0000 1.0000
21.5400 952.0000 1.0000
21.5500 944.0000 1.0000
21.5600 960.0000 1.0000
21.5700 922.0000 1.0000
21.5800 921.0000 1.0000
21.5900 958.0000 1.0000
21.6000 964.0000 1.0000
21.6100 930.0000 1.0000
21.6200 905.0000 1.0000
21.6300 905.0000 1.0000
21.6400 970.0000 1.0000
21.6500 921.0000 1.0000
21.6600 976.0000 1.0000
21.6700 939.0000 1.0000
21.6800 931.0000 1.0000
21.6900 931.0000 1.0000
21.7000 931.0000 1.0000
21.7100 933.0000 1.0000
21.7200 920.0000 1.0000
21.7300 942.0000 1.0000
21.7400 947.0000 1.0000
21.7500 952.0000 1.0000
21.7600 882.0000 1.0000
21.7700 933.0000 1.0000
21.7800 873.0000 1.0000
21.7900 924.0000 1.0000
21.8000 854.0000 1.0000
21.8100 921.0000 1.0000
21.8200 936.0000 1.0000
21.8300 941.0000 1.0000
21.8400 932.0000 1.0000
21.8500 923.0000 1.0000
21.8600 876.0000 1.0000
21.8700 956.0000 1.0000
21.8800 913.0000 1.0000
21.8900 929.0000 1.0000
21.9000 913.0000 1.0000
21.9100 893.0000 1.0000
21.9200 887.0000 1.0000
21.9300 894.0000 1.0000
21.9400 897.0000 1.0000
21.9500 936.0000 1.0000
21.9600 936.0000 1.0000
21.9700 923.0000 1.0000
21.9800 866.0000 1.0000
21.9900 954.0000 1.0000
22.0000 927.0000 1.0000
22.0100 908.0000 1.0000
22.0200 886.0000 1.0000
22.0300 905.0000 1.0000
22.0400 878.0000 1.0000
22.0500 822.0000 1.0000
22.0600 922.0000 1.0000
22.0700 943.0000 1.0000
22.0800 937.0000 1.0000
22.0900 920.0000 1.0000
22.1000 891.0000 1.0000
22.1100 910.0000 1.0000
22.1200 940.0000 1.0000
22.1300 948.0000 1.0000
22.1400 915.0000 1.0000
22.1500 903.0000 1.0000
22.1600 910.0000 1.0000
22.1700 909.0000 1.0000
22.1800 936.0000 1.0000
22.1900 955.0000 1.0000
22.2000 918.0000 1.0000
22.2100 911.0000 1.0000
22.2200 934.0000 1.0000
22.2300 890.0000 1.0000
22.2400 933.0000 1.0000
22.2500 864.0000 1.0000
22.2600 915.0000 1.0000
22.2700 903.0000 1.0000
22.2800 881.0000 1.0000
22.2900 887.0000 1.0000
22.3000 898.0000 1.0000
22.3100 881.0000 1.0000
22.3200 930.0000 1.0000
22.3300 894.0000 1.0000
22.3400 883.0000 1.0000
22.3500 913.0000 1.0000
22.3600 917.0000 1.0000
22.3700 910.0000 1.0000
22.3800 928.0000 1.0000
22.3900 911.0000 1.0000
22.4000 897.0000 1.0000
22.4100 922.0000 1.0000
22.4200 956.0000 1.0000
22.4300 929.0000 1.0000
22.4400 899.0000 1.0000
22.4500 895.0000 1.0000
22.4600 897.0000 1.0000
22.4700 897.0000 1.0000
22.4800 892.0000 1.0000
22.4900 907.0000 1.0000
22.5000 929.0000 1.0000
22.5100 882.0000 1.0000
22.5200 892.0000 1.0000
22.5300 945.0000 1.0000
22.5400 910.0000 1.0000
22.5500 895.0000 1.0000
22.5600 910.0000 1.0000
22.5700 893.0000 1.0000
22.5800 937.0000 1.0000
22.5900 949.0000 1.0000
22.6000 948.0000 1.0000
22.6100 921.0000 1.0000
22.6200 964.0000 1.0000
22.6300 904.0000 1.0000
22.6400 902.0000 1.0000
22.6500 884.0000 1.0000
22.6600 896.0000 1.0000
22.6700 932.0000 1.0000
22.6800 940.0000 1.0000
22.6900 959.0000 1.0000
22.7000 904.0000 1.0000
22.7100 929.0000 1.0000
22.7200 897.0000 1.0000
22.7300 940.0000 1.0000
22.7400 898.0000 1.0000
22.7500 907.0000 1.0000
22.7600 933.0000 1.0000
22.7700 926.0000 1.0000
22.7800 854.0000 1.0000
22.7900 896.0000 1.0000
22.8000 900.0000 1.0000
22.8100 919.0000 1.0000
22.8200 932.0000 1.0000
22.8300 891.0000 1.0000
22.8400 916.0000 1.0000
22.8500 924.0000 1.0000
22.8600 922.0000 1.0000
22.8700 912.0000 1.0000
22.8800 926.0000 1.0000
22.8900 901.0000 1.0000
22.9000 853.0000 1.0000
22.9100 860.0000 1.0000
22.9200 895.0000 1.0000
22.9300 951.0000 1.0000
22.9400 913.0000 1.0000
22.9500 946.0000 1.0000
22.9600 910.0000 1.0000
22.9700 907.0000 1.0000
22.9800 950.0000 1.0000
22.9900 952.0000 1.0000
23.0000 919.0000 1.0000
23.0100 883.0000 1.0000
23.0200 883.0000 1.0000
23.0300 881.0000 1.0000
23.0400 911.0000 1.0000
23.0500 899.0000 1.0000
23.0600 856.0000 1.0000
23.0700 928.0000 1.0000
23.0800 915.0000 1.0000
23.0900 872.0000 1.0000
23.1000 908.0000 1.0000
23.1100 912.0000 1.0000
23.1200 894.0000 1.0000
23.1300 903.0000 1.0000
23.1400 922.0000 1.0000
23.1500 956.0000 1.0000
23.1600 940.0000 1.0000
23.1700 920.0000 1.0000
23.1800 962.0000 1.0000
23.1900 885.0000 1.0000
23.2000 857.0000 1.0000
23.2100 921.0000 1.0000
23.2200 896.0000 1.0000
23.2300 906.0000 1.0000
23.2400 896.0000 1.0000
23.2500 894.0000 1.0000
23.2600 883.0000 1.0000
23.2700 913.0000 1.0000
23.2800 865.0000 1.0000
23.2900 880.0000 1.0000
23.3000 932.0000 1.0000
23.3100 904.0000 1.0000
23.3200 891.0000 1.0000
23.3300 874.0000 1.0000
23.3400 917.0000 1.0000
23.3500 889.0000 1.0000
23.3600 923.0000 1.0000
23.3700 876.0000 1.0000
23.3800 912.0000 1.0000
23.3900 881.0000 1.0000
23.4000 863.0000 1.0000
23.4100 881.0000 1.0000
23.4200 901.0000 1.0000
23.4300 887.0000 1.0000
23.4400 871.0000 1.0000
23.4500 910.0000 1.0000
23.4600 937.0000 1.0000
23.4700 950.0000 1.0000
23.4800 878.0000 1.0000
23.4900 890.0000 1.0000
23.5000 873.0000 1.0000
23.5100 927.0000 1.0000
23.5200 867.0000 1.0000
23.5300 931.0000 1.0000
23.5400 900.0000 1.0000
23.5500 944.0000 1.0000
23.5600 906.0000 1.0000
23.5700 884.0000 1.0000
23.5800 884.0000 1.0000
23.5900 903.0000 1.0000
23.6000 931.0000 1.0000
23.6100 894.0000 1.0000
23.6200 896.0000 1.0000
23.6300 924.0000 1.0000
23.6400 886.0000 1.0000
23.6500 862.0000 1.0000
23.6600 859.0000 1.0000
23.6700 921.0000 1.0000
23.6800 921.0000 1.0000
23.6900 892.0000 1.0000
23.7000 880.0000 1.0000
23.7100 901.0000 1.0000
23.7200 900.0000 1.0000
23.7300 926.0000 1.0000
23.7400 924.0000 1.0000
23.7500 917.0000 1.0000
23.7600 942.0000 1.0000
23.7700 932.0000 1.0000
23.7800 941.0000 1.0000
23.7900 882.0000 1.0000
23.8000 924.0000 1.0000
23.8100 933.0000 1.0000
23.8200 941.0000 1.0000
23.8300 895.0000 1.0000
23.8400 929.0000 1.0000
23.8500 942.0000 1.0000
23.8600 907.0000 1.0000
23.8700 863.0000 1.0000
23.8800 918.0000 1.0000
23.8900 965.0000 1.0000
23.9000 903.0000 1.0000
23.9100 886.0000 1.0000
23.9200 892.0000 1.0000
23.9300 920.0000 1.0000
23.9400 904.0000 1.0000
23.9500 935.0000 1.0000
23.9600 925.0000 1.0000
23.9700 929.0000 1.0000
23.9800 982.0000 1.0000
23.9900 946.0000 1.0000
24.0000 932.0000 1.0000
24.0100 971.0000 1.0000
24.0200 922.0000 1.0000
24.0300 966.0000 1.0000
24.0400 973.0000 1.0000
24.0500 994.0000 1.0000
24.0600 995.0000 1.0000
24.0700 1009.0000 1.0000
24.0800 940.0000 1.0000
24.0900 994.0000 1.0000
24.1000 1036.0000 1.0000
24.1100 983.0000 1.0000
24.1200 994.0000 1.0000
24.1300 969.0000 1.0000
24.1400 931.0000 1.0000
24.1500 957.0000 1.0000
24.1600 977.0000 1.0000
24.1700 913.0000 1.0000
24.1800 922.0000 1.0000
24.1900 936.0000 1.0000
24.2000 905.0000 1.0000
24.2100 893.0000 1.0000
24.2200 895.0000 1.0000
24.2300 901.0000 1.0000
24.2400 923.0000 1.0000
24.2500 933.0000 1.0000
24.2600 950.0000 1.0000
24.2700 907.0000 1.0000
24.2800 899.0000 1.0000
24.2900 929.0000 1.0000
24.3000 926.0000 1.0000
24.3100 941.0000 1.0000
24.3200 928.0000 1.0000
24.3300 946.0000 1.0000
24.3400 929.0000 1.0000
24.3500 928.0000 1.0000
24.3600 905.0000 1.0000
24.3700 929.0000 1.0000
24.3800 951.0000 1.0000
24.3900 882.0000 1.0000
24.4000 913.0000 1.0000
24.4100 871.0000 1.0000
24.4200 893.0000 1.0000
24.4300 890.0000 1.0000
24.4400 882.0000 1.0000
24.4500 877.0000 1.0000
24.4600 913.0000 1.0000
24.4700 898.0000 1.0000
24.4800 880.0000 1.0000
24.4900 867.0000 1.0000
24.5000 910.0000 1.0000
24.5100 893.0000 1.0000
24.5200 906.0000 1.0000
24.5300 875.0000 1.0000
24.5400 913.0000 1.0000
24.5500 911.0000 1.0000
24.5600 911.0000 1.0000
24.5700 865.0000 1.0000
24.5800 923.0000 1.0000
24.5900 893.0000 1.0000
24.6000 899.0000 1.0000
24.6100 862.0000 1.0000
24.6200 835.0000 1.0000
24.6300 860.0000 1.0000
24.6400 848.0000 1.0000
24.6500 856.0000 1.0000
24.6600 800.0000 1.0000
24.6700 896.0000 1.0000
24.6800 882.0000 1.0000
24.6900 871.0000 1.0000
24.7000 864.0000 1.0000
24.7100 889.0000 1.0000
24.7200 929.0000 1.0000
24.7300 848.0000 1.0000
24.7400 885.0000 1.0000
24.7500 867.0000 1.0000
24.7600 874.0000 1.0000
24.7700 859.0000 1.0000
24.7800 918.0000 1.0000
24.7900 904.0000 1.0000
24.8000 865.0000 1.0000
24.8100 851.0000 1.0000
24.8200 860.0000 1.0000
24.8300 883.0000 1.0000
24.8400 831.0000 1.0000
24.8500 850.0000 1.0000
24.8600 858.0000 1.0000
24.8700 889.0000 1.0000
24.8800 825.0000 1.0000
24.8900 899.0000 1.0000
24.9000 894.0000 1.0000
24.9100 874.0000 1.0000
24.9200 866.0000 1.0000
24.9300 891.0000 1.0000
24.9400 872.0000 1.0000
24.9500 887.0000 1.0000
24.9600 858.0000 1.0000
24.9700 872.0000 1.0000
24.9800 906.0000 1.0000
24.9900 900.0000 1.0000
25.0000 845.0000 1.0000
25.0100 801.0000 1.0000
25.0200 878.0000 1.0000
25.0300 850.0000 1.0000
25.0400 887.0000 1.0000
25.0500 855.0000 1.0000
25.0600 809.0000 1.0000
25.0700 859.0000 1.0000
25.0800 891.0000 1.0000
25.0900 882.0000 1.0000
25.1000 867.0000 1.0000
25.1100 829.0000 1.0000
25.1200 862.0000 1.0000
25.1300 882.0000 1.0000
25.1400 860.0000 1.0000
25.1500 857.0000 1.0000
25.1600 862.0000 1.0000
25.1700 866.0000 1.0000
25.1800 878.0000 1.0000
25.1900 877.0000 1.0000
25.2000 902.0000 1.0000
25.2100 907.0000 1.0000
25.2200 854.0000 1.0000
25.2300 857.0000 1.0000
25.2400 894.0000 1.0000
25.2500 914.0000 1.0000
25.2600 878.0000 1.0000
25.2700 864.0000 1.0000
25.2800 877.0000 1.0000
25.2900 884.0000 1.0000
25.3000 925.0000 1.0000
25.3100 870.0000 1.0000
25.3200 846.0000 1.0000
25.3300 821.0000 1.0000
25.3400 847.0000 1.0000
25.3500 873.0000 1.0000
25.3600 910.0000 1.0000
25.3700 855.0000 1.0000
25.3800 896.0000 1.0000
25.3900 878.0000 1.0000
25.4000 858.0000 1.0000
25.4100 871.0000 1.0000
25.4200 861.0000 1.0000
25.4300 922.0000 1.0000
25.4400 885.0000 1.0000
25.4500 818.0000 1.0000
25.4600 933.0000 1.0000
25.4700 874.0000 1.0000
25.4800 866.0000 1.0000
25.4900 929.0000 1.0000
25.5000 920.0000 1.0000
25.5100 882.0000 1.0000
25.5200 905.0000 1.0000
25.5300 892.0000 1.0000
25.5400 886.0000 1.0000
25.5500 878.0000 1.0000
25.5600 842.0000 1.0000
25.5700 859.0000 1.0000
25.5800 860.0000 1.0000
25.5900 911.0000 1.0000
25.6000 896.0000 1.0000
25.6100 839.0000 1.0000
25.6200 880.0000 1.0000
25.6300 906.0000 1.0000
25.6400 898.0000 1.0000
25.6500 877.0000 1.0000
25.6600 848.0000 1.0000
25.6700 910.0000 1.0000
25.6800 862.0000 1.0000
25.6900 915.0000 1.0000
25.7000 870.0000 1.0000
25.7100 893.0000 1.0000
25.7200 887.0000 1.0000
25.7300 897.0000 1.0000
25.7400 899.0000 1.0000
25.7500 876.0000 1.0000
25.7600 889.0000 1.0000
25.7700 904.0000 1.0000
25.7800 899.0000 1.0000
25.7900 879.0000 1.0000
25.8000 950.0000 1.0000
25.8100 922.0000 1.0000
25.8200 923.0000 1.0000
25.8300 916.0000 1.0000
25.8400 910.0000 1.0000
25.8500 938.0000 1.0000
25.8600 874.0000 1.0000
25.8700 921.0000 1.0000
25.8800 908.0000 1.0000
25.8900 891.0000 1.0000
25.9000 866.0000 1.0000
25.9100 882.0000 1.0000
25.9200 940.0000 1.0000
25.9300 923.0000 1.0000
25.9400 939.0000 1.0000
25.9500 1004.0000 1.0000
25.9600 928.0000 1.0000
25.9700 937.0000 1.0000
25.9800 993.0000 1.0000
25.9900 971.0000 1.0000
26.0000 960.0000 1.0000
26.0100 960.0000 1.0000
26.0200 998.0000 1.0000
26.0300 989.0000 1.0000
26.0400 1028.0000 1.0000
26.0500 1027.0000 1.0000
26.0600 963.0000 1.0000
26.0700 1005.0000 1.0000
26.0800 1059.0000 1.0000
26.0900 1089.0000 1.0000
26.1000 1071.0000 1.0000
26.1100 1060.0000 1.0000
26.1200 1074.0000 1.0000
26.1300 1080.0000 1.0000
26.1400 1127.0000 1.0000
26.1500 1136.0000 1.0000
26.1600 1202.0000 1.0000
26.1700 1227.0000 1.0000
26.1800 1255.0000 1.0000
26.1900 1259.0000 1.0000
26.2000 1307.0000 1.0000
26.2100 1274.0000 1.0000
26.2200 1344.0000 1.0000
26.2300 1422.0000 1.0000
26.2400 1442.0000 1.0000
26.2500 1477.0000 1.0000
26.2600 1472.0000 1.0000
26.2700 1601.0000 1.0000
26.2800 1631.0000 1.0000
26.2900 1713.0000 1.0000
26.3000 1836.0000 1.0000
26.3100 1951.0000 1.0000
26.3200 1956.0000 1.0000
26.3300 2049.0000 1.0000
26.3400 2188.0000 1.0000
26.3500 2309.0000 1.0000
26.3600 2488.0000 1.0000
26.3700 2565.0000 1.0000
26.3800 2753.0000 1.0000
26.3900 2770.0000 1.0000
26.4000 2961.0000 1.0000
26.4100 3058.0000 1.0000
26.4200 3081.0000 1.0000
26.4300 3241.0000 1.0000
26.4400 3212.0000 1.0000
26.4500 3130.0000 1.0000
26.4600 3126.0000 1.0000
26.4700 2994.0000 1.0000
26.4800 2903.0000 1.0000
26.4900 2825.0000 1.0000
26.5000 2694.0000 1.0000
26.5100 2595.0000 1.0000
26.5200 2378.0000 1.0000
26.5300 2276.0000 1.0000
26.5400 2212.0000 1.0000
26.5500 2123.0000 1.0000
26.5600 1917.0000 1.0000
26.5700 1838.0000 1.0000
26.5800 1692.0000 1.0000
26.5900 1573.0000 1.0000
26.6000 1613.0000 1.0000
26.6100 1586.0000 1.0000
26.6200 1531.0000 1.0000
26.6300 1389.0000 1.0000
26.6400 1391.0000 1.0000
26.6500 1313.0000 1.0000
26.6600 1288.0000 1.0000
26.6700 1269.0000 1.0000
26.6800 1231.0000 1.0000
26.6900 1220.0000 1.0000
26.7000 1230.0000 1.0000
26.7100 1116.0000 1.0000
26.7200 1134.0000 1.0000
26.7300 1083.0000 1.0000
26.7400 1090.0000 1.0000
26.7500 1054.0000 1.0000
26.7600 1038.0000 1.0000
26.7700 1048.0000 1.0000
26.7800 1038.0000 1.0000
26.7900 1032.0000 1.0000
26.8000 999.0000 1.0000
26.8100 974.0000 1.0000
26.8200 987.0000 1.0000
26.8300 977.0000 1.0000
26.8400 917.0000 1.0000
26.8500 963.0000 1.0000
26.8600 922.0000 1.0000
26.8700 935.0000 1.0000
26.8800 919.0000 1.0000
26.8900 925.0000 1.0000
26.9000 971.0000 1.0000
26.9100 955.0000 1.0000
26.9200 949.0000 1.0000
26.9300 915.0000 1.0000
26.9400 915.0000 1.0000
26.9500 899.0000 1.0000
26.9600 895.0000 1.0000
26.9700 853.0000 1.0000
26.9800 864.0000 1.0000
26.9900 879.0000 1.0000
27.0000 845.0000 1.0000
27.0100 860.0000 1.0000
27.0200 840.0000 1.0000
27.0300 863.0000 1.0000
27.0400 812.0000 1.0000
27.0500 859.0000 1.0000
27.0600 878.0000 1.0000
27.0700 854.0000 1.0000
27.0800 832.0000 1.0000
27.0900 866.0000 1.0000
27.1000 804.0000 1.0000
27.1100 892.0000 1.0000
27.1200 876.0000 1.0000
27.1300 844.0000 1.0000
27.1400 868.0000 1.0000
27.1500 877.0000 1.0000
27.1600 864.0000 1.0000
27.1700 869.0000 1.0000
27.1800 866.0000 1.0000
27.1900 865.0000 1.0000
27.2000 850.0000 1.0000
27.2100 797.0000 1.0000
27.2200 841.0000 1.0000
27.2300 784.0000 1.0000
27.2400 796.0000 1.0000
27.2500 829.0000 1.0000
27.2600 834.0000 1.0000
27.2700 834.0000 1.0000
27.2800 839.0000 1.0000
27.2900 838.0000 1.0000
27.3000 821.0000 1.0000
27.3100 807.0000 1.0000
27.3200 873.0000 1.0000
27.3300 802.0000 1.0000
27.3400 838.0000 1.0000
27.3500 818.0000 1.0000
27.3600 780.0000 1.0000
27.3700 864.0000 1.0000
27.3800 826.0000 1.0000
27.3900 787.0000 1.0000
27.4000 768.0000 1.0000
27.4100 815.0000 1.0000
27.4200 781.0000 1.0000
27.4300 805.0000 1.0000
27.4400 848.0000 1.0000
27.4500 833.0000 1.0000
27.4600 798.0000 1.0000
27.4700 783.0000 1.0000
27.4800 812.0000 1.0000
27.4900 751.0000 1.0000
27.5000 770.0000 1.0000
27.5100 790.0000 1.0000
27.5200 790.0000 1.0000
27.5300 878.0000 1.0000
27.5400 844.0000 1.0000
27.5500 785.0000 1.0000
27.5600 814.0000 1.0000
27.5700 800.0000 1.0000
27.5800 779.0000 1.0000
27.5900 823.0000 1.0000
27.6000 781.0000 1.0000
27.6100 796.0000 1.0000
27.6200 811.0000 1.0000
27.6300 816.0000 1.0000
27.6400 799.0000 1.0000
27.6500 778.0000 1.0000
27.6600 785.0000 1.0000
27.6700 801.0000 1.0000
27.6800 770.0000 1.0000
27.6900 822.0000 1.0000
27.7000 807.0000 1.0000
27.7100 775.0000 1.0000
27.7200 782.0000 1.0000
27.7300 784.0000 1.0000
27.7400 841.0000 1.0000
27.7500 800.0000 1.0000
27.7600 774.0000 1.0000
27.7700 785.0000 1.0000
27.7800 781.0000 1.0000
27.7900 773.0000 1.0000
27.8000 800.0000 1.0000
27.8100 753.0000 1.0000
27.8200 805.0000 1.0000
27.8300 779.0000 1.0000
27.8400 824.0000 1.0000
27.8500 815.0000 1.0000
27.8600 772.0000 1.0000
27.8700 798.0000 1.0000
27.8800 785.0000 1.0000
27.8900 753.0000 1.0000
27.9000 768.0000 1.0000
27.9100 750.0000 1.0000
27.9200 777.0000 1.0000
27.9300 751.0000 1.0000
27.9400 738.0000 1.0000
27.9500 806.0000 1.0000
27.9600 794.0000 1.0000
27.9700 763.0000 1.0000
27.9800 779.0000 1.0000
27.9900 764.0000 1.0000
28.0000 789.0000 1.0000
28.0100 744.0000 1.0000
28.0200 789.0000 1.0000
28.0300 799.0000 1.0000
28.0400 763.0000 1.0000
28.0500 759.0000 1.0000
28.0600 765.0000 1.0000
28.0700 787.0000 1.0000
28.0800 776.0000 1.0000
28.0900 774.0000 1.0000
28.1000 762.0000 1.0000
28.1100 789.0000 1.0000
28.1200 765.0000 1.0000
28.1300 780.0000 1.0000
28.1400 741.0000 1.0000
28.1500 755.0000 1.0000
28.1600 808.0000 1.0000
28.1700 739.0000 1.0000
28.1800 800.0000 1.0000
28.1900 776.0000 1.0000
28.2000 767.0000 1.0000
28.2100 749.0000 1.0000
28.2200 777.0000 1.0000
28.2300 769.0000 1.0000
28.2400 768.0000 1.0000
28.2500 765.0000 1.0000
28.2600 743.0000 1.0000
28.2700 783.0000 1.0000
28.2800 794.0000 1.0000
28.2900 793.0000 1.0000
28.3000 772.0000 1.0000
28.3100 770.0000 1.0000
28.3200 736.0000 1.0000
28.3300 759.0000 1.0000
28.3400 720.0000 1.0000
28.3500 735.0000 1.0000
28.3600 775.0000 1.0000
28.3700 783.0000 1.0000
28.3800 823.0000 1.0000
28.3900 721.0000 1.0000
28.4000 732.0000 1.0000
28.4100 768.0000 1.0000
28.4200 781.0000 1.0000
28.4300 786.0000 1.0000
28.4400 763.0000 1.0000
28.4500 725.0000 1.0000
28.4600 734.0000 1.0000
28.4700 734.0000 1.0000
28.4800 691.0000 1.0000
28.4900 740.0000 1.0000
28.5000 741.0000 1.0000
28.5100 777.0000 1.0000
28.5200 769.0000 1.0000
28.5300 757.0000 1.0000
28.5400 779.0000 1.0000
28.5500 735.0000 1.0000
28.5600 768.0000 1.0000
28.5700 759.0000 1.0000
28.5800 744.0000 1.0000
28.5900 755.0000 1.0000
28.6000 716.0000 1.0000
28.6100 762.0000 1.0000
28.6200 739.0000 1.0000
28.6300 745.0000 1.0000
28.6400 771.0000 1.0000
28.6500 764.0000 1.0000
28.6600 767.0000 1.0000
28.6700 789.0000 1.0000
28.6800 741.0000 1.0000
28.6900 677.0000 1.0000
28.7000 729.0000 1.0000
28.7100 756.0000 1.0000
28.7200 732.0000 1.0000
28.7300 747.0000 1.0000
28.7400 747.0000 1.0000
28.7500 755.0000 1.0000
28.7600 742.0000 1.0000
28.7700 722.0000 1.0000
28.7800 767.0000 1.0000
28.7900 771.0000 1.0000
28.8000 756.0000 1.0000
28.8100 754.0000 1.0000
28.8200 716.0000 1.0000
28.8300 703.0000 1.0000
28.8400 733.0000 1.0000
28.8500 695.0000 1.0000
28.8600 772.0000 1.0000
28.8700 747.0000 1.0000
28.8800 765.0000 1.0000
28.8900 749.0000 1.0000
28.9000 717.0000 1.0000
28.9100 696.0000 1.0000
28.9200 754.0000 1.0000
28.9300 765.0000 1.0000
28.9400 732.0000 1.0000
28.9500 732.0000 1.0000
28.9600 725.0000 1.0000
28.9700 748.0000 1.0000
28.9800 725.0000 1.0000
28.9900 747.0000 1.0000
29.0000 751.0000 1.0000
29.0100 736.0000 1.0000
29.0200 690.0000 1.0000
29.0300 740.0000 1.0000
29.0400 736.0000 1.0000
29.0500 719.0000 1.0000
29.0600 706.0000 1.0000
29.0700 690.0000 1.0000
29.0800 693.0000 1.0000
29.0900 726.0000 1.0000
29.1000 735.0000 1.0000
29.1100 718.0000 1.0000
29.1200 756.0000 1.0000
29.1300 712.0000 1.0000
29.1400 778.0000 1.0000
29.1500 755.0000 1.0000
29.1600 708.0000 1.0000
29.1700 694.0000 1.0000
29.1800 752.0000 1.0000
29.1900 725.0000 1.0000
29.2000 802.0000 1.0000
29.2100 759.0000 1.0000
29.2200 716.0000 1.0000
29.2300 737.0000 1.0000
29.2400 750.0000 1.0000
29.2500 746.0000 1.0000
29.2600 743.0000 1.0000
29.2700 719.0000 1.0000
29.2800 707.0000 1.0000
29.2900 672.0000 1.0000
29.3000 728.0000 1.0000
29.3100 724.0000 1.0000
29.3200 739.0000 1.0000
29.3300 707.0000 1.0000
29.3400 717.0000 1.0000
29.3500 758.0000 1.0000
29.3600 727.0000 1.0000
29.3700 751.0000 1.0000
29.3800 705.0000 1.0000
29.3900 686.0000 1.0000
29.4000 733.0000 1.0000
29.4100 693.0000 1.0000
29.4200 706.0000 1.0000
29.4300 691.0000 1.0000
29.4400 709.0000 1.0000
29.4500 695.0000 1.0000
29.4600 682.0000 1.0000
29.4700 734.0000 1.0000
29.4800 689.0000 1.0000
29.4900 734.0000 1.0000
29.5000 659.0000 1.0000
29.5100 695.0000 1.0000
29.5200 708.0000 1.0000
29.5300 759.0000 1.0000
29.5400 724.0000 1.0000
29.5500 690.0000 1.0000
29.5600 714.0000 1.0000
29.5700 671.0000 1.0000
29.5800 691.0000 1.0000
29.5900 750.0000 1.0000
29.6000 708.0000 1.0000
29.6100 700.0000 1.0000
29.6200 695.0000 1.0000
29.6300 742.0000 1.0000
29.6400 748.0000 1.0000
29.6500 742.0000 1.0000
29.6600 708.0000 1.0000
29.6700 698.0000 1.0000
29.6800 697.0000 1.0000
29.6900 726.0000 1.0000
29.7000 703.0000 1.0000
29.7100 742.0000 1.0000
29.7200 702.0000 1.0000
29.7300 717.0000 1.0000
29.7400 698.0000 1.0000
29.7500 695.0000 1.0000
29.7600 690.0000 1.0000
29.7700 701.0000 1.0000
29.7800 722.0000 1.0000
29.7900 706.0000 1.0000
29.8000 746.0000 1.0000
29.8100 714.0000 1.0000
29.8200 707.0000 1.0000
29.8300 713.0000 1.0000
29.8400 688.0000 1.0000
29.8500 710.0000 1.0000
29.8600 735.0000 1.0000
29.8700 732.0000 1.0000
29.8800 668.0000 1.0000
29.8900 701.0000 1.0000
29.9000 685.0000 1.0000
29.9100 723.0000 1.0000
29.9200 680.0000 1.0000
29.9300 706.0000 1.0000
29.9400 720.0000 1.0000
29.9500 696.0000 1.0000
29.9600 720.0000 1.0000
29.9700 734.0000 1.0000
29.9800 730.0000 1.0000
29.9900 724.0000 1.0000
30.0000 720.0000 1.0000
30.0100 722.0000 1.0000
30.0200 719.0000 1.0000
30.0300 727.0000 1.0000
30.0400 732.0000 1.0000
30.0500 694.0000 1.0000
30.0600 718.0000 1.0000
30.0700 733.0000 1.0000
30.0800 657.0000 1.0000
30.0900 672.0000 1.0000
30.1000 729.0000 1.0000
30.1100 707.0000 1.0000
30.1200 702.0000 1.0000
30.1300 721.0000 1.0000
30.1400 737.0000 1.0000
30.1500 698.0000 1.0000
30.1600 675.0000 1.0000
30.1700 683.0000 1.0000
30.1800 661.0000 1.0000
30.1900 679.0000 1.0000
30.2000 674.0000 1.0000
30.2100 663.0000 1.0000
30.2200 694.0000 1.0000
30.2300 712.0000 1.0000
30.2400 716.0000 1.0000
30.2500 697.0000 1.0000
30.2600 715.0000 1.0000
30.2700 705.0000 1.0000
30.2800 710.0000 1.0000
30.2900 710.0000 1.0000
30.3000 753.0000 1.0000
30.3100 718.0000 1.0000
30.3200 701.0000 1.0000
30.3300 696.0000 1.0000
30.3400 697.0000 1.0000
30.3500 697.0000 1.0000
30.3600 698.0000 1.0000
30.3700 703.0000 1.0000
30.3800 687.0000 1.0000
30.3900 674.0000 1.0000
30.4000 714.0000 1.0000
30.4100 747.0000 1.0000
30.4200 695.0000 1.0000
30.4300 704.0000 1.0000
30.4400 748.0000 1.0000
30.4500 728.0000 1.0000
30.4600 709.0000 1.0000
30.4700 683.0000 1.0000
30.4800 704.0000 1.0000
30.4900 690.0000 1.0000
30.5000 640.0000 1.0000
30.5100 639.0000 1.0000
30.5200 699.0000 1.0000
30.5300 697.0000 1.0000
30.5400 682.0000 1.0000
30.5500 652.0000 1.0000
30.5600 698.0000 1.0000
30.5700 683.0000 1.0000
30.5800 695.0000 1.0000
30.5900 696.0000 1.0000
30.6000 732.0000 1.0000
30.6100 690.0000 1.0000
30.6200 718.0000 1.0000
30.6300 683.0000 1.0000
30.6400 644.0000 1.0000
30.6500 683.0000 1.0000
30.6600 664.0000 1.0000
30.6700 670.0000 1.0000
30.6800 665.0000 1.0000
30.6900 648.0000 1.0000
30.7000 697.0000 1.0000
30.7100 629.0000 1.0000
30.7200 683.0000 1.0000
30.7300 668.0000 1.0000
30.7400 703.0000 1.0000
30.7500 641.0000 1.0000
30.7600 644.0000 1.0000
30.7700 650.0000 1.0000
30.7800 657.0000 1.0000
30.7900 646.0000 1.0000
30.8000 704.0000 1.0000
30.8100 692.0000 1.0000
30.8200 703.0000 1.0000
30.8300 696.0000 1.0000
30.8400 689.0000 1.0000
30.8500 669.0000 1.0000
30.8600 679.0000 1.0000
30.8700 656.0000 1.0000
30.8800 675.0000 1.0000
30.8900 690.0000 1.0000
30.9000 664.0000 1.0000
30.9100 653.0000 1.0000
30.9200 692.0000 1.0000
30.9300 693.0000 1.0000
30.9400 632.0000 1.0000
30.9500 660.0000 1.0000
30.9600 643.0000 1.0000
30.9700 644.0000 1.0000
30.9800 661.0000 1.0000
30.9900 672.0000 1.0000
31.0000 665.0000 1.0000
31.0100 646.0000 1.0000
31.0200 705.0000 1.0000
31.0300 680.0000 1.0000
31.0400 671.0000 1.0000
31.0500 705.0000 1.0000
31.0600 682.0000 1.0000
31.0700 706.0000 1.0000
31.0800 687.0000 1.0000
31.0900 693.0000 1.0000
31.1000 705.0000 1.0000
31.1100 652.0000 1.0000
31.1200 699.0000 1.0000
31.1300 706.0000 1.0000
31.1400 691.0000 1.0000
31.1500 704.0000 1.0000
31.1600 683.0000 1.0000
31.1700 729.0000 1.0000
31.1800 673.0000 1.0000
31.1900 645.0000 1.0000
31.2000 683.0000 1.0000
31.2100 679.0000 1.0000
31.2200 700.0000 1.0000
31.2300 688.0000 1.0000
31.2400 629.0000 1.0000
31.2500 667.0000 1.0000
31.2600 630.0000 1.0000
31.2700 629.0000 1.0000
31.2800 682.0000 1.0000
31.2900 688.0000 1.0000
31.3000 650.0000 1.0000
31.3100 685.0000 1.0000
31.3200 640.0000 1.0000
31.3300 674.0000 1.0000
31.3400 703.0000 1.0000
31.3500 691.0000 1.0000
31.3600 693.0000 1.0000
31.3700 635.0000 1.0000
31.3800 626.0000 1.0000
31.3900 667.0000 1.0000
31.4000 685.0000 1.0000
31.4100 660.0000 1.0000
31.4200 675.0000 1.0000
31.4300 640.0000 1.0000
31.4400 667.0000 1.0000
31.4500 689.0000 1.0000
31.4600 685.0000 1.0000
31.4700 686.0000 1.0000
31.4800 678.0000 1.0000
31.4900 631.0000 1.0000
31.5000 650.0000 1.0000
31.5100 660.0000 1.0000
31.5200 631.0000 1.0000
31.5300 617.0000 1.0000
31.5400 677.0000 1.0000
31.5500 623.0000 1.0000
31.5600 666.0000 1.0000
31.5700 658.0000 1.0000
31.5800 674.0000 1.0000
31.5900 668.0000 1.0000
31.6000 637.0000 1.0000
31.6100 644.0000 1.0000
31.6200 629.0000 1.0000
31.6300 674.0000 1.0000
31.6400 663.0000 1.0000
31.6500 661.0000 1.0000
31.6600 663.0000 1.0000
31.6700 684.0000 1.0000
31.6800 654.0000 1.0000
31.6900 642.0000 1.0000
31.7000 636.0000 1.0000
31.7100 626.0000 1.0000
31.7200 680.0000 1.0000
31.7300 651.0000 1.0000
31.7400 667.0000 1.0000
31.7500 642.0000 1.0000
31.7600 672.0000 1.0000
31.7700 627.0000 1.0000
31.7800 637.0000 1.0000
31.7900 699.0000 1.0000
31.8000 653.0000 1.0000
31.8100 640.0000 1.0000
31.8200 660.0000 1.0000
31.8300 625.0000 1.0000
31.8400 610.0000 1.0000
31.8500 638.0000 1.0000
31.8600 644.0000 1.0000
31.8700 677.0000 1.0000
31.8800 674.0000 1.0000
31.8900 653.0000 1.0000
31.9000 636.0000 1.0000
31.9100 609.0000 1.0000
31.9200 669.0000 1.0000
31.9300 652.0000 1.0000
31.9400 681.0000 1.0000
31.9500 660.0000 1.0000
31.9600 657.0000 1.0000
31.9700 620.0000 1.0000
31.9800 642.0000 1.0000
31.9900 650.0000 1.0000
32.0000 651.0000 1.0000
32.0100 700.0000 1.0000
32.0200 678.0000 1.0000
32.0300 612.0000 1.0000
32.0400 650.0000 1.0000
32.0500 651.0000 1.0000
32.0600 650.0000 1.0000
32.0700 655.0000 1.0000
32.0800 655.0000 1.0000
32.0900 686.0000 1.0000
32.1000 664.0000 1.0000
32.1100 674.0000 1.0000
32.1200 617.0000 1.0000
32.1300 610.0000 1.0000
32.1400 648.0000 1.0000
32.1500 658.0000 1.0000
32.1600 668.0000 1.0000
32.1700 641.0000 1.0000
32.1800 629.0000 1.0000
32.1900 666.0000 1.0000
32.2000 651.0000 1.0000
32.2100 642.0000 1.0000
32.2200 632.0000 1.0000
32.2300 621.0000 1.0000
32.2400 642.0000 1.0000
32.2500 653.0000 1.0000
32.2600 628.0000 1.0000
32.2700 665.0000 1.0000
32.2800 655.0000 1.0000
32.2900 599.0000 1.0000
32.3000 624.0000 1.0000
32.3100 621.0000 1.0000
32.3200 622.0000 1.0000
32.3300 619.0000 1.0000
32.3400 625.0000 1.0000
32.3500 613.0000 1.0000
32.3600 654.0000 1.0000
32.3700 648.0000 1.0000
32.3800 671.0000 1.0000
32.3900 662.0000 1.0000
32.4000 607.0000 1.0000
32.4100 619.0000 1.0000
32.4200 631.0000 1.0000
32.4300 669.0000 1.0000
32.4400 652.0000 1.0000
32.4500 649.0000 1.0000
32.4600 585.0000 1.0000
32.4700 633.0000 1.0000
32.4800 637.0000 1.0000
32.4900 662.0000 1.0000
32.5000 592.0000 1.0000
32.5100 659.0000 1.0000
32.5200 610.0000 1.0000
32.5300 599.0000 1.0000
32.5400 671.0000 1.0000
32.5500 650.0000 1.0000
32.5600 644.0000 1.0000
32.5700 625.0000 1.0000
32.5800 638.0000 1.0000
32.5900 656.0000 1.0000
32.6000 630.0000 1.0000
32.6100 637.0000 1.0000
32.6200 634.0000 1.0000
32.6300 641.0000 1.0000
32.6400 613.0000 1.0000
32.6500 687.0000 1.0000
32.6600 661.0000 1.0000
32.6700 629.0000 1.0000
32.6800 617.0000 1.0000
32.6900 671.0000 1.0000
32.7000 633.0000 1.0000
32.7100 625.0000 1.0000
32.7200 634.0000 1.0000
32.7300 664.0000 1.0000
32.7400 678.0000 1.0000
32.7500 656.0000 1.0000
32.7600 648.0000 1.0000
32.7700 627.0000 1.0000
32.7800 641.0000 1.0000
32.7900 664.0000 1.0000
32.8000 622.0000 1.0000
32.8100 665.0000 1.0000
32.8200 641.0000 1.0000
32.8300 651.0000 1.0000
32.8400 617.0000 1.0000
32.8500 693.0000 1.0000
32.8600 690.0000 1.0000
32.8700 694.0000 1.0000
32.8800 653.0000 1.0000
32.8900 703.0000 1.0000
32.9000 685.0000 1.0000
32.9100 693.0000 1.0000
32.9200 687.0000 1.0000
32.9300 663.0000 1.0000
32.9400 704.0000 1.0000
32.9500 713.0000 1.0000
32.9600 732.0000 1.0000
32.9700 747.0000 1.0000
32.9800 726.0000 1.0000
32.9900 754.0000 1.0000
33.0000 737.0000 1.0000
33.0100 750.0000 1.0000
33.0200 742.0000 1.0000
33.0300 742.0000 1.0000
33.0400 773.0000 1.0000
33.0500 803.0000 1.0000
33.0600 826.0000 1.0000
33.0700 825.0000 1.0000
33.0800 752.0000 1.0000
33.0900 807.0000 1.0000
33.1000 827.0000 1.0000
33.1100 824.0000 1.0000
33.1200 803.0000 1.0000
33.1300 809.0000 1.0000
33.1400 828.0000 1.0000
33.1500 843.0000 1.0000
33.1600 833.0000 1.0000
33.1700 788.0000 1.0000
33.1800 754.0000 1.0000
33.1900 772.0000 1.0000
33.2000 788.0000 1.0000
33.2100 789.0000 1.0000
33.2200 755.0000 1.0000
33.2300 735.0000 1.0000
33.2400 731.0000 1.0000
33.2500 752.0000 1.0000
33.2600 748.0000 1.0000
33.2700 765.0000 1.0000
33.2800 744.0000 1.0000
33.2900 744.0000 1.0000
33.3000 801.0000 1.0000
33.3100 749.0000 1.0000
33.3200 734.0000 1.0000
33.3300 754.0000 1.0000
33.3400 760.0000 1.0000
33.3500 760.0000 1.0000
33.3600 751.0000 1.0000
33.3700 768.0000 1.0000
33.3800 739.0000 1.0000
33.3900 800.0000 1.0000
33.4000 760.0000 1.0000
33.4100 785.0000 1.0000
33.4200 790.0000 1.0000
33.4300 871.0000 1.0000
33.4400 812.0000 1.0000
33.4500 809.0000 1.0000
33.4600 912.0000 1.0000
33.4700 911.0000 1.0000
33.4800 930.0000 1.0000
33.4900 942.0000 1.0000
33.5000 951.0000 1.0000
33.5100 965.0000 1.0000
33.5200 1044.0000 1.0000
33.5300 1031.0000 1.0000
33.5400 1086.0000 1.0000
33.5500 1127.0000 1.0000
33.5600 1213.0000 1.0000
33.5700 1236.0000 1.0000
33.5800 1281.0000 1.0000
33.5900 1329.0000 1.0000
33.6000 1394.0000 1.0000
33.6100 1462.0000 1.0000
33.6200 1490.0000 1.0000
33.6300 1538.0000 1.0000
33.6400 1594.0000 1.0000
33.6500 1587.0000 1.0000
33.6600 1442.0000 1.0000
33.6700 1491.0000 1.0000
33.6800 1451.0000 1.0000
33.6900 1490.0000 1.0000
33.7000 1403.0000 1.0000
33.7100 1326.0000 1.0000
33.7200 1293.0000 1.0000
33.7300 1285.0000 1.0000
33.7400 1208.0000 1.0000
33.7500 1174.0000 1.0000
33.7600 1155.0000 1.0000
33.7700 1103.0000 1.0000
33.7800 1102.0000 1.0000
33.7900 1051.0000 1.0000
33.8000 987.0000 1.0000
33.8100 934.0000 1.0000
33.8200 917.0000 1.0000
33.8300 857.0000 1.0000
33.8400 847.0000 1.0000
33.8500 868.0000 1.0000
33.8600 829.0000 1.0000
33.8700 795.0000 1.0000
33.8800 785.0000 1.0000
33.8900 766.0000 1.0000
33.9000 812.0000 1.0000
33.9100 745.0000 1.0000
33.9200 717.0000 1.0000
33.9300 679.0000 1.0000
33.9400 766.0000 1.0000
33.9500 747.0000 1.0000
33.9600 740.0000 1.0000
33.9700 710.0000 1.0000
33.9800 664.0000 1.0000
33.9900 707.0000 1.0000
34.0000 651.0000 1.0000
34.0100 674.0000 1.0000
34.0200 715.0000 1.0000
34.0300 664.0000 1.0000
34.0400 658.0000 1.0000
34.0500 635.0000 1.0000
34.0600 616.0000 1.0000
34.0700 598.0000 1.0000
34.0800 674.0000 1.0000
34.0900 634.0000 1.0000
34.1000 682.0000 1.0000
34.1100 643.0000 1.0000
34.1200 597.0000 1.0000
34.1300 615.0000 1.0000
34.1400 624.0000 1.0000
34.1500 626.0000 1.0000
34.1600 615.0000 1.0000
34.1700 625.0000 1.0000
34.1800 608.0000 1.0000
34.1900 593.0000 1.0000
34.2000 590.0000 1.0000
34.2100 617.0000 1.0000
34.2200 583.0000 1.0000
34.2300 580.0000 1.0000
34.2400 616.0000 1.0000
34.2500 574.0000 1.0000
34.2600 564.0000 1.0000
34.2700 614.0000 1.0000
34.2800 622.0000 1.0000
34.2900 620.0000 1.0000
34.3000 606.0000 1.0000
34.3100 608.0000 1.0000
34.3200 595.0000 1.0000
34.3300 553.0000 1.0000
34.3400 565.0000 1.0000
34.3500 578.0000 1.0000
34.3600 607.0000 1.0000
34.3700 573.0000 1.0000
34.3800 568.0000 1.0000
34.3900 575.0000 1.0000
34.4000 569.0000 1.0000
34.4100 579.0000 1.0000
34.4200 557.0000 1.0000
34.4300 586.0000 1.0000
34.4400 576.0000 1.0000
34.4500 565.0000 1.0000
34.4600 569.0000 1.0000
34.4700 573.0000 1.0000
34.4800 580.0000 1.0000
34.4900 555.0000 1.0000
34.5000 609.0000 1.0000
34.5100 543.0000 1.0000
34.5200 522.0000 1.0000
34.5300 540.0000 1.0000
34.5400 547.0000 1.0000
34.5500 531.0000 1.0000
34.5600 566.0000 1.0000
34.5700 547.0000 1.0000
34.5800 540.0000 1.0000
34.5900 538.0000 1.0000
34.6000 548.0000 1.0000
34.6100 556.0000 1.0000
34.6200 529.0000 1.0000
34.6300 562.0000 1.0000
34.6400 585.0000 1.0000
34.6500 593.0000 1.0000
34.6600 534.0000 1.0000
34.6700 553.0000 1.0000
34.6800 566.0000 1.0000
34.6900 595.0000 1.0000
34.7000 591.0000 1.0000
34.7100 540.0000 1.0000
34.7200 522.0000 1.0000
34.7300 571.0000 1.0000
34.7400 553.0000 1.0000
34.7500 567.0000 1.0000
34.7600 540.0000 1.0000
34.7700 544.0000 1.0000
34.7800 569.0000 1.0000
34.7900 525.0000 1.0000
34.8000 535.0000 1.0000
34.8100 526.0000 1.0000
34.8200 586.0000 1.0000
34.8300 526.0000 1.0000
34.8400 572.0000 1.0000
34.8500 562.0000 1.0000
34.8600 547.0000 1.0000
34.8700 540.0000 1.0000
34.8800 577.0000 1.0000
34.8900 559.0000 1.0000
34.9000 557.0000 1.0000
34.9100 566.0000 1.0000
34.9200 540.0000 1.0000
34.9300 524.0000 1.0000
34.9400 537.0000 1.0000
34.9500 533.0000 1.0000
34.9600 514.0000 1.0000
34.9700 546.0000 1.0000
34.9800 558.0000 1.0000
34.9900 565.0000 1.0000
35.0000 582.0000 1.0000
35.0100 553.0000 1.0000
35.0200 556.0000 1.0000
35.0300 547.0000 1.0000
35.0400 517.0000 1.0000
35.0500 523.0000 1.0000
35.0600 536.0000 1.0000
35.0700 522.0000 1.0000
35.0800 531.0000 1.0000
35.0900 570.0000 1.0000
35.1000 542.0000 1.0000
35.1100 555.0000 1.0000
35.1200 536.0000 1.0000
35.1300 562.0000 1.0000
35.1400 542.0000 1.0000
35.1500 563.0000 1.0000
35.1600 527.0000 1.0000
35.1700 556.0000 1.0000
35.1800 563.0000 1.0000
35.1900 544.0000 1.0000
35.2000 526.0000 1.0000
35.2100 551.0000 1.0000
35.2200 577.0000 1.0000
35.2300 553.0000 1.0000
35.2400 553.0000 1.0000
35.2500 581.0000 1.0000
35.2600 542.0000 1.0000
35.2700 591.0000 1.0000
35.2800 557.0000 1.0000
35.2900 568.0000 1.0000
35.3000 576.0000 1.0000
35.3100 624.0000 1.0000
35.3200 588.0000 1.0000
35.3300 581.0000 1.0000
35.3400 543.0000 1.0000
35.3500 546.0000 1.0000
35.3600 573.0000 1.0000
35.3700 623.0000 1.0000
35.3800 638.0000 1.0000
35.3900 625.0000 1.0000
35.4000 594.0000 1.0000
35.4100 594.0000 1.0000
35.4200 636.0000 1.0000
35.4300 639.0000 1.0000
35.4400 655.0000 1.0000
35.4500 655.0000 1.0000
35.4600 749.0000 1.0000
35.4700 722.0000 1.0000
35.4800 723.0000 1.0000
35.4900 727.0000 1.0000
35.5000 699.0000 1.0000
35.5100 744.0000 1.0000
35.5200 784.0000 1.0000
35.5300 802.0000 1.0000
35.5400 765.0000 1.0000
35.5500 813.0000 1.0000
35.5600 773.0000 1.0000
35.5700 777.0000 1.0000
35.5800 795.0000 1.0000
35.5900 746.0000 1.0000
35.6000 722.0000 1.0000
35.6100 735.0000 1.0000
35.6200 744.0000 1.0000
35.6300 741.0000 1.0000
35.6400 776.0000 1.0000
35.6500 748.0000 1.0000
35.6600 716.0000 1.0000
35.6700 683.0000 1.0000
35.6800 691.0000 1.0000
35.6900 671.0000 1.0000
35.7000 658.0000 1.0000
35.7100 641.0000 1.0000
35.7200 610.0000 1.0000
35.7300 599.0000 1.0000
35.7400 587.0000 1.0000
35.7500 620.0000 1.0000
35.7600 577.0000 1.0000
35.7700 582.0000 1.0000
35.7800 601.0000 1.0000
35.7900 588.0000 1.0000
35.8000 610.0000 1.0000
35.8100 582.0000 1.0000
35.8200 569.0000 1.0000
35.8300 572.0000 1.0000
35.8400 562.0000 1.0000
35.8500 567.0000 1.0000
35.8600 550.0000 1.0000
35.8700 512.0000 1.0000
35.8800 558.0000 1.0000
35.8900 560.0000 1.0000
35.9000 567.0000 1.0000
35.9100 557.0000 1.0000
35.9200 533.0000 1.0000
35.9300 531.0000 1.0000
35.9400 520.0000 1.0000
35.9500 536.0000 1.0000
35.9600 537.0000 1.0000
35.9700 534.0000 1.0000
35.9800 543.0000 1.0000
35.9900 511.0000 1.0000
36.0000 499.0000 1.0000
36.0100 542.0000 1.0000
36.0200 517.0000 1.0000
36.0300 503.0000 1.0000
36.0400 534.0000 1.0000
36.0500 488.0000 1.0000
36.0600 534.0000 1.0000
36.0700 529.0000 1.0000
36.0800 543.0000 1.0000
36.0900 515.0000 1.0000
36.1000 488.0000 1.0000
36.1100 534.0000 1.0000
36.1200 503.0000 1.0000
36.1300 507.0000 1.0000
36.1400 538.0000 1.0000
36.1500 500.0000 1.0000
36.1600 501.0000 1.0000
36.1700 482.0000 1.0000
36.1800 477.0000 1.0000
36.1900 511.0000 1.0000
36.2000 519.0000 1.0000
36.2100 514.0000 1.0000
36.2200 512.0000 1.0000
36.2300 535.0000 1.0000
36.2400 499.0000 1.0000
36.2500 481.0000 1.0000
36.2600 495.0000 1.0000
36.2700 554.0000 1.0000
36.2800 511.0000 1.0000
36.2900 497.0000 1.0000
36.3000 507.0000 1.0000
36.3100 480.0000 1.0000
36.3200 514.0000 1.0000
36.3300 498.0000 1.0000
36.3400 496.0000 1.0000
36.3500 479.0000 1.0000
36.3600 524.0000 1.0000
36.3700 551.0000 1.0000
36.3800 499.0000 1.0000
36.3900 503.0000 1.0000
36.4000 507.0000 1.0000
36.4100 518.0000 1.0000
36.4200 499.0000 1.0000
36.4300 524.0000 1.0000
36.4400 512.0000 1.0000
36.4500 472.0000 1.0000
36.4600 541.0000 1.0000
36.4700 499.0000 1.0000
36.4800 495.0000 1.0000
36.4900 496.0000 1.0000
36.5000 494.0000 1.0000
36.5100 482.0000 1.0000
36.5200 469.0000 1.0000
36.5300 485.0000 1.0000
36.5400 495.0000 1.0000
36.5500 495.0000 1.0000
36.5600 545.0000 1.0000
36.5700 539.0000 1.0000
36.5800 538.0000 1.0000
36.5900 492.0000 1.0000
36.6000 500.0000 1.0000
36.6100 546.0000 1.0000
36.6200 499.0000 1.0000
36.6300 502.0000 1.0000
36.6400 503.0000 1.0000
36.6500 503.0000 1.0000
36.6600 498.0000 1.0000
36.6700 486.0000 1.0000
36.6800 508.0000 1.0000
36.6900 479.0000 1.0000
36.7000 473.0000 1.0000
36.7100 488.0000 1.0000
36.7200 507.0000 1.0000
36.7300 479.0000 1.0000
36.7400 475.0000 1.0000
36.7500 504.0000 1.0000
36.7600 535.0000 1.0000
36.7700 473.0000 1.0000
36.7800 495.0000 1.0000
36.7900 490.0000 1.0000
36.8000 492.0000 1.0000
36.8100 477.0000 1.0000
36.8200 491.0000 1.0000
36.8300 471.0000 1.0000
36.8400 513.0000 1.0000
36.8500 483.0000 1.0000
36.8600 513.0000 1.0000
36.8700 481.0000 1.0000
36.8800 481.0000 1.0000
36.8900 470.0000 1.0000
36.9000 519.0000 1.0000
36.9100 500.0000 1.0000
36.9200 497.0000 1.0000
36.9300 489.0000 1.0000
36.9400 503.0000 1.0000
36.9500 492.0000 1.0000
36.9600 515.0000 1.0000
36.9700 509.0000 1.0000
36.9800 532.0000 1.0000
36.9900 552.0000 1.0000
37.0000 504.0000 1.0000
37.0100 504.0000 1.0000
37.0200 490.0000 1.0000
37.0300 536.0000 1.0000
37.0400 540.0000 1.0000
37.0500 482.0000 1.0000
37.0600 523.0000 1.0000
37.0700 540.0000 1.0000
37.0800 482.0000 1.0000
37.0900 502.0000 1.0000
37.1000 529.0000 1.0000
37.1100 517.0000 1.0000
37.1200 544.0000 1.0000
37.1300 537.0000 1.0000
37.1400 501.0000 1.0000
37.1500 513.0000 1.0000
37.1600 498.0000 1.0000
37.1700 501.0000 1.0000
37.1800 515.0000 1.0000
37.1900 558.0000 1.0000
37.2000 532.0000 1.0000
37.2100 510.0000 1.0000
37.2200 539.0000 1.0000
37.2300 523.0000 1.0000
37.2400 576.0000 1.0000
37.2500 584.0000 1.0000
37.2600 560.0000 1.0000
37.2700 543.0000 1.0000
37.2800 565.0000 1.0000
37.2900 608.0000 1.0000
37.3000 595.0000 1.0000
37.3100 559.0000 1.0000
37.3200 598.0000 1.0000
37.3300 613.0000 1.0000
37.3400 584.0000 1.0000
37.3500 622.0000 1.0000
37.3600 640.0000 1.0000
37.3700 681.0000 1.0000
37.3800 625.0000 1.0000
37.3900 689.0000 1.0000
37.4000 694.0000 1.0000
37.4100 705.0000 1.0000
37.4200 757.0000 1.0000
37.4300 758.0000 1.0000
37.4400 787.0000 1.0000
37.4500 820.0000 1.0000
37.4600 836.0000 1.0000
37.4700 868.0000 1.0000
37.4800 874.0000 1.0000
37.4900 948.0000 1.0000
37.5000 982.0000 1.0000
37.5100 1007.0000 1.0000
37.5200 1068.0000 1.0000
37.5300 1129.0000 1.0000
37.5400 1252.0000 1.0000
37.5500 1235.0000 1.0000
37.5600 1317.0000 1.0000
37.5700 1476.0000 1.0000
37.5800 1507.0000 1.0000
37.5900 1677.0000 1.0000
37.6000 1802.0000 1.0000
37.6100 1859.0000 1.0000
37.6200 1897.0000 1.0000
37.6300 2080.0000 1.0000
37.6400 2235.0000 1.0000
37.6500 2253.0000 1.0000
37.6600 2275.0000 1.0000
37.6700 2478.0000 1.0000
37.6800 2490.0000 1.0000
37.6900 2508.0000 1.0000
37.7000 2501.0000 1.0000
37.7100 2549.0000 1.0000
37.7200 2722.0000 1.0000
37.7300 2615.0000 1.0000
37.7400 2598.0000 1.0000
37.7500 2465.0000 1.0000
37.7600 2438.0000 1.0000
37.7700 2357.0000 1.0000
37.7800 2335.0000 1.0000
37.7900 2189.0000 1.0000
37.8000 2047.0000 1.0000
37.8100 1964.0000 1.0000
37.8200 1826.0000 1.0000
37.8300 1734.0000 1.0000
37.8400 1686.0000 1.0000
37.8500 1589.0000 1.0000
37.8600 1494.0000 1.0000
37.8700 1412.0000 1.0000
37.8800 1316.0000 1.0000
37.8900 1229.0000 1.0000
37.9000 1154.0000 1.0000
37.9100 1117.0000 1.0000
37.9200 1097.0000 1.0000
37.9300 993.0000 1.0000
37.9400 950.0000 1.0000
37.9500 879.0000 1.0000
37.9600 817.0000 1.0000
37.9700 811.0000 1.0000
37.9800 786.0000 1.0000
37.9900 788.0000 1.0000
38.0000 740.0000 1.0000
38.0100 684.0000 1.0000
38.0200 740.0000 1.0000
38.0300 707.0000 1.0000
38.0400 638.0000 1.0000
38.0500 654.0000 1.0000
38.0600 631.0000 1.0000
38.0700 611.0000 1.0000
38.0800 612.0000 1.0000
38.0900 578.0000 1.0000
38.1000 569.0000 1.0000
38.1100 573.0000 1.0000
38.1200 525.0000 1.0000
38.1300 558.0000 1.0000
38.1400 517.0000 1.0000
38.1500 502.0000 1.0000
38.1600 569.0000 1.0000
38.1700 518.0000 1.0000
38.1800 510.0000 1.0000
38.1900 517.0000 1.0000
38.2000 529.0000 1.0000
38.2100 515.0000 1.0000
38.2200 495.0000 1.0000
38.2300 491.0000 1.0000
38.2400 481.0000 1.0000
38.2500 525.0000 1.0000
38.2600 525.0000 1.0000
38.2700 499.0000 1.0000
38.2800 481.0000 1.0000
38.2900 474.0000 1.0000
38.3000 502.0000 1.0000
38.3100 495.0000 1.0000
38.3200 459.0000 1.0000
38.3300 444.0000 1.0000
38.3400 470.0000 1.0000
38.3500 470.0000 1.0000
38.3600 476.0000 1.0000
38.3700 470.0000 1.0000
38.3800 471.0000 1.0000
38.3900 458.0000 1.0000
38.4000 479.0000 1.0000
38.4100 454.0000 1.0000
38.4200 491.0000 1.0000
38.4300 472.0000 1.0000
38.4400 467.0000 1.0000
38.4500 471.0000 1.0000
38.4600 471.0000 1.0000
38.4700 455.0000 1.0000
38.4800 455.0000 1.0000
38.4900 451.0000 1.0000
38.5000 449.0000 1.0000
38.5100 447.0000 1.0000
38.5200 474.0000 1.0000
38.5300 470.0000 1.0000
38.5400 466.0000 1.0000
38.5500 462.0000 1.0000
38.5600 447.0000 1.0000
38.5700 457.0000 1.0000
38.5800 475.0000 1.0000
38.5900 462.0000 1.0000
38.6000 448.0000 1.0000
38.6100 444.0000 1.0000
38.6200 489.0000 1.0000
38.6300 469.0000 1.0000
38.6400 459.0000 1.0000
38.6500 492.0000 1.0000
38.6600 437.0000 1.0000
38.6700 462.0000 1.0000
38.6800 516.0000 1.0000
38.6900 459.0000 1.0000
38.7000 481.0000 1.0000
38.7100 486.0000 1.0000
38.7200 479.0000 1.0000
38.7300 458.0000 1.0000
38.7400 476.0000 1.0000
38.7500 518.0000 1.0000
38.7600 463.0000 1.0000
38.7700 476.0000 1.0000
38.7800 455.0000 1.0000
38.7900 475.0000 1.0000
38.8000 488.0000 1.0000
38.8100 455.0000 1.0000
38.8200 465.0000 1.0000
38.8300 485.0000 1.0000
38.8400 474.0000 1.0000
38.8500 477.0000 1.0000
38.8600 442.0000 1.0000
38.8700 447.0000 1.0000
38.8800 466.0000 1.0000
38.8900 443.0000 1.0000
38.9000 479.0000 1.0000
38.9100 475.0000 1.0000
38.9200 494.0000 1.0000
38.9300 460.0000 1.0000
38.9400 465.0000 1.0000
38.9500 430.0000 1.0000
38.9600 446.0000 1.0000
38.9700 452.0000 1.0000
38.9800 451.0000 1.0000
38.9900 462.0000 1.0000
39.0000 450.0000 1.0000
39.0100 452.0000 1.0000
39.0200 466.0000 1.0000
39.0300 413.0000 1.0000
39.0400 454.0000 1.0000
39.0500 449.0000 1.0000
39.0600 458.0000 1.0000
39.0700 460.0000 1.0000
39.0800 426.0000 1.0000
39.0900 464.0000 1.0000
39.1000 462.0000 1.0000
39.1100 438.0000 1.0000
39.1200 424.0000 1.0000
39.1300 438.0000 1.0000
39.1400 420.0000 1.0000
39.1500 423.0000 1.0000
39.1600 427.0000 1.0000
39.1700 458.0000 1.0000
39.1800 448.0000 1.0000
39.1900 424.0000 1.0000
39.2000 461.0000 1.0000
39.2100 460.0000 1.0000
39.2200 409.0000 1.0000
39.2300 419.0000 1.0000
39.2400 409.0000 1.0000
39.2500 431.0000 1.0000
39.2600 457.0000 1.0000
39.2700 435.0000 1.0000
39.2800 423.0000 1.0000
39.2900 423.0000 1.0000
39.3000 395.0000 1.0000
39.3100 373.0000 1.0000
39.3200 431.0000 1.0000
39.3300 414.0000 1.0000
39.3400 453.0000 1.0000
39.3500 439.0000 1.0000
39.3600 465.0000 1.0000
39.3700 449.0000 1.0000
39.3800 434.0000 1.0000
39.3900 426.0000 1.0000
39.4000 446.0000 1.0000
39.4100 392.0000 1.0000
39.4200 446.0000 1.0000
39.4300 432.0000 1.0000
39.4400 413.0000 1.0000
39.4500 430.0000 1.0000
39.4600 416.0000 1.0000
39.4700 411.0000 1.0000
39.4800 451.0000 1.0000
39.4900 452.0000 1.0000
39.5000 423.0000 1.0000
39.5100 401.0000 1.0000
39.5200 448.0000 1.0000
39.5300 440.0000 1.0000
39.5400 395.0000 1.0000
39.5500 445.0000 1.0000
39.5600 450.0000 1.0000
39.5700 367.0000 1.0000
39.5800 434.0000 1.0000
39.5900 419.0000 1.0000
39.6000 448.0000 1.0000
39.6100 430.0000 1.0000
39.6200 439.0000 1.0000
39.6300 421.0000 1.0000
39.6400 421.0000 1.0000
39.6500 427.0000 1.0000
39.6600 408.0000 1.0000
39.6700 412.0000 1.0000
39.6800 436.0000 1.0000
39.6900 436.0000 1.0000
39.7000 417.0000 1.0000
39.7100 410.0000 1.0000
39.7200 413.0000 1.0000
39.7300 398.0000 1.0000
39.7400 427.0000 1.0000
39.7500 448.0000 1.0000
39.7600 422.0000 1.0000
39.7700 435.0000 1.0000
39.7800 436.0000 1.0000
39.7900 407.0000 1.0000
39.8000 406.0000 1.0000
39.8100 384.0000 1.0000
39.8200 403.0000 1.0000
39.8300 431.0000 1.0000
39.8400 454.0000 1.0000
39.8500 401.0000 1.0000
39.8600 401.0000 1.0000
39.8700 414.0000 1.0000
39.8800 404.0000 1.0000
39.8900 401.0000 1.0000
39.9000 437.0000 1.0000
39.9100 426.0000 1.0000
39.9200 399.0000 1.0000
39.9300 418.0000 1.0000
39.9400 446.0000 1.0000
39.9500 393.0000 1.0000
39.9600 414.0000 1.0000
39.9700 437.0000 1.0000
39.9800 439.0000 1.0000
39.9900 410.0000 1.0000
40.0000 415.0000 1.0000
40.0100 399.0000 1.0000
40.0200 406.0000 1.0000
40.0300 442.0000 1.0000
40.0400 467.0000 1.0000
40.0500 429.0000 1.0000
40.0600 420.0000 1.0000
40.0700 423.0000 1.0000
40.0800 405.0000 1.0000
40.0900 419.0000 1.0000
40.1000 418.0000 1.0000
40.1100 437.0000 1.0000
40.1200 415.0000 1.0000
40.1300 436.0000 1.0000
40.1400 434.0000 1.0000
40.1500 403.0000 1.0000
40.1600 388.0000 1.0000
40.1700 450.0000 1.0000
40.1800 450.0000 1.0000
40.1900 418.0000 1.0000
40.2000 440.0000 1.0000
40.2100 440.0000 1.0000
40.2200 430.0000 1.0000
40.2300 417.0000 1.0000
40.2400 441.0000 1.0000
40.2500 413.0000 1.0000
40.2600 412.0000 1.0000
40.2700 433.0000 1.0000
40.2800 408.0000 1.0000
40.2900 404.0000 1.0000
40.3000 425.0000 1.0000
40.3100 438.0000 1.0000
40.3200 415.0000 1.0000
40.3300 404.0000 1.0000
40.3400 403.0000 1.0000
40.3500 419.0000 1.0000
40.3600 449.0000 1.0000
40.3700 438.0000 1.0000
40.3800 410.0000 1.0000
40.3900 432.0000 1.0000
40.4000 396.0000 1.0000
40.4100 432.0000 1.0000
40.4200 446.0000 1.0000
40.4300 426.0000 1.0000
40.4400 408.0000 1.0000
40.4500 372.0000 1.0000
40.4600 430.0000 1.0000
40.4700 416.0000 1.0000
40.4800 434.0000 1.0000
40.4900 422.0000 1.0000
40.5000 379.0000 1.0000
40.5100 422.0000 1.0000
40.5200 412.0000 1.0000
40.5300 409.0000 1.0000
40.5400 425.0000 1.0000
40.5500 434.0000 1.0000
40.5600 420.0000 1.0000
40.5700 426.0000 1.0000
40.5800 434.0000 1.0000
40.5900 412.0000 1.0000
40.6000 410.0000 1.0000
40.6100 402.0000 1.0000
40.6200 427.0000 1.0000
40.6300 394.0000 1.0000
40.6400 435.0000 1.0000
40.6500 455.0000 1.0000
40.6600 423.0000 1.0000
40.6700 439.0000 1.0000
40.6800 422.0000 1.0000
40.6900 476.0000 1.0000
40.7000 428.0000 1.0000
40.7100 410.0000 1.0000
40.7200 430.0000 1.0000
40.7300 437.0000 1.0000
40.7400 452.0000 1.0000
40.7500 414.0000 1.0000
40.7600 429.0000 1.0000
40.7700 453.0000 1.0000
40.7800 466.0000 1.0000
40.7900 487.0000 1.0000
40.8000 463.0000 1.0000
40.8100 417.0000 1.0000
40.8200 447.0000 1.0000
40.8300 416.0000 1.0000
40.8400 423.0000 1.0000
40.8500 433.0000 1.0000
40.8600 461.0000 1.0000
40.8700 458.0000 1.0000
40.8800 443.0000 1.0000
40.8900 435.0000 1.0000
40.9000 450.0000 1.0000
40.9100 437.0000 1.0000
40.9200 452.0000 1.0000
40.9300 433.0000 1.0000
40.9400 448.0000 1.0000
40.9500 411.0000 1.0000
40.9600 403.0000 1.0000
40.9700 403.0000 1.0000
40.9800 424.0000 1.0000
40.9900 453.0000 1.0000
41.0000 416.0000 1.0000
41.0100 427.0000 1.0000
41.0200 444.0000 1.0000
41.0300 448.0000 1.0000
41.0400 439.0000 1.0000
41.0500 420.0000 1.0000
41.0600 385.0000 1.0000
41.0700 411.0000 1.0000
41.0800 419.0000 1.0000
41.0900 434.0000 1.0000
41.1000 469.0000 1.0000
41.1100 415.0000 1.0000
41.1200 406.0000 1.0000
41.1300 415.0000 1.0000
41.1400 389.0000 1.0000
41.1500 355.0000 1.0000
41.1600 428.0000 1.0000
41.1700 431.0000 1.0000
41.1800 440.0000 1.0000
41.1900 366.0000 1.0000
41.2000 388.0000 1.0000
41.2100 397.0000 1.0000
41.2200 380.0000 1.0000
41.2300 384.0000 1.0000
41.2400 371.0000 1.0000
41.2500 393.0000 1.0000
41.2600 390.0000 1.0000
41.2700 398.0000 1.0000
41.2800 425.0000 1.0000
41.2900 429.0000 1.0000
41.3000 381.0000 1.0000
41.3100 410.0000 1.0000
41.3200 422.0000 1.0000
41.3300 413.0000 1.0000
41.3400 418.0000 1.0000
41.3500 412.0000 1.0000
41.3600 405.0000 1.0000
41.3700 419.0000 1.0000
41.3800 421.0000 1.0000
41.3900 395.0000 1.0000
41.4000 403.0000 1.0000
41.4100 402.0000 1.0000
41.4200 387.0000 1.0000
41.4300 419.0000 1.0000
41.4400 422.0000 1.0000
41.4500 404.0000 1.0000
41.4600 416.0000 1.0000
41.4700 429.0000 1.0000
41.4800 398.0000 1.0000
41.4900 406.0000 1.0000
41.5000 394.0000 1.0000
41.5100 394.0000 1.0000
41.5200 387.0000 1.0000
41.5300 413.0000 1.0000
41.5400 404.0000 1.0000
41.5500 433.0000 1.0000
41.5600 422.0000 1.0000
41.5700 370.0000 1.0000
41.5800 418.0000 1.0000
41.5900 419.0000 1.0000
41.6000 427.0000 1.0000
41.6100 427.0000 1.0000
41.6200 391.0000 1.0000
41.6300 406.0000 1.0000
41.6400 395.0000 1.0000
41.6500 375.0000 1.0000
41.6600 417.0000 1.0000
41.6700 402.0000 1.0000
41.6800 416.0000 1.0000
41.6900 380.0000 1.0000
41.7000 409.0000 1.0000
41.7100 413.0000 1.0000
41.7200 380.0000 1.0000
41.7300 380.0000 1.0000
41.7400 407.0000 1.0000
41.7500 386.0000 1.0000
41.7600 409.0000 1.0000
41.7700 403.0000 1.0000
41.7800 386.0000 1.0000
41.7900 429.0000 1.0000
41.8000 396.0000 1.0000
41.8100 387.0000 1.0000
41.8200 366.0000 1.0000
41.8300 400.0000 1.0000
41.8400 385.0000 1.0000
41.8500 410.0000 1.0000
41.8600 373.0000 1.0000
41.8700 430.0000 1.0000
41.8800 441.0000 1.0000
41.8900 394.0000 1.0000
41.9000 403.0000 1.0000
41.9100 397.0000 1.0000
41.9200 413.0000 1.0000
41.9300 392.0000 1.0000
41.9400 387.0000 1.0000
41.9500 380.0000 1.0000
41.9600 399.0000 1.0000
41.9700 400.0000 1.0000
41.9800 398.0000 1.0000
41.9900 398.0000 1.0000
42.0000 412.0000 1.0000
42.0100 426.0000 1.0000
42.0200 410.0000 1.0000
42.0300 411.0000 1.0000
42.0400 389.0000 1.0000
42.0500 401.0000 1.0000
42.0600 386.0000 1.0000
42.0700 422.0000 1.0000
42.0800 407.0000 1.0000
42.0900 391.0000 1.0000
42.1000 428.0000 1.0000
42.1100 416.0000 1.0000
42.1200 428.0000 1.0000
42.1300 402.0000 1.0000
42.1400 413.0000 1.0000
42.1500 372.0000 1.0000
42.1600 426.0000 1.0000
42.1700 392.0000 1.0000
42.1800 395.0000 1.0000
42.1900 392.0000 1.0000
42.2000 409.0000 1.0000
42.2100 401.0000 1.0000
42.2200 398.0000 1.0000
42.2300 404.0000 1.0000
42.2400 407.0000 1.0000
42.2500 397.0000 1.0000
42.2600 428.0000 1.0000
42.2700 399.0000 1.0000
42.2800 411.0000 1.0000
42.2900 407.0000 1.0000
42.3000 403.0000 1.0000
42.3100 435.0000 1.0000
42.3200 442.0000 1.0000
42.3300 419.0000 1.0000
42.3400 457.0000 1.0000
42.3500 411.0000 1.0000
42.3600 406.0000 1.0000
42.3700 430.0000 1.0000
42.3800 449.0000 1.0000
42.3900 445.0000 1.0000
42.4000 439.0000 1.0000
42.4100 451.0000 1.0000
42.4200 435.0000 1.0000
42.4300 419.0000 1.0000
42.4400 411.0000 1.0000
42.4500 412.0000 1.0000
42.4600 427.0000 1.0000
42.4700 423.0000 1.0000
42.4800 418.0000 1.0000
42.4900 429.0000 1.0000
42.5000 428.0000 1.0000
42.5100 458.0000 1.0000
42.5200 465.0000 1.0000
42.5300 434.0000 1.0000
42.5400 413.0000 1.0000
42.5500 432.0000 1.0000
42.5600 377.0000 1.0000
42.5700 406.0000 1.0000
42.5800 418.0000 1.0000
42.5900 402.0000 1.0000
42.6000 419.0000 1.0000
42.6100 423.0000 1.0000
42.6200 378.0000 1.0000
42.6300 421.0000 1.0000
42.6400 413.0000 1.0000
42.6500 410.0000 1.0000
42.6600 410.0000 1.0000
42.6700 390.0000 1.0000
42.6800 371.0000 1.0000
42.6900 404.0000 1.0000
42.7000 409.0000 1.0000
42.7100 413.0000 1.0000
42.7200 382.0000 1.0000
42.7300 380.0000 1.0000
42.7400 376.0000 1.0000
42.7500 391.0000 1.0000
42.7600 425.0000 1.0000
42.7700 415.0000 1.0000
42.7800 387.0000 1.0000
42.7900 411.0000 1.0000
42.8000 417.0000 1.0000
42.8100 383.0000 1.0000
42.8200 385.0000 1.0000
42.8300 395.0000 1.0000
42.8400 404.0000 1.0000
42.8500 388.0000 1.0000
42.8600 405.0000 1.0000
42.8700 391.0000 1.0000
42.8800 395.0000 1.0000
42.8900 393.0000 1.0000
42.9000 379.0000 1.0000
42.9100 371.0000 1.0000
42.9200 420.0000 1.0000
42.9300 373.0000 1.0000
42.9400 379.0000 1.0000
42.9500 378.0000 1.0000
42.9600 382.0000 1.0000
42.9700 409.0000 1.0000
42.9800 371.0000 1.0000
42.9900 403.0000 1.0000
43.0000 367.0000 1.0000
43.0100 402.0000 1.0000
43.0200 389.0000 1.0000
43.0300 396.0000 1.0000
43.0400 396.0000 1.0000
43.0500 376.0000 1.0000
43.0600 408.0000 1.0000
43.0700 409.0000 1.0000
43.0800 399.0000 1.0000
43.0900 403.0000 1.0000
43.1000 404.0000 1.0000
43.1100 407.0000 1.0000
43.1200 387.0000 1.0000
43.1300 392.0000 1.0000
43.1400 398.0000 1.0000
43.1500 383.0000 1.0000
43.1600 379.0000 1.0000
43.1700 409.0000 1.0000
43.1800 411.0000 1.0000
43.1900 365.0000 1.0000
43.2000 359.0000 1.0000
43.2100 365.0000 1.0000
43.2200 405.0000 1.0000
43.2300 404.0000 1.0000
43.2400 364.0000 1.0000
43.2500 395.0000 1.0000
43.2600 395.0000 1.0000
43.2700 364.0000 1.0000
43.2800 369.0000 1.0000
43.2900 403.0000 1.0000
43.3000 360.0000 1.0000
43.3100 375.0000 1.0000
43.3200 405.0000 1.0000
43.3300 385.0000 1.0000
43.3400 389.0000 1.0000
43.3500 365.0000 1.0000
43.3600 383.0000 1.0000
43.3700 378.0000 1.0000
43.3800 386.0000 1.0000
43.3900 372.0000 1.0000
43.4000 396.0000 1.0000
43.4100 406.0000 1.0000
43.4200 407.0000 1.0000
43.4300 403.0000 1.0000
43.4400 376.0000 1.0000
43.4500 417.0000 1.0000
43.4600 439.0000 1.0000
43.4700 390.0000 1.0000
43.4800 384.0000 1.0000
43.4900 373.0000 1.0000
43.5000 388.0000 1.0000
43.5100 383.0000 1.0000
43.5200 381.0000 1.0000
43.5300 387.0000 1.0000
43.5400 397.0000 1.0000
43.5500 395.0000 1.0000
43.5600 376.0000 1.0000
43.5700 384.0000 1.0000
43.5800 406.0000 1.0000
43.5900 351.0000 1.0000
43.6000 386.0000 1.0000
43.6100 370.0000 1.0000
43.6200 378.0000 1.0000
43.6300 390.0000 1.0000
43.6400 408.0000 1.0000
43.6500 406.0000 1.0000
43.6600 373.0000 1.0000
43.6700 369.0000 1.0000
43.6800 402.0000 1.0000
43.6900 378.0000 1.0000
43.7000 366.0000 1.0000
43.7100 383.0000 1.0000
43.7200 400.0000 1.0000
43.7300 354.0000 1.0000
43.7400 385.0000 1.0000
43.7500 396.0000 1.0000
43.7600 402.0000 1.0000
43.7700 419.0000 1.0000
43.7800 369.0000 1.0000
43.7900 412.0000 1.0000
43.8000 398.0000 1.0000
43.8100 418.0000 1.0000
43.8200 391.0000 1.0000
43.8300 415.0000 1.0000
43.8400 377.0000 1.0000
43.8500 388.0000 1.0000
43.8600 374.0000 1.0000
43.8700 378.0000 1.0000
43.8800 416.0000 1.0000
43.8900 376.0000 1.0000
43.9000 389.0000 1.0000
43.9100 404.0000 1.0000
43.9200 390.0000 1.0000
43.9300 393.0000 1.0000
43.9400 393.0000 1.0000
43.9500 355.0000 1.0000
43.9600 380.0000 1.0000
43.9700 407.0000 1.0000
43.9800 393.0000 1.0000
43.9900 380.0000 1.0000
44.0000 376.0000 1.0000
44.0100 362.0000 1.0000
44.0200 351.0000 1.0000
44.0300 369.0000 1.0000
44.0400 382.0000 1.0000
44.0500 393.0000 1.0000
44.0600 392.0000 1.0000
44.0700 373.0000 1.0000
44.0800 387.0000 1.0000
44.0900 364.0000 1.0000
44.1000 401.0000 1.0000
44.1100 399.0000 1.0000
44.1200 359.0000 1.0000
44.1300 392.0000 1.0000
44.1400 357.0000 1.0000
44.1500 378.0000 1.0000
44.1600 358.0000 1.0000
44.1700 378.0000 1.0000
44.1800 379.0000 1.0000
44.1900 359.0000 1.0000
44.2000 378.0000 1.0000
44.2100 399.0000 1.0000
44.2200 339.0000 1.0000
44.2300 349.0000 1.0000
44.2400 373.0000 1.0000
44.2500 354.0000 1.0000
44.2600 381.0000 1.0000
44.2700 387.0000 1.0000
44.2800 364.0000 1.0000
44.2900 370.0000 1.0000
44.3000 382.0000 1.0000
44.3100 370.0000 1.0000
44.3200 378.0000 1.0000
44.3300 365.0000 1.0000
44.3400 372.0000 1.0000
44.3500 399.0000 1.0000
44.3600 363.0000 1.0000
44.3700 390.0000 1.0000
44.3800 348.0000 1.0000
44.3900 370.0000 1.0000
44.4000 365.0000 1.0000
44.4100 387.0000 1.0000
44.4200 378.0000 1.0000
44.4300 398.0000 1.0000
44.4400 401.0000 1.0000
44.4500 393.0000 1.0000
44.4600 360.0000 1.0000
44.4700 371.0000 1.0000
44.4800 370.0000 1.0000
44.4900 379.0000 1.0000
44.5000 374.0000 1.0000
44.5100 371.0000 1.0000
44.5200 350.0000 1.0000
44.5300 389.0000 1.0000
44.5400 377.0000 1.0000
44.5500 399.0000 1.0000
44.5600 361.0000 1.0000
44.5700 380.0000 1.0000
44.5800 378.0000 1.0000
44.5900 380.0000 1.0000
44.6000 408.0000 1.0000
44.6100 348.0000 1.0000
44.6200 364.0000 1.0000
44.6300 366.0000 1.0000
44.6400 364.0000 1.0000
44.6500 364.0000 1.0000
44.6600 385.0000 1.0000
44.6700 401.0000 1.0000
44.6800 367.0000 1.0000
44.6900 392.0000 1.0000
44.7000 361.0000 1.0000
44.7100 365.0000 1.0000
44.7200 382.0000 1.0000
44.7300 390.0000 1.0000
44.7400 370.0000 1.0000
44.7500 363.0000 1.0000
44.7600 390.0000 1.0000
44.7700 403.0000 1.0000
44.7800 411.0000 1.0000
44.7900 369.0000 1.0000
44.8000 337.0000 1.0000
44.8100 362.0000 1.0000
44.8200 387.0000 1.0000
44.8300 366.0000 1.0000
44.8400 350.0000 1.0000
44.8500 391.0000 1.0000
44.8600 373.0000 1.0000
44.8700 403.0000 1.0000
44.8800 383.0000 1.0000
44.8900 379.0000 1.0000
44.9000 358.0000 1.0000
44.9100 352.0000 1.0000
44.9200 340.0000 1.0000
44.9300 372.0000 1.0000
44.9400 371.0000 1.0000
44.9500 410.0000 1.0000
44.9600 418.0000 1.0000
44.9700 382.0000 1.0000
44.9800 366.0000 1.0000
44.9900 378.0000 1.0000
45.0000 373.0000 1.0000
45.0100 366.0000 1.0000
45.0200 368.0000 1.0000
45.0300 337.0000 1.0000
45.0400 373.0000 1.0000
45.0500 351.0000 1.0000
45.0600 362.0000 1.0000
45.0700 376.0000 1.0000
45.0800 378.0000 1.0000
45.0900 406.0000 1.0000
45.1000 404.0000 1.0000
45.1100 396.0000 1.0000
45.1200 381.0000 1.0000
45.1300 412.0000 1.0000
45.1400 364.0000 1.0000
45.1500 362.0000 1.0000
45.1600 384.0000 1.0000
45.1700 359.0000 1.0000
45.1800 368.0000 1.0000
45.1900 341.0000 1.0000
45.2000 383.0000 1.0000
45.2100 376.0000 1.0000
45.2200 371.0000 1.0000
45.2300 372.0000 1.0000
45.2400 387.0000 1.0000
45.2500 377.0000 1.0000
45.2600 370.0000 1.0000
45.2700 354.0000 1.0000
45.2800 398.0000 1.0000
45.2900 386.0000 1.0000
45.3000 376.0000 1.0000
45.3100 409.0000 1.0000
45.3200 361.0000 1.0000
45.3300 329.0000 1.0000
45.3400 376.0000 1.0000
45.3500 366.0000 1.0000
45.3600 369.0000 1.0000
45.3700 363.0000 1.0000
45.3800 401.0000 1.0000
45.3900 384.0000 1.0000
45.4000 385.0000 1.0000
45.4100 355.0000 1.0000
45.4200 365.0000 1.0000
45.4300 355.0000 1.0000
45.4400 338.0000 1.0000
45.4500 363.0000 1.0000
45.4600 365.0000 1.0000
45.4700 375.0000 1.0000
45.4800 367.0000 1.0000
45.4900 359.0000 1.0000
45.5000 383.0000 1.0000
45.5100 351.0000 1.0000
45.5200 329.0000 1.0000
45.5300 359.0000 1.0000
45.5400 356.0000 1.0000
45.5500 333.0000 1.0000
45.5600 367.0000 1.0000
45.5700 375.0000 1.0000
45.5800 366.0000 1.0000
45.5900 368.0000 1.0000
45.6000 356.0000 1.0000
45.6100 344.0000 1.0000
45.6200 371.0000 1.0000
45.6300 375.0000 1.0000
45.6400 344.0000 1.0000
45.6500 348.0000 1.0000
45.6600 375.0000 1.0000
45.6700 363.0000 1.0000
45.6800 369.0000 1.0000
45.6900 355.0000 1.0000
45.7000 362.0000 1.0000
45.7100 380.0000 1.0000
45.7200 358.0000 1.0000
45.7300 338.0000 1.0000
45.7400 368.0000 1.0000
45.7500 348.0000 1.0000
45.7600 340.0000 1.0000
45.7700 350.0000 1.0000
45.7800 362.0000 1.0000
45.7900 340.0000 1.0000
45.8000 381.0000 1.0000
45.8100 352.0000 1.0000
45.8200 380.0000 1.0000
45.8300 365.0000 1.0000
45.8400 362.0000 1.0000
45.8500 385.0000 1.0000
45.8600 366.0000 1.0000
45.8700 347.0000 1.0000
45.8800 349.0000 1.0000
45.8900 359.0000 1.0000
45.9000 360.0000 1.0000
45.9100 390.0000 1.0000
45.9200 346.0000 1.0000
45.9300 386.0000 1.0000
45.9400 367.0000 1.0000
45.9500 337.0000 1.0000
45.9600 364.0000 1.0000
45.9700 358.0000 1.0000
45.9800 372.0000 1.0000
45.9900 373.0000 1.0000
46.0000 355.0000 1.0000
46.0100 361.0000 1.0000
46.0200 367.0000 1.0000
46.0300 378.0000 1.0000
46.0400 373.0000 1.0000
46.0500 371.0000 1.0000
46.0600 374.0000 1.0000
46.0700 354.0000 1.0000
46.0800 357.0000 1.0000
46.0900 371.0000 1.0000
46.1000 331.0000 1.0000
46.1100 376.0000 1.0000
46.1200 361.0000 1.0000
46.1300 370.0000 1.0000
46.1400 378.0000 1.0000
46.1500 369.0000 1.0000
46.1600 347.0000 1.0000
46.1700 346.0000 1.0000
46.1800 388.0000 1.0000
46.1900 397.0000 1.0000
46.2000 384.0000 1.0000
46.2100 359.0000 1.0000
46.2200 349.0000 1.0000
46.2300 370.0000 1.0000
46.2400 359.0000 1.0000
46.2500 379.0000 1.0000
46.2600 369.0000 1.0000
46.2700 404.0000 1.0000
46.2800 345.0000 1.0000
46.2900 380.0000 1.0000
46.3000 371.0000 1.0000
46.3100 373.0000 1.0000
46.3200 391.0000 1.0000
46.3300 350.0000 1.0000
46.3400 358.0000 1.0000
46.3500 367.0000 1.0000
46.3600 339.0000 1.0000
46.3700 350.0000 1.0000
46.3800 364.0000 1.0000
46.3900 391.0000 1.0000
46.4000 372.0000 1.0000
46.4100 353.0000 1.0000
46.4200 366.0000 1.0000
46.4300 353.0000 1.0000
46.4400 349.0000 1.0000
46.4500 383.0000 1.0000
46.4600 359.0000 1.0000
46.4700 355.0000 1.0000
46.4800 368.0000 1.0000
46.4900 372.0000 1.0000
46.5000 361.0000 1.0000
46.5100 344.0000 1.0000
46.5200 359.0000 1.0000
46.5300 350.0000 1.0000
46.5400 352.0000 1.0000
46.5500 341.0000 1.0000
46.5600 349.0000 1.0000
46.5700 360.0000 1.0000
46.5800 374.0000 1.0000
46.5900 353.0000 1.0000
46.6000 354.0000 1.0000
46.6100 386.0000 1.0000
46.6200 382.0000 1.0000
46.6300 338.0000 1.0000
46.6400 329.0000 1.0000
46.6500 344.0000 1.0000
46.6600 395.0000 1.0000
46.6700 340.0000 1.0000
46.6800 332.0000 1.0000
46.6900 335.0000 1.0000
46.7000 349.0000 1.0000
46.7100 375.0000 1.0000
46.7200 371.0000 1.0000
46.7300 340.0000 1.0000
46.7400 350.0000 1.0000
46.7500 351.0000 1.0000
46.7600 338.0000 1.0000
46.7700 373.0000 1.0000
46.7800 372.0000 1.0000
46.7900 377.0000 1.0000
46.8000 329.0000 1.0000
46.8100 347.0000 1.0000
46.8200 368.0000 1.0000
46.8300 369.0000 1.0000
46.8400 395.0000 1.0000
46.8500 331.0000 1.0000
46.8600 372.0000 1.0000
46.8700 357.0000 1.0000
46.8800 378.0000 1.0000
46.8900 371.0000 1.0000
46.9000 385.0000 1.0000
46.9100 337.0000 1.0000
46.9200 334.0000 1.0000
46.9300 381.0000 1.0000
46.9400 359.0000 1.0000
46.9500 354.0000 1.0000
46.9600 341.0000 1.0000
46.9700 357.0000 1.0000
46.9800 336.0000 1.0000
46.9900 377.0000 1.0000
47.0000 334.0000 1.0000
47.0100 358.0000 1.0000
47.0200 374.0000 1.0000
47.0300 362.0000 1.0000
47.0400 358.0000 1.0000
47.0500 355.0000 1.0000
47.0600 361.0000 1.0000
47.0700 333.0000 1.0000
47.0800 367.0000 1.0000
47.0900 354.0000 1.0000
47.1000 367.0000 1.0000
47.1100 351.0000 1.0000
47.1200 369.0000 1.0000
47.1300 318.0000 1.0000
47.1400 376.0000 1.0000
47.1500 358.0000 1.0000
47.1600 362.0000 1.0000
47.1700 341.0000 1.0000
47.1800 362.0000 1.0000
47.1900 358.0000 1.0000
47.2000 350.0000 1.0000
47.2100 367.0000 1.0000
47.2200 362.0000 1.0000
47.2300 335.0000 1.0000
47.2400 334.0000 1.0000
47.2500 371.0000 1.0000
47.2600 379.0000 1.0000
47.2700 336.0000 1.0000
47.2800 323.0000 1.0000
47.2900 344.0000 1.0000
47.3000 361.0000 1.0000
47.3100 354.0000 1.0000
47.3200 339.0000 1.0000
47.3300 360.0000 1.0000
47.3400 353.0000 1.0000
47.3500 346.0000 1.0000
47.3600 347.0000 1.0000
47.3700 326.0000 1.0000
47.3800 351.0000 1.0000
47.3900 352.0000 1.0000
47.4000 351.0000 1.0000
47.4100 353.0000 1.0000
47.4200 354.0000 1.0000
47.4300 330.0000 1.0000
47.4400 356.0000 1.0000
47.4500 365.0000 1.0000
47.4600 374.0000 1.0000
47.4700 339.0000 1.0000
47.4800 346.0000 1.0000
47.4900 334.0000 1.0000
47.5000 374.0000 1.0000
47.5100 340.0000 1.0000
47.5200 360.0000 1.0000
47.5300 353.0000 1.0000
47.5400 351.0000 1.0000
47.5500 368.0000 1.0000
47.5600 356.0000 1.0000
47.5700 324.0000 1.0000
47.5800 343.0000 1.0000
47.5900 339.0000 1.0000
47.6000 331.0000 1.0000
47.6100 362.0000 1.0000
47.6200 329.0000 1.0000
47.6300 330.0000 1.0000
47.6400 342.0000 1.0000
47.6500 356.0000 1.0000
47.6600 360.0000 1.0000
47.6700 384.0000 1.0000
47.6800 376.0000 1.0000
47.6900 324.0000 1.0000
47.7000 365.0000 1.0000
47.7100 318.0000 1.0000
47.7200 364.0000 1.0000
47.7300 345.0000 1.0000
47.7400 351.0000 1.0000
47.7500 385.0000 1.0000
47.7600 358.0000 1.0000
47.7700 329.0000 1.0000
47.7800 355.0000 1.0000
47.7900 339.0000 1.0000
47.8000 346.0000 1.0000
47.8100 378.0000 1.0000
47.8200 366.0000 1.0000
47.8300 339.0000 1.0000
47.8400 346.0000 1.0000
47.8500 331.0000 1.0000
47.8600 333.0000 1.0000
47.8700 358.0000 1.0000
47.8800 339.0000 1.0000
47.8900 337.0000 1.0000
47.9000 336.0000 1.0000
47.9100 328.0000 1.0000
47.9200 321.0000 1.0000
47.9300 341.0000 1.0000
47.9400 323.0000 1.0000
47.9500 321.0000 1.0000
47.9600 340.0000 1.0000
47.9700 345.0000 1.0000
47.9800 349.0000 1.0000
47.9900 369.0000 1.0000
48.0000 341.0000 1.0000
48.0100 357.0000 1.0000
48.0200 358.0000 1.0000
48.0300 340.0000 1.0000
48.0400 325.0000 1.0000
48.0500 331.0000 1.0000
48.0600 341.0000 1.0000
48.0700 345.0000 1.0000
48.0800 365.0000 1.0000
48.0900 341.0000 1.0000
48.1000 336.0000 1.0000
48.1100 325.0000 1.0000
48.1200 344.0000 1.0000
48.1300 366.0000 1.0000
48.1400 302.0000 1.0000
48.1500 332.0000 1.0000
48.1600 320.0000 1.0000
48.1700 361.0000 1.0000
48.1800 376.0000 1.0000
48.1900 355.0000 1.0000
48.2000 339.0000 1.0000
48.2100 342.0000 1.0000
48.2200 343.0000 1.0000
48.2300 368.0000 1.0000
48.2400 343.0000 1.0000
48.2500 365.0000 1.0000
48.2600 329.0000 1.0000
48.2700 340.0000 1.0000
48.2800 324.0000 1.0000
48.2900 352.0000 1.0000
48.3000 328.0000 1.0000
48.3100 338.0000 1.0000
48.3200 340.0000 1.0000
48.3300 349.0000 1.0000
48.3400 346.0000 1.0000
48.3500 337.0000 1.0000
48.3600 351.0000 1.0000
48.3700 365.0000 1.0000
48.3800 366.0000 1.0000
48.3900 354.0000 1.0000
48.4000 343.0000 1.0000
48.4100 353.0000 1.0000
48.4200 336.0000 1.0000
48.4300 364.0000 1.0000
48.4400 353.0000 1.0000
48.4500 346.0000 1.0000
48.4600 357.0000 1.0000
48.4700 348.0000 1.0000
48.4800 331.0000 1.0000
48.4900 372.0000 1.0000
48.5000 350.0000 1.0000
48.5100 349.0000 1.0000
48.5200 349.0000 1.0000
48.5300 321.0000 1.0000
48.5400 322.0000 1.0000
48.5500 327.0000 1.0000
48.5600 343.0000 1.0000
48.5700 334.0000 1.0000
48.5800 346.0000 1.0000
48.5900 330.0000 1.0000
48.6000 334.0000 1.0000
48.6100 341.0000 1.0000
48.6200 327.0000 1.0000
48.6300 330.0000 1.0000
48.6400 310.0000 1.0000
48.6500 333.0000 1.0000
48.6600 324.0000 1.0000
48.6700 318.0000 1.0000
48.6800 334.0000 1.0000
48.6900 311.0000 1.0000
48.7000 332.0000 1.0000
48.7100 340.0000 1.0000
48.7200 371.0000 1.0000
48.7300 343.0000 1.0000
48.7400 341.0000 1.0000
48.7500 325.0000 1.0000
48.7600 348.0000 1.0000
48.7700 335.0000 1.0000
48.7800 336.0000 1.0000
48.7900 356.0000 1.0000
48.8000 353.0000 1.0000
48.8100 350.0000 1.0000
48.8200 350.0000 1.0000
48.8300 342.0000 1.0000
48.8400 341.0000 1.0000
48.8500 350.0000 1.0000
48.8600 367.0000 1.0000
48.8700 355.0000 1.0000
48.8800 374.0000 1.0000
48.8900 332.0000 1.0000
48.9000 335.0000 1.0000
48.9100 318.0000 1.0000
48.9200 333.0000 1.0000
48.9300 340.0000 1.0000
48.9400 338.0000 1.0000
48.9500 327.0000 1.0000
48.9600 327.0000 1.0000
48.9700 344.0000 1.0000
48.9800 348.0000 1.0000
48.9900 364.0000 1.0000
49.0000 314.0000 1.0000
49.0100 354.0000 1.0000
49.0200 323.0000 1.0000
49.0300 362.0000 1.0000
49.0400 328.0000 1.0000
49.0500 346.0000 1.0000
49.0600 338.0000 1.0000
49.0700 333.0000 1.0000
49.0800 341.0000 1.0000
49.0900 337.0000 1.0000
49.1000 341.0000 1.0000
49.1100 311.0000 1.0000
49.1200 311.0000 1.0000
49.1300 354.0000 1.0000
49.1400 347.0000 1.0000
49.1500 329.0000 1.0000
49.1600 337.0000 1.0000
49.1700 356.0000 1.0000
49.1800 329.0000 1.0000
49.1900 343.0000 1.0000
49.2000 399.0000 1.0000
49.2100 371.0000 1.0000
49.2200 358.0000 1.0000
49.2300 317.0000 1.0000
49.2400 339.0000 1.0000
49.2500 358.0000 1.0000
49.2600 373.0000 1.0000
49.2700 367.0000 1.0000
49.2800 356.0000 1.0000
49.2900 337.0000 1.0000
49.3000 333.0000 1.0000
49.3100 347.0000 1.0000
49.3200 378.0000 1.0000
49.3300 402.0000 1.0000
49.3400 359.0000 1.0000
49.3500 377.0000 1.0000
49.3600 392.0000 1.0000
49.3700 387.0000 1.0000
49.3800 404.0000 1.0000
49.3900 393.0000 1.0000
49.4000 371.0000 1.0000
49.4100 365.0000 1.0000
49.4200 349.0000 1.0000
49.4300 359.0000 1.0000
49.4400 394.0000 1.0000
49.4500 374.0000 1.0000
49.4600 382.0000 1.0000
49.4700 364.0000 1.0000
49.4800 380.0000 1.0000
49.4900 429.0000 1.0000
49.5000 371.0000 1.0000
49.5100 385.0000 1.0000
49.5200 382.0000 1.0000
49.5300 375.0000 1.0000
49.5400 352.0000 1.0000
49.5500 375.0000 1.0000
49.5600 346.0000 1.0000
49.5700 362.0000 1.0000
49.5800 341.0000 1.0000
49.5900 362.0000 1.0000
49.6000 378.0000 1.0000
49.6100 372.0000 1.0000
49.6200 366.0000 1.0000
49.6300 343.0000 1.0000
49.6400 350.0000 1.0000
49.6500 374.0000 1.0000
49.6600 383.0000 1.0000
49.6700 343.0000 1.0000
49.6800 352.0000 1.0000
49.6900 368.0000 1.0000
49.7000 323.0000 1.0000
49.7100 322.0000 1.0000
49.7200 345.0000 1.0000
49.7300 330.0000 1.0000
49.7400 342.0000 1.0000
49.7500 364.0000 1.0000
49.7600 333.0000 1.0000
49.7700 326.0000 1.0000
49.7800 375.0000 1.0000
49.7900 366.0000 1.0000
49.8000 326.0000 1.0000
49.8100 349.0000 1.0000
49.8200 370.0000 1.0000
49.8300 358.0000 1.0000
49.8400 326.0000 1.0000
49.8500 348.0000 1.0000
49.8600 333.0000 1.0000
49.8700 354.0000 1.0000
49.8800 351.0000 1.0000
49.8900 347.0000 1.0000
49.9000 341.0000 1.0000
49.9100 344.0000 1.0000
49.9200 352.0000 1.0000
49.9300 340.0000 1.0000
49.9400 354.0000 1.0000
49.9500 363.0000 1.0000
49.9600 388.0000 1.0000
49.9700 355.0000 1.0000
49.9800 348.0000 1.0000
49.9900 389.0000 1.0000
50.0000 364.0000 1.0000
50.0100 352.0000 1.0000
50.0200 318.0000 1.0000
50.0300 334.0000 1.0000
50.0400 370.0000 1.0000
50.0500 350.0000 1.0000
50.0600 341.0000 1.0000
50.0700 350.0000 1.0000
50.0800 359.0000 1.0000
50.0900 360.0000 1.0000
50.1000 322.0000 1.0000
50.1100 357.0000 1.0000
50.1200 342.0000 1.0000
50.1300 308.0000 1.0000
50.1400 360.0000 1.0000
50.1500 336.0000 1.0000
50.1600 343.0000 1.0000
50.1700 348.0000 1.0000
50.1800 339.0000 1.0000
50.1900 310.0000 1.0000
50.2000 338.0000 1.0000
50.2100 348.0000 1.0000
50.2200 341.0000 1.0000
50.2300 336.0000 1.0000
50.2400 316.0000 1.0000
50.2500 350.0000 1.0000
50.2600 344.0000 1.0000
50.2700 350.0000 1.0000
50.2800 340.0000 1.0000
50.2900 338.0000 1.0000
50.3000 347.0000 1.0000
50.3100 354.0000 1.0000
50.3200 370.0000 1.0000
50.3300 321.0000 1.0000
50.3400 372.0000 1.0000
50.3500 309.0000 1.0000
50.3600 332.0000 1.0000
50.3700 337.0000 1.0000
50.3800 335.0000 1.0000
50.3900 320.0000 1.0000
50.4000 324.0000 1.0000
50.4100 344.0000 1.0000
50.4200 338.0000 1.0000
50.4300 358.0000 1.0000
50.4400 368.0000 1.0000
50.4500 352.0000 1.0000
50.4600 329.0000 1.0000
50.4700 360.0000 1.0000
50.4800 333.0000 1.0000
50.4900 352.0000 1.0000
50.5000 335.0000 1.0000
50.5100 370.0000 1.0000
50.5200 353.0000 1.0000
50.5300 338.0000 1.0000
50.5400 348.0000 1.0000
50.5500 358.0000 1.0000
50.5600 351.0000 1.0000
50.5700 360.0000 1.0000
50.5800 343.0000 1.0000
50.5900 330.0000 1.0000
50.6000 366.0000 1.0000
50.6100 355.0000 1.0000
50.6200 342.0000 1.0000
50.6300 333.0000 1.0000
50.6400 333.0000 1.0000
50.6500 371.0000 1.0000
50.6600 340.0000 1.0000
50.6700 353.0000 1.0000
50.6800 362.0000 1.0000
50.6900 333.0000 1.0000
50.7000 344.0000 1.0000
50.7100 350.0000 1.0000
50.7200 354.0000 1.0000
50.7300 353.0000 1.0000
50.7400 378.0000 1.0000
50.7500 358.0000 1.0000
50.7600 344.0000 1.0000
50.7700 321.0000 1.0000
50.7800 334.0000 1.0000
50.7900 319.0000 1.0000
50.8000 347.0000 1.0000
50.8100 354.0000 1.0000
50.8200 353.0000 1.0000
50.8300 344.0000 1.0000
50.8400 358.0000 1.0000
50.8500 360.0000 1.0000
50.8600 344.0000 1.0000
50.8700 362.0000 1.0000
50.8800 370.0000 1.0000
50.8900 350.0000 1.0000
50.9000 362.0000 1.0000
50.9100 373.0000 1.0000
50.9200 357.0000 1.0000
50.9300 370.0000 1.0000
50.9400 377.0000 1.0000
50.9500 381.0000 1.0000
50.9600 386.0000 1.0000
50.9700 380.0000 1.0000
50.9800 405.0000 1.0000
50.9900 414.0000 1.0000
51.0000 363.0000 1.0000
51.0100 385.0000 1.0000
51.0200 412.0000 1.0000
51.0300 373.0000 1.0000
51.0400 410.0000 1.0000
51.0500 388.0000 1.0000
51.0600 409.0000 1.0000
51.0700 397.0000 1.0000
51.0800 393.0000 1.0000
51.0900 443.0000 1.0000
51.1000 447.0000 1.0000
51.1100 425.0000 1.0000
51.1200 441.0000 1.0000
51.1300 476.0000 1.0000
51.1400 463.0000 1.0000
51.1500 445.0000 1.0000
51.1600 461.0000 1.0000
51.1700 502.0000 1.0000
51.1800 508.0000 1.0000
51.1900 487.0000 1.0000
51.2000 553.0000 1.0000
51.2100 544.0000 1.0000
51.2200 570.0000 1.0000
51.2300 606.0000 1.0000
51.2400 574.0000 1.0000
51.2500 632.0000 1.0000
51.2600 644.0000 1.0000
51.2700 675.0000 1.0000
51.2800 736.0000 1.0000
51.2900 738.0000 1.0000
51.3000 720.0000 1.0000
51.3100 866.0000 1.0000
51.3200 930.0000 1.0000
51.3300 933.0000 1.0000
51.3400 1028.0000 1.0000
51.3500 1109.0000 1.0000
51.3600 1175.0000 1.0000
51.3700 1281.0000 1.0000
51.3800 1399.0000 1.0000
51.3900 1459.0000 1.0000
51.4000 1620.0000 1.0000
51.4100 1704.0000 1.0000
51.4200 1878.0000 1.0000
51.4300 1955.0000 1.0000
51.4400 2084.0000 1.0000
51.4500 2095.0000 1.0000
51.4600 2155.0000 1.0000
51.4700 2247.0000 1.0000
51.4800 2273.0000 1.0000
51.4900 2288.0000 1.0000
51.5000 2271.0000 1.0000
51.5100 2182.0000 1.0000
51.5200 2101.0000 1.0000
51.5300 2076.0000 1.0000
51.5400 1987.0000 1.0000
51.5500 1869.0000 1.0000
51.5600 1805.0000 1.0000
51.5700 1794.0000 1.0000
51.5800 1700.0000 1.0000
51.5900 1731.0000 1.0000
51.6000 1644.0000 1.0000
51.6100 1601.0000 1.0000
51.6200 1515.0000 1.0000
51.6300 1483.0000 1.0000
51.6400 1418.0000 1.0000
51.6500 1350.0000 1.0000
51.6600 1248.0000 1.0000
51.6700 1168.0000 1.0000
51.6800 1095.0000 1.0000
51.6900 1023.0000 1.0000
51.7000 895.0000 1.0000
51.7100 888.0000 1.0000
51.7200 841.0000 1.0000
51.7300 781.0000 1.0000
51.7400 738.0000 1.0000
51.7500 691.0000 1.0000
51.7600 658.0000 1.0000
51.7700 611.0000 1.0000
51.7800 580.0000 1.0000
51.7900 586.0000 1.0000
51.8000 570.0000 1.0000
51.8100 529.0000 1.0000
51.8200 538.0000 1.0000
51.8300 494.0000 1.0000
51.8400 486.0000 1.0000
51.8500 476.0000 1.0000
51.8600 499.0000 1.0000
51.8700 475.0000 1.0000
51.8800 452.0000 1.0000
51.8900 467.0000 1.0000
51.9000 420.0000 1.0000
51.9100 429.0000 1.0000
51.9200 439.0000 1.0000
51.9300 421.0000 1.0000
51.9400 422.0000 1.0000
51.9500 423.0000 1.0000
51.9600 434.0000 1.0000
51.9700 376.0000 1.0000
51.9800 370.0000 1.0000
51.9900 378.0000 1.0000
52.0000 390.0000 1.0000
52.0100 391.0000 1.0000
52.0200 372.0000 1.0000
52.0300 420.0000 1.0000
52.0400 400.0000 1.0000
52.0500 409.0000 1.0000
52.0600 368.0000 1.0000
52.0700 335.0000 1.0000
52.0800 374.0000 1.0000
52.0900 380.0000 1.0000
52.1000 358.0000 1.0000
52.1100 407.0000 1.0000
52.1200 387.0000 1.0000
52.1300 372.0000 1.0000
52.1400 356.0000 1.0000
52.1500 380.0000 1.0000
52.1600 403.0000 1.0000
52.1700 335.0000 1.0000
52.1800 356.0000 1.0000
52.1900 380.0000 1.0000
52.2000 356.0000 1.0000
52.2100 364.0000 1.0000
52.2200 347.0000 1.0000
52.2300 332.0000 1.0000
52.2400 363.0000 1.0000
52.2500 387.0000 1.0000
52.2600 363.0000 1.0000
52.2700 341.0000 1.0000
52.2800 357.0000 1.0000
52.2900 349.0000 1.0000
52.3000 366.0000 1.0000
52.3100 358.0000 1.0000
52.3200 343.0000 1.0000
52.3300 334.0000 1.0000
52.3400 335.0000 1.0000
52.3500 348.0000 1.0000
52.3600 389.0000 1.0000
52.3700 366.0000 1.0000
52.3800 343.0000 1.0000
52.3900 344.0000 1.0000
52.4000 358.0000 1.0000
52.4100 332.0000 1.0000
52.4200 349.0000 1.0000
52.4300 341.0000 1.0000
52.4400 366.0000 1.0000
52.4500 330.0000 1.0000
52.4600 328.0000 1.0000
52.4700 321.0000 1.0000
52.4800 343.0000 1.0000
52.4900 355.0000 1.0000
52.5000 309.0000 1.0000
52.5100 338.0000 1.0000
52.5200 344.0000 1.0000
52.5300 352.0000 1.0000
52.5400 398.0000 1.0000
52.5500 357.0000 1.0000
52.5600 347.0000 1.0000
52.5700 333.0000 1.0000
52.5800 323.0000 1.0000
52.5900 345.0000 1.0000
52.6000 326.0000 1.0000
52.6100 349.0000 1.0000
52.6200 343.0000 1.0000
52.6300 346.0000 1.0000
52.6400 325.0000 1.0000
52.6500 354.0000 1.0000
52.6600 362.0000 1.0000
52.6700 298.0000 1.0000
52.6800 330.0000 1.0000
52.6900 377.0000 1.0000
52.7000 321.0000 1.0000
52.7100 328.0000 1.0000
52.7200 308.0000 1.0000
52.7300 328.0000 1.0000
52.7400 316.0000 1.0000
52.7500 331.0000 1.0000
52.7600 315.0000 1.0000
52.7700 346.0000 1.0000
52.7800 343.0000 1.0000
52.7900 345.0000 1.0000
52.8000 357.0000 1.0000
52.8100 341.0000 1.0000
52.8200 345.0000 1.0000
52.8300 325.0000 1.0000
52.8400 319.0000 1.0000
52.8500 341.0000 1.0000
52.8600 348.0000 1.0000
52.8700 320.0000 1.0000
52.8800 320.0000 1.0000
52.8900 315.0000 1.0000
52.9000 316.0000 1.0000
52.9100 327.0000 1.0000
52.9200 356.0000 1.0000
52.9300 345.0000 1.0000
52.9400 353.0000 1.0000
52.9500 349.0000 1.0000
52.9600 303.0000 1.0000
52.9700 318.0000 1.0000
52.9800 328.0000 1.0000
52.9900 341.0000 1.0000
53.0000 346.0000 1.0000
53.0100 350.0000 1.0000
53.0200 350.0000 1.0000
53.0300 345.0000 1.0000
53.0400 338.0000 1.0000
53.0500 339.0000 1.0000
53.0600 323.0000 1.0000
53.0700 325.0000 1.0000
53.0800 327.0000 1.0000
53.0900 330.0000 1.0000
53.1000 337.0000 1.0000
53.1100 320.0000 1.0000
53.1200 343.0000 1.0000
53.1300 334.0000 1.0000
53.1400 363.0000 1.0000
53.1500 328.0000 1.0000
53.1600 327.0000 1.0000
53.1700 307.0000 1.0000
53.1800 339.0000 1.0000
53.1900 334.0000 1.0000
53.2000 319.0000 1.0000
53.2100 303.0000 1.0000
53.2200 325.0000 1.0000
53.2300 349.0000 1.0000
53.2400 344.0000 1.0000
53.2500 335.0000 1.0000
53.2600 302.0000 1.0000
53.2700 336.0000 1.0000
53.2800 326.0000 1.0000
53.2900 323.0000 1.0000
53.3000 313.0000 1.0000
53.3100 327.0000 1.0000
53.3200 351.0000 1.0000
53.3300 321.0000 1.0000
53.3400 337.0000 1.0000
53.3500 349.0000 1.0000
53.3600 297.0000 1.0000
53.3700 327.0000 1.0000
53.3800 329.0000 1.0000
53.3900 319.0000 1.0000
53.4000 311.0000 1.0000
53.4100 312.0000 1.0000
53.4200 360.0000 1.0000
53.4300 340.0000 1.0000
53.4400 317.0000 1.0000
53.4500 329.0000 1.0000
53.4600 344.0000 1.0000
53.4700 319.0000 1.0000
53.4800 329.0000 1.0000
53.4900 314.0000 1.0000
53.5000 332.0000 1.0000
53.5100 328.0000 1.0000
53.5200 302.0000 1.0000
53.5300 320.0000 1.0000
53.5400 326.0000 1.0000
53.5500 329.0000 1.0000
53.5600 312.0000 1.0000
53.5700 336.0000 1.0000
53.5800 321.0000 1.0000
53.5900 333.0000 1.0000
53.6000 355.0000 1.0000
53.6100 318.0000 1.0000
53.6200 340.0000 1.0000
53.6300 322.0000 1.0000
53.6400 338.0000 1.0000
53.6500 321.0000 1.0000
53.6600 352.0000 1.0000
53.6700 348.0000 1.0000
53.6800 346.0000 1.0000
53.6900 341.0000 1.0000
53.7000 375.0000 1.0000
53.7100 352.0000 1.0000
53.7200 338.0000 1.0000
53.7300 362.0000 1.0000
53.7400 360.0000 1.0000
53.7500 355.0000 1.0000
53.7600 340.0000 1.0000
53.7700 355.0000 1.0000
53.7800 358.0000 1.0000
53.7900 335.0000 1.0000
53.8000 348.0000 1.0000
53.8100 346.0000 1.0000
53.8200 358.0000 1.0000
53.8300 335.0000 1.0000
53.8400 356.0000 1.0000
53.8500 352.0000 1.0000
53.8600 330.0000 1.0000
53.8700 348.0000 1.0000
53.8800 373.0000 1.0000
53.8900 377.0000 1.0000
53.9000 353.0000 1.0000
53.9100 367.0000 1.0000
53.9200 390.0000 1.0000
53.9300 344.0000 1.0000
53.9400 390.0000 1.0000
53.9500 366.0000 1.0000
53.9600 399.0000 1.0000
53.9700 379.0000 1.0000
53.9800 375.0000 1.0000
53.9900 363.0000 1.0000
54.0000 361.0000 1.0000
54.0100 373.0000 1.0000
54.0200 361.0000 1.0000
54.0300 372.0000 1.0000
54.0400 364.0000 1.0000
54.0500 355.0000 1.0000
54.0600 418.0000 1.0000
54.0700 371.0000 1.0000
54.0800 380.0000 1.0000
54.0900 373.0000 1.0000
54.1000 371.0000 1.0000
54.1100 343.0000 1.0000
54.1200 380.0000 1.0000
54.1300 383.0000 1.0000
54.1400 340.0000 1.0000
54.1500 394.0000 1.0000
54.1600 377.0000 1.0000
54.1700 372.0000 1.0000
54.1800 396.0000 1.0000
54.1900 359.0000 1.0000
54.2000 397.0000 1.0000
54.2100 374.0000 1.0000
54.2200 360.0000 1.0000
54.2300 401.0000 1.0000
54.2400 371.0000 1.0000
54.2500 370.0000 1.0000
54.2600 388.0000 1.0000
54.2700 400.0000 1.0000
54.2800 365.0000 1.0000
54.2900 370.0000 1.0000
54.3000 369.0000 1.0000
54.3100 380.0000 1.0000
54.3200 388.0000 1.0000
54.3300 393.0000 1.0000
54.3400 399.0000 1.0000
54.3500 426.0000 1.0000
54.3600 402.0000 1.0000
54.3700 401.0000 1.0000
54.3800 419.0000 1.0000
54.3900 437.0000 1.0000
54.4000 447.0000 1.0000
54.4100 426.0000 1.0000
54.4200 445.0000 1.0000
54.4300 479.0000 1.0000
54.4400 476.0000 1.0000
54.4500 463.0000 1.0000
54.4600 507.0000 1.0000
54.4700 508.0000 1.0000
54.4800 495.0000 1.0000
54.4900 479.0000 1.0000
54.5000 517.0000 1.0000
54.5100 467.0000 1.0000
54.5200 507.0000 1.0000
54.5300 492.0000 1.0000
54.5400 504.0000 1.0000
54.5500 478.0000 1.0000
54.5600 515.0000 1.0000
54.5700 465.0000 1.0000
54.5800 479.0000 1.0000
54.5900 485.0000 1.0000
54.6000 479.0000 1.0000
54.6100 470.0000 1.0000
54.6200 498.0000 1.0000
54.6300 457.0000 1.0000
54.6400 489.0000 1.0000
54.6500 446.0000 1.0000
54.6600 436.0000 1.0000
54.6700 432.0000 1.0000
54.6800 418.0000 1.0000
54.6900 420.0000 1.0000
54.7000 458.0000 1.0000
54.7100 444.0000 1.0000
54.7200 434.0000 1.0000
54.7300 410.0000 1.0000
54.7400 400.0000 1.0000
54.7500 371.0000 1.0000
54.7600 401.0000 1.0000
54.7700 389.0000 1.0000
54.7800 368.0000 1.0000
54.7900 378.0000 1.0000
54.8000 373.0000 1.0000
54.8100 379.0000 1.0000
54.8200 337.0000 1.0000
54.8300 326.0000 1.0000
54.8400 357.0000 1.0000
54.8500 381.0000 1.0000
54.8600 365.0000 1.0000
54.8700 390.0000 1.0000
54.8800 363.0000 1.0000
54.8900 324.0000 1.0000
54.9000 350.0000 1.0000
54.9100 317.0000 1.0000
54.9200 327.0000 1.0000
54.9300 337.0000 1.0000
54.9400 337.0000 1.0000
54.9500 351.0000 1.0000
54.9600 345.0000 1.0000
54.9700 338.0000 1.0000
54.9800 323.0000 1.0000
54.9900 330.0000 1.0000
55.0000 348.0000 1.0000
55.0100 304.0000 1.0000
55.0200 357.0000 1.0000
55.0300 350.0000 1.0000
55.0400 333.0000 1.0000
55.0500 339.0000 1.0000
55.0600 332.0000 1.0000
55.0700 324.0000 1.0000
55.0800 328.0000 1.0000
55.0900 298.0000 1.0000
55.1000 297.0000 1.0000
55.1100 338.0000 1.0000
55.1200 346.0000 1.0000
55.1300 344.0000 1.0000
55.1400 344.0000 1.0000
55.1500 299.0000 1.0000
55.1600 298.0000 1.0000
55.1700 338.0000 1.0000
55.1800 330.0000 1.0000
55.1900 317.0000 1.0000
55.2000 336.0000 1.0000
55.2100 309.0000 1.0000
55.2200 335.0000 1.0000
55.2300 310.0000 1.0000
55.2400 322.0000 1.0000
55.2500 329.0000 1.0000
55.2600 312.0000 1.0000
55.2700 319.0000 1.0000
55.2800 299.0000 1.0000
55.2900 325.0000 1.0000
55.3000 319.0000 1.0000
55.3100 294.0000 1.0000
55.3200 307.0000 1.0000
55.3300 318.0000 1.0000
55.3400 316.0000 1.0000
55.3500 324.0000 1.0000
55.3600 313.0000 1.0000
55.3700 303.0000 1.0000
55.3800 306.0000 1.0000
55.3900 343.0000 1.0000
55.4000 340.0000 1.0000
55.4100 307.0000 1.0000
55.4200 316.0000 1.0000
55.4300 333.0000 1.0000
55.4400 304.0000 1.0000
55.4500 312.0000 1.0000
55.4600 308.0000 1.0000
55.4700 315.0000 1.0000
55.4800 322.0000 1.0000
55.4900 295.0000 1.0000
55.5000 338.0000 1.0000
55.5100 334.0000 1.0000
55.5200 329.0000 1.0000
55.5300 338.0000 1.0000
55.5400 326.0000 1.0000
55.5500 349.0000 1.0000
55.5600 329.0000 1.0000
55.5700 333.0000 1.0000
55.5800 290.0000 1.0000
55.5900 313.0000 1.0000
55.6000 314.0000 1.0000
55.6100 303.0000 1.0000
55.6200 330.0000 1.0000
55.6300 304.0000 1.0000
55.6400 317.0000 1.0000
55.6500 301.0000 1.0000
55.6600 292.0000 1.0000
55.6700 320.0000 1.0000
55.6800 327.0000 1.0000
55.6900 299.0000 1.0000
55.7000 292.0000 1.0000
55.7100 286.0000 1.0000
55.7200 324.0000 1.0000
55.7300 313.0000 1.0000
55.7400 324.0000 1.0000
55.7500 302.0000 1.0000
55.7600 316.0000 1.0000
55.7700 319.0000 1.0000
55.7800 324.0000 1.0000
55.7900 290.0000 1.0000
55.8000 303.0000 1.0000
55.8100 283.0000 1.0000
55.8200 310.0000 1.0000
55.8300 314.0000 1.0000
55.8400 330.0000 1.0000
55.8500 334.0000 1.0000
55.8600 354.0000 1.0000
55.8700 320.0000 1.0000
55.8800 328.0000 1.0000
55.8900 338.0000 1.0000
55.9000 324.0000 1.0000
55.9100 310.0000 1.0000
55.9200 340.0000 1.0000
55.9300 325.0000 1.0000
55.9400 337.0000 1.0000
55.9500 316.0000 1.0000
55.9600 295.0000 1.0000
55.9700 319.0000 1.0000
55.9800 323.0000 1.0000
55.9900 304.0000 1.0000
56.0000 322.0000 1.0000
56.0100 323.0000 1.0000
56.0200 309.0000 1.0000
56.0300 313.0000 1.0000
56.0400 296.0000 1.0000
56.0500 296.0000 1.0000
56.0600 317.0000 1.0000
56.0700 327.0000 1.0000
56.0800 333.0000 1.0000
56.0900 330.0000 1.0000
56.1000 306.0000 1.0000
56.1100 333.0000 1.0000
56.1200 335.0000 1.0000
56.1300 328.0000 1.0000
56.1400 319.0000 1.0000
56.1500 309.0000 1.0000
56.1600 309.0000 1.0000
56.1700 309.0000 1.0000
56.1800 298.0000 1.0000
56.1900 307.0000 1.0000
56.2000 322.0000 1.0000
56.2100 328.0000 1.0000
56.2200 302.0000 1.0000
56.2300 322.0000 1.0000
56.2400 331.0000 1.0000
56.2500 313.0000 1.0000
56.2600 314.0000 1.0000
56.2700 339.0000 1.0000
56.2800 332.0000 1.0000
56.2900 336.0000 1.0000
56.3000 300.0000 1.0000
56.3100 307.0000 1.0000
56.3200 323.0000 1.0000
56.3300 350.0000 1.0000
56.3400 331.0000 1.0000
56.3500 303.0000 1.0000
56.3600 304.0000 1.0000
56.3700 307.0000 1.0000
56.3800 327.0000 1.0000
56.3900 331.0000 1.0000
56.4000 314.0000 1.0000
56.4100 307.0000 1.0000
56.4200 313.0000 1.0000
56.4300 289.0000 1.0000
56.4400 308.0000 1.0000
56.4500 327.0000 1.0000
56.4600 303.0000 1.0000
56.4700 308.0000 1.0000
56.4800 308.0000 1.0000
56.4900 270.0000 1.0000
56.5000 306.0000 1.0000
56.5100 303.0000 1.0000
56.5200 320.0000 1.0000
56.5300 284.0000 1.0000
56.5400 336.0000 1.0000
56.5500 322.0000 1.0000
56.5600 287.0000 1.0000
56.5700 289.0000 1.0000
56.5800 303.0000 1.0000
56.5900 296.0000 1.0000
56.6000 335.0000 1.0000
56.6100 351.0000 1.0000
56.6200 309.0000 1.0000
56.6300 316.0000 1.0000
56.6400 309.0000 1.0000
56.6500 328.0000 1.0000
56.6600 326.0000 1.0000
56.6700 301.0000 1.0000
56.6800 280.0000 1.0000
56.6900 323.0000 1.0000
56.7000 313.0000 1.0000
56.7100 311.0000 1.0000
56.7200 304.0000 1.0000
56.7300 312.0000 1.0000
56.7400 306.0000 1.0000
56.7500 289.0000 1.0000
56.7600 343.0000 1.0000
56.7700 306.0000 1.0000
56.7800 320.0000 1.0000
56.7900 285.0000 1.0000
56.8000 303.0000 1.0000
56.8100 297.0000 1.0000
56.8200 297.0000 1.0000
56.8300 311.0000 1.0000
56.8400 306.0000 1.0000
56.8500 308.0000 1.0000
56.8600 299.0000 1.0000
56.8700 314.0000 1.0000
56.8800 330.0000 1.0000
56.8900 338.0000 1.0000
56.9000 303.0000 1.0000
56.9100 316.0000 1.0000
56.9200 286.0000 1.0000
56.9300 301.0000 1.0000
56.9400 311.0000 1.0000
56.9500 339.0000 1.0000
56.9600 333.0000 1.0000
56.9700 272.0000 1.0000
56.9800 313.0000 1.0000
56.9900 334.0000 1.0000
57.0000 342.0000 1.0000
57.0100 274.0000 1.0000
57.0200 301.0000 1.0000
57.0300 303.0000 1.0000
57.0400 295.0000 1.0000
57.0500 319.0000 1.0000
57.0600 321.0000 1.0000
57.0700 302.0000 1.0000
57.0800 278.0000 1.0000
57.0900 301.0000 1.0000
57.1000 292.0000 1.0000
57.1100 292.0000 1.0000
57.1200 309.0000 1.0000
57.1300 312.0000 1.0000
57.1400 282.0000 1.0000
57.1500 310.0000 1.0000
57.1600 320.0000 1.0000
57.1700 344.0000 1.0000
57.1800 292.0000 1.0000
57.1900 318.0000 1.0000
57.2000 322.0000 1.0000
57.2100 326.0000 1.0000
57.2200 338.0000 1.0000
57.2300 330.0000 1.0000
57.2400 315.0000 1.0000
57.2500 319.0000 1.0000
57.2600 321.0000 1.0000
57.2700 339.0000 1.0000
57.2800 321.0000 1.0000
57.2900 323.0000 1.0000
57.3000 302.0000 1.0000
57.3100 335.0000 1.0000
57.3200 321.0000 1.0000
57.3300 351.0000 1.0000
57.3400 329.0000 1.0000
57.3500 324.0000 1.0000
57.3600 315.0000 1.0000
57.3700 309.0000 1.0000
57.3800 293.0000 1.0000
57.3900 326.0000 1.0000
57.4000 336.0000 1.0000
57.4100 334.0000 1.0000
57.4200 326.0000 1.0000
57.4300 314.0000 1.0000
57.4400 321.0000 1.0000
57.4500 331.0000 1.0000
57.4600 346.0000 1.0000
57.4700 319.0000 1.0000
57.4800 331.0000 1.0000
57.4900 326.0000 1.0000
57.5000 322.0000 1.0000
57.5100 354.0000 1.0000
57.5200 346.0000 1.0000
57.5300 342.0000 1.0000
57.5400 330.0000 1.0000
57.5500 336.0000 1.0000
57.5600 319.0000 1.0000
57.5700 345.0000 1.0000
57.5800 316.0000 1.0000
57.5900 313.0000 1.0000
57.6000 323.0000 1.0000
57.6100 322.0000 1.0000
57.6200 344.0000 1.0000
57.6300 313.0000 1.0000
57.6400 323.0000 1.0000
57.6500 320.0000 1.0000
57.6600 319.0000 1.0000
57.6700 312.0000 1.0000
57.6800 298.0000 1.0000
57.6900 323.0000 1.0000
57.7000 302.0000 1.0000
57.7100 311.0000 1.0000
57.7200 338.0000 1.0000
57.7300 305.0000 1.0000
57.7400 289.0000 1.0000
57.7500 334.0000 1.0000
57.7600 316.0000 1.0000
57.7700 287.0000 1.0000
57.7800 312.0000 1.0000
57.7900 319.0000 1.0000
57.8000 312.0000 1.0000
57.8100 329.0000 1.0000
57.8200 335.0000 1.0000
57.8300 309.0000 1.0000
57.8400 313.0000 1.0000
57.8500 327.0000 1.0000
57.8600 348.0000 1.0000
57.8700 313.0000 1.0000
57.8800 311.0000 1.0000
57.8900 331.0000 1.0000
57.9000 322.0000 1.0000
57.9100 316.0000 1.0000
57.9200 289.0000 1.0000
57.9300 318.0000 1.0000
57.9400 294.0000 1.0000
57.9500 295.0000 1.0000
57.9600 302.0000 1.0000
57.9700 327.0000 1.0000
57.9800 334.0000 1.0000
57.9900 306.0000 1.0000
58.0000 304.0000 1.0000
58.0100 319.0000 1.0000
58.0200 280.0000 1.0000
58.0300 268.0000 1.0000
58.0400 331.0000 1.0000
58.0500 288.0000 1.0000
58.0600 340.0000 1.0000
58.0700 288.0000 1.0000
58.0800 305.0000 1.0000
58.0900 299.0000 1.0000
58.1000 289.0000 1.0000
58.1100 318.0000 1.0000
58.1200 322.0000 1.0000
58.1300 291.0000 1.0000
58.1400 306.0000 1.0000
58.1500 307.0000 1.0000
58.1600 293.0000 1.0000
58.1700 305.0000 1.0000
58.1800 309.0000 1.0000
58.1900 297.0000 1.0000
58.2000 307.0000 1.0000
58.2100 321.0000 1.0000
58.2200 339.0000 1.0000
58.2300 313.0000 1.0000
58.2400 298.0000 1.0000
58.2500 309.0000 1.0000
58.2600 303.0000 1.0000
58.2700 314.0000 1.0000
58.2800 333.0000 1.0000
58.2900 299.0000 1.0000
58.3000 309.0000 1.0000
58.3100 290.0000 1.0000
58.3200 293.0000 1.0000
58.3300 328.0000 1.0000
58.3400 300.0000 1.0000
58.3500 299.0000 1.0000
58.3600 297.0000 1.0000
58.3700 309.0000 1.0000
58.3800 294.0000 1.0000
58.3900 311.0000 1.0000
58.4000 291.0000 1.0000
58.4100 315.0000 1.0000
58.4200 321.0000 1.0000
58.4300 336.0000 1.0000
58.4400 324.0000 1.0000
58.4500 318.0000 1.0000
58.4600 304.0000 1.0000
58.4700 299.0000 1.0000
58.4800 318.0000 1.0000
58.4900 323.0000 1.0000
58.5000 326.0000 1.0000
58.5100 302.0000 1.0000
58.5200 311.0000 1.0000
58.5300 298.0000 1.0000
58.5400 288.0000 1.0000
58.5500 324.0000 1.0000
58.5600 302.0000 1.0000
58.5700 307.0000 1.0000
58.5800 291.0000 1.0000
58.5900 333.0000 1.0000
58.6000 309.0000 1.0000
58.6100 307.0000 1.0000
58.6200 339.0000 1.0000
58.6300 316.0000 1.0000
58.6400 295.0000 1.0000
58.6500 278.0000 1.0000
58.6600 319.0000 1.0000
58.6700 289.0000 1.0000
58.6800 306.0000 1.0000
58.6900 310.0000 1.0000
58.7000 297.0000 1.0000
58.7100 311.0000 1.0000
58.7200 329.0000 1.0000
58.7300 298.0000 1.0000
58.7400 304.0000 1.0000
58.7500 304.0000 1.0000
58.7600 296.0000 1.0000
58.7700 310.0000 1.0000
58.7800 305.0000 1.0000
58.7900 341.0000 1.0000
58.8000 332.0000 1.0000
58.8100 285.0000 1.0000
58.8200 322.0000 1.0000
58.8300 313.0000 1.0000
58.8400 313.0000 1.0000
58.8500 301.0000 1.0000
58.8600 325.0000 1.0000
58.8700 337.0000 1.0000
58.8800 296.0000 1.0000
58.8900 317.0000 1.0000
58.9000 306.0000 1.0000
58.9100 301.0000 1.0000
58.9200 296.0000 1.0000
58.9300 314.0000 1.0000
58.9400 296.0000 1.0000
58.9500 317.0000 1.0000
58.9600 262.0000 1.0000
58.9700 320.0000 1.0000
58.9800 301.0000 1.0000
58.9900 286.0000 1.0000
59.0000 331.0000 1.0000
59.0100 342.0000 1.0000
59.0200 304.0000 1.0000
59.0300 307.0000 1.0000
59.0400 320.0000 1.0000
59.0500 326.0000 1.0000
59.0600 306.0000 1.0000
59.0700 332.0000 1.0000
59.0800 309.0000 1.0000
59.0900 327.0000 1.0000
59.1000 299.0000 1.0000
59.1100 313.0000 1.0000
59.1200 311.0000 1.0000
59.1300 289.0000 1.0000
59.1400 299.0000 1.0000
59.1500 309.0000 1.0000
59.1600 302.0000 1.0000
59.1700 337.0000 1.0000
59.1800 316.0000 1.0000
59.1900 299.0000 1.0000
59.2000 336.0000 1.0000
59.2100 329.0000 1.0000
59.2200 313.0000 1.0000
59.2300 287.0000 1.0000
59.2400 286.0000 1.0000
59.2500 314.0000 1.0000
59.2600 316.0000 1.0000
59.2700 319.0000 1.0000
59.2800 308.0000 1.0000
59.2900 311.0000 1.0000
59.3000 296.0000 1.0000
59.3100 312.0000 1.0000
59.3200 313.0000 1.0000
59.3300 289.0000 1.0000
59.3400 293.0000 1.0000
59.3500 312.0000 1.0000
59.3600 330.0000 1.0000
59.3700 315.0000 1.0000
59.3800 329.0000 1.0000
59.3900 305.0000 1.0000
59.4000 301.0000 1.0000
59.4100 318.0000 1.0000
59.4200 295.0000 1.0000
59.4300 296.0000 1.0000
59.4400 309.0000 1.0000
59.4500 293.0000 1.0000
59.4600 296.0000 1.0000
59.4700 337.0000 1.0000
59.4800 309.0000 1.0000
59.4900 319.0000 1.0000
59.5000 307.0000 1.0000
59.5100 268.0000 1.0000
59.5200 295.0000 1.0000
59.5300 315.0000 1.0000
59.5400 308.0000 1.0000
59.5500 295.0000 1.0000
59.5600 321.0000 1.0000
59.5700 297.0000 1.0000
59.5800 354.0000 1.0000
59.5900 307.0000 1.0000
59.6000 323.0000 1.0000
59.6100 318.0000 1.0000
59.6200 314.0000 1.0000
59.6300 317.0000 1.0000
59.6400 302.0000 1.0000
59.6500 286.0000 1.0000
59.6600 301.0000 1.0000
59.6700 320.0000 1.0000
59.6800 289.0000 1.0000
59.6900 312.0000 1.0000
59.7000 314.0000 1.0000
59.7100 323.0000 1.0000
59.7200 286.0000 1.0000
59.7300 303.0000 1.0000
59.7400 318.0000 1.0000
59.7500 315.0000 1.0000
59.7600 303.0000 1.0000
59.7700 307.0000 1.0000
59.7800 308.0000 1.0000
59.7900 332.0000 1.0000
59.8000 346.0000 1.0000
59.8100 324.0000 1.0000
59.8200 298.0000 1.0000
59.8300 284.0000 1.0000
59.8400 317.0000 1.0000
59.8500 307.0000 1.0000
59.8600 312.0000 1.0000
59.8700 285.0000 1.0000
59.8800 282.0000 1.0000
59.8900 314.0000 1.0000
59.9000 323.0000 1.0000
59.9100 292.0000 1.0000
59.9200 291.0000 1.0000
59.9300 314.0000 1.0000
59.9400 306.0000 1.0000
59.9500 289.0000 1.0000
59.9600 292.0000 1.0000
59.9700 322.0000 1.0000
59.9800 284.0000 1.0000
59.9900 309.0000 1.0000
60.0000 313.0000 1.0000
60.0100 310.0000 1.0000
60.0200 323.0000 1.0000
60.0300 294.0000 1.0000
60.0400 307.0000 1.0000
60.0500 329.0000 1.0000
60.0600 308.0000 1.0000
60.0700 310.0000 1.0000
60.0800 296.0000 1.0000
60.0900 290.0000 1.0000
60.1000 291.0000 1.0000
60.1100 287.0000 1.0000
60.1200 311.0000 1.0000
60.1300 290.0000 1.0000
60.1400 310.0000 1.0000
60.1500 296.0000 1.0000
60.1600 297.0000 1.0000
60.1700 307.0000 1.0000
60.1800 313.0000 1.0000
60.1900 296.0000 1.0000
60.2000 305.0000 1.0000
60.2100 317.0000 1.0000
60.2200 290.0000 1.0000
60.2300 305.0000 1.0000
60.2400 325.0000 1.0000
60.2500 313.0000 1.0000
60.2600 305.0000 1.0000
60.2700 293.0000 1.0000
60.2800 303.0000 1.0000
60.2900 292.0000 1.0000
60.3000 286.0000 1.0000
60.3100 305.0000 1.0000
60.3200 322.0000 1.0000
60.3300 307.0000 1.0000
60.3400 321.0000 1.0000
60.3500 333.0000 1.0000
60.3600 358.0000 1.0000
60.3700 281.0000 1.0000
60.3800 324.0000 1.0000
60.3900 301.0000 1.0000
60.4000 300.0000 1.0000
60.4100 303.0000 1.0000
60.4200 298.0000 1.0000
60.4300 311.0000 1.0000
60.4400 301.0000 1.0000
60.4500 343.0000 1.0000
60.4600 319.0000 1.0000
60.4700 305.0000 1.0000
60.4800 297.0000 1.0000
60.4900 302.0000 1.0000
60.5000 297.0000 1.0000
60.5100 319.0000 1.0000
60.5200 316.0000 1.0000
60.5300 268.0000 1.0000
60.5400 308.0000 1.0000
60.5500 289.0000 1.0000
60.5600 308.0000 1.0000
60.5700 283.0000 1.0000
60.5800 316.0000 1.0000
60.5900 313.0000 1.0000
60.6000 304.0000 1.0000
60.6100 325.0000 1.0000
60.6200 335.0000 1.0000
60.6300 316.0000 1.0000
60.6400 314.0000 1.0000
60.6500 330.0000 1.0000
60.6600 316.0000 1.0000
60.6700 309.0000 1.0000
60.6800 307.0000 1.0000
60.6900 326.0000 1.0000
60.7000 322.0000 1.0000
60.7100 287.0000 1.0000
60.7200 310.0000 1.0000
60.7300 316.0000 1.0000
60.7400 287.0000 1.0000
60.7500 302.0000 1.0000
60.7600 300.0000 1.0000
60.7700 318.0000 1.0000
60.7800 321.0000 1.0000
60.7900 327.0000 1.0000
60.8000 339.0000 1.0000
60.8100 337.0000 1.0000
60.8200 334.0000 1.0000
60.8300 299.0000 1.0000
60.8400 308.0000 1.0000
60.8500 313.0000 1.0000
60.8600 318.0000 1.0000
60.8700 315.0000 1.0000
60.8800 341.0000 1.0000
60.8900 335.0000 1.0000
60.9000 309.0000 1.0000
60.9100 310.0000 1.0000
60.9200 309.0000 1.0000
60.9300 308.0000 1.0000
60.9400 303.0000 1.0000
60.9500 307.0000 1.0000
60.9600 322.0000 1.0000
60.9700 347.0000 1.0000
60.9800 327.0000 1.0000
60.9900 314.0000 1.0000
61.0000 322.0000 1.0000
61.0100 321.0000 1.0000
61.0200 326.0000 1.0000
61.0300 323.0000 1.0000
61.0400 325.0000 1.0000
61.0500 340.0000 1.0000
61.0600 324.0000 1.0000
61.0700 324.0000 1.0000
61.0800 332.0000 1.0000
61.0900 340.0000 1.0000
61.1000 360.0000 1.0000
61.1100 350.0000 1.0000
61.1200 348.0000 1.0000
61.1300 364.0000 1.0000
61.1400 344.0000 1.0000
61.1500 352.0000 1.0000
61.1600 354.0000 1.0000
61.1700 340.0000 1.0000
61.1800 351.0000 1.0000
61.1900 360.0000 1.0000
61.2000 376.0000 1.0000
61.2100 355.0000 1.0000
61.2200 384.0000 1.0000
61.2300 367.0000 1.0000
61.2400 400.0000 1.0000
61.2500 397.0000 1.0000
61.2600 377.0000 1.0000
61.2700 395.0000 1.0000
61.2800 435.0000 1.0000
61.2900 444.0000 1.0000
61.3000 445.0000 1.0000
61.3100 425.0000 1.0000
61.3200 489.0000 1.0000
61.3300 445.0000 1.0000
61.3400 446.0000 1.0000
61.3500 476.0000 1.0000
61.3600 478.0000 1.0000
61.3700 495.0000 1.0000
61.3800 473.0000 1.0000
61.3900 531.0000 1.0000
61.4000 560.0000 1.0000
61.4100 567.0000 1.0000
61.4200 586.0000 1.0000
61.4300 546.0000 1.0000
61.4400 600.0000 1.0000
61.4500 652.0000 1.0000
61.4600 623.0000 1.0000
61.4700 604.0000 1.0000
61.4800 637.0000 1.0000
61.4900 653.0000 1.0000
61.5000 674.0000 1.0000
61.5100 702.0000 1.0000
61.5200 679.0000 1.0000
61.5300 704.0000 1.0000
61.5400 714.0000 1.0000
61.5500 669.0000 1.0000
61.5600 677.0000 1.0000
61.5700 690.0000 1.0000
61.5800 671.0000 1.0000
61.5900 650.0000 1.0000
61.6000 656.0000 1.0000
61.6100 651.0000 1.0000
61.6200 613.0000 1.0000
61.6300 648.0000 1.0000
61.6400 617.0000 1.0000
61.6500 606.0000 1.0000
61.6600 598.0000 1.0000
61.6700 595.0000 1.0000
61.6800 584.0000 1.0000
61.6900 582.0000 1.0000
61.7000 562.0000 1.0000
61.7100 548.0000 1.0000
61.7200 601.0000 1.0000
61.7300 571.0000 1.0000
61.7400 521.0000 1.0000
61.7500 535.0000 1.0000
61.7600 499.0000 1.0000
61.7700 503.0000 1.0000
61.7800 511.0000 1.0000
61.7900 480.0000 1.0000
61.8000 489.0000 1.0000
61.8100 474.0000 1.0000
61.8200 455.0000 1.0000
61.8300 446.0000 1.0000
61.8400 472.0000 1.0000
61.8500 461.0000 1.0000
61.8600 430.0000 1.0000
61.8700 435.0000 1.0000
61.8800 439.0000 1.0000
61.8900 413.0000 1.0000
61.9000 425.0000 1.0000
61.9100 423.0000 1.0000
61.9200 390.0000 1.0000
61.9300 396.0000 1.0000
61.9400 382.0000 1.0000
61.9500 414.0000 1.0000
61.9600 398.0000 1.0000
61.9700 370.0000 1.0000
61.9800 376.0000 1.0000
61.9900 350.0000 1.0000
62.0000 366.0000 1.0000
62.0100 397.0000 1.0000
62.0200 357.0000 1.0000
62.0300 337.0000 1.0000
62.0400 337.0000 1.0000
62.0500 365.0000 1.0000
62.0600 336.0000 1.0000
62.0700 384.0000 1.0000
62.0800 357.0000 1.0000
62.0900 347.0000 1.0000
62.1000 349.0000 1.0000
62.1100 350.0000 1.0000
62.1200 339.0000 1.0000
62.1300 339.0000 1.0000
62.1400 382.0000 1.0000
62.1500 372.0000 1.0000
62.1600 377.0000 1.0000
62.1700 349.0000 1.0000
62.1800 299.0000 1.0000
62.1900 323.0000 1.0000
62.2000 340.0000 1.0000
62.2100 356.0000 1.0000
62.2200 362.0000 1.0000
62.2300 312.0000 1.0000
62.2400 338.0000 1.0000
62.2500 353.0000 1.0000
62.2600 353.0000 1.0000
62.2700 340.0000 1.0000
62.2800 366.0000 1.0000
62.2900 361.0000 1.0000
62.3000 353.0000 1.0000
62.3100 349.0000 1.0000
62.3200 341.0000 1.0000
62.3300 335.0000 1.0000
62.3400 358.0000 1.0000
62.3500 373.0000 1.0000
62.3600 359.0000 1.0000
62.3700 342.0000 1.0000
62.3800 354.0000 1.0000
62.3900 320.0000 1.0000
62.4000 329.0000 1.0000
62.4100 354.0000 1.0000
62.4200 348.0000 1.0000
62.4300 344.0000 1.0000
62.4400 366.0000 1.0000
62.4500 341.0000 1.0000
62.4600 362.0000 1.0000
62.4700 329.0000 1.0000
62.4800 346.0000 1.0000
62.4900 373.0000 1.0000
62.5000 355.0000 1.0000
62.5100 348.0000 1.0000
62.5200 348.0000 1.0000
62.5300 325.0000 1.0000
62.5400 348.0000 1.0000
62.5500 296.0000 1.0000
62.5600 342.0000 1.0000
62.5700 322.0000 1.0000
62.5800 332.0000 1.0000
62.5900 306.0000 1.0000
62.6000 318.0000 1.0000
62.6100 313.0000 1.0000
62.6200 329.0000 1.0000
62.6300 351.0000 1.0000
62.6400 329.0000 1.0000
62.6500 353.0000 1.0000
62.6600 354.0000 1.0000
62.6700 345.0000 1.0000
62.6800 312.0000 1.0000
62.6900 331.0000 1.0000
62.7000 328.0000 1.0000
62.7100 312.0000 1.0000
62.7200 321.0000 1.0000
62.7300 321.0000 1.0000
62.7400 315.0000 1.0000
62.7500 338.0000 1.0000
62.7600 318.0000 1.0000
62.7700 290.0000 1.0000
62.7800 288.0000 1.0000
62.7900 327.0000 1.0000
62.8000 321.0000 1.0000
62.8100 320.0000 1.0000
62.8200 360.0000 1.0000
62.8300 315.0000 1.0000
62.8400 376.0000 1.0000
62.8500 323.0000 1.0000
62.8600 308.0000 1.0000
62.8700 309.0000 1.0000
62.8800 333.0000 1.0000
62.8900 346.0000 1.0000
62.9000 316.0000 1.0000
62.9100 310.0000 1.0000
62.9200 308.0000 1.0000
62.9300 314.0000 1.0000
62.9400 323.0000 1.0000
62.9500 332.0000 1.0000
62.9600 301.0000 1.0000
62.9700 288.0000 1.0000
62.9800 317.0000 1.0000
62.9900 311.0000 1.0000
63.0000 319.0000 1.0000
63.0100 306.0000 1.0000
63.0200 316.0000 1.0000
63.0300 287.0000 1.0000
63.0400 319.0000 1.0000
63.0500 308.0000 1.0000
63.0600 294.0000 1.0000
63.0700 299.0000 1.0000
63.0800 303.0000 1.0000
63.0900 298.0000 1.0000
63.1000 310.0000 1.0000
63.1100 293.0000 1.0000
63.1200 273.0000 1.0000
63.1300 296.0000 1.0000
63.1400 298.0000 1.0000
63.1500 307.0000 1.0000
63.1600 334.0000 1.0000
63.1700 311.0000 1.0000
63.1800 324.0000 1.0000
63.1900 326.0000 1.0000
63.2000 300.0000 1.0000
63.2100 329.0000 1.0000
63.2200 310.0000 1.0000
63.2300 328.0000 1.0000
63.2400 300.0000 1.0000
63.2500 319.0000 1.0000
63.2600 336.0000 1.0000
63.2700 297.0000 1.0000
63.2800 311.0000 1.0000
63.2900 293.0000 1.0000
63.3000 320.0000 1.0000
63.3100 314.0000 1.0000
63.3200 314.0000 1.0000
63.3300 308.0000 1.0000
63.3400 308.0000 1.0000
63.3500 323.0000 1.0000
63.3600 324.0000 1.0000
63.3700 337.0000 1.0000
63.3800 335.0000 1.0000
63.3900 317.0000 1.0000
63.4000 334.0000 1.0000
63.4100 323.0000 1.0000
63.4200 337.0000 1.0000
63.4300 311.0000 1.0000
63.4400 312.0000 1.0000
63.4500 323.0000 1.0000
63.4600 294.0000 1.0000
63.4700 305.0000 1.0000
63.4800 296.0000 1.0000
63.4900 297.0000 1.0000
63.5000 299.0000 1.0000
63.5100 315.0000 1.0000
63.5200 309.0000 1.0000
63.5300 318.0000 1.0000
63.5400 353.0000 1.0000
63.5500 322.0000 1.0000
63.5600 322.0000 1.0000
63.5700 339.0000 1.0000
63.5800 319.0000 1.0000
63.5900 295.0000 1.0000
63.6000 327.0000 1.0000
63.6100 318.0000 1.0000
63.6200 297.0000 1.0000
63.6300 305.0000 1.0000
63.6400 324.0000 1.0000
63.6500 297.0000 1.0000
63.6600 342.0000 1.0000
63.6700 310.0000 1.0000
63.6800 301.0000 1.0000
63.6900 311.0000 1.0000
63.7000 324.0000 1.0000
63.7100 342.0000 1.0000
63.7200 346.0000 1.0000
63.7300 348.0000 1.0000
63.7400 331.0000 1.0000
63.7500 336.0000 1.0000
63.7600 322.0000 1.0000
63.7700 326.0000 1.0000
63.7800 351.0000 1.0000
63.7900 323.0000 1.0000
63.8000 333.0000 1.0000
63.8100 339.0000 1.0000
63.8200 345.0000 1.0000
63.8300 378.0000 1.0000
63.8400 353.0000 1.0000
63.8500 363.0000 1.0000
63.8600 367.0000 1.0000
63.8700 350.0000 1.0000
63.8800 380.0000 1.0000
63.8900 356.0000 1.0000
63.9000 374.0000 1.0000
63.9100 375.0000 1.0000
63.9200 372.0000 1.0000
63.9300 386.0000 1.0000
63.9400 379.0000 1.0000
63.9500 333.0000 1.0000
63.9600 373.0000 1.0000
63.9700 352.0000 1.0000
63.9800 382.0000 1.0000
63.9900 369.0000 1.0000
64.0000 381.0000 1.0000
64.0100 374.0000 1.0000
64.0200 375.0000 1.0000
64.0300 375.0000 1.0000
64.0400 376.0000 1.0000
64.0500 337.0000 1.0000
64.0600 357.0000 1.0000
64.0700 368.0000 1.0000
64.0800 393.0000 1.0000
64.0900 365.0000 1.0000
64.1000 360.0000 1.0000
64.1100 375.0000 1.0000
64.1200 341.0000 1.0000
64.1300 359.0000 1.0000
64.1400 329.0000 1.0000
64.1500 361.0000 1.0000
64.1600 343.0000 1.0000
64.1700 357.0000 1.0000
64.1800 368.0000 1.0000
64.1900 332.0000 1.0000
64.2000 335.0000 1.0000
64.2100 348.0000 1.0000
64.2200 355.0000 1.0000
64.2300 350.0000 1.0000
64.2400 353.0000 1.0000
64.2500 315.0000 1.0000
64.2600 341.0000 1.0000
64.2700 313.0000 1.0000
64.2800 347.0000 1.0000
64.2900 332.0000 1.0000
64.3000 326.0000 1.0000
64.3100 305.0000 1.0000
64.3200 338.0000 1.0000
64.3300 369.0000 1.0000
64.3400 304.0000 1.0000
64.3500 313.0000 1.0000
64.3600 336.0000 1.0000
64.3700 336.0000 1.0000
64.3800 317.0000 1.0000
64.3900 335.0000 1.0000
64.4000 322.0000 1.0000
64.4100 306.0000 1.0000
64.4200 350.0000 1.0000
64.4300 346.0000 1.0000
64.4400 310.0000 1.0000
64.4500 331.0000 1.0000
64.4600 326.0000 1.0000
64.4700 318.0000 1.0000
64.4800 326.0000 1.0000
64.4900 310.0000 1.0000
64.5000 325.0000 1.0000
64.5100 309.0000 1.0000
64.5200 318.0000 1.0000
64.5300 307.0000 1.0000
64.5400 320.0000 1.0000
64.5500 319.0000 1.0000
64.5600 344.0000 1.0000
64.5700 329.0000 1.0000
64.5800 342.0000 1.0000
64.5900 320.0000 1.0000
64.6000 318.0000 1.0000
64.6100 312.0000 1.0000
64.6200 307.0000 1.0000
64.6300 329.0000 1.0000
64.6400 337.0000 1.0000
64.6500 311.0000 1.0000
64.6600 319.0000 1.0000
64.6700 327.0000 1.0000
64.6800 302.0000 1.0000
64.6900 322.0000 1.0000
64.7000 299.0000 1.0000
64.7100 311.0000 1.0000
64.7200 323.0000 1.0000
64.7300 336.0000 1.0000
64.7400 335.0000 1.0000
64.7500 315.0000 1.0000
64.7600 330.0000 1.0000
64.7700 313.0000 1.0000
64.7800 317.0000 1.0000
64.7900 342.0000 1.0000
64.8000 351.0000 1.0000
64.8100 343.0000 1.0000
64.8200 341.0000 1.0000
64.8300 319.0000 1.0000
64.8400 282.0000 1.0000
64.8500 302.0000 1.0000
64.8600 316.0000 1.0000
64.8700 309.0000 1.0000
64.8800 321.0000 1.0000
64.8900 321.0000 1.0000
64.9000 330.0000 1.0000
64.9100 341.0000 1.0000
64.9200 327.0000 1.0000
64.9300 343.0000 1.0000
64.9400 338.0000 1.0000
64.9500 333.0000 1.0000
64.9600 332.0000 1.0000
64.9700 339.0000 1.0000
64.9800 340.0000 1.0000
64.9900 348.0000 1.0000
65.0000 369.0000 1.0000
65.0100 338.0000 1.0000
65.0200 348.0000 1.0000
65.0300 314.0000 1.0000
65.0400 326.0000 1.0000
65.0500 368.0000 1.0000
65.0600 362.0000 1.0000
65.0700 338.0000 1.0000
65.0800 340.0000 1.0000
65.0900 340.0000 1.0000
65.1000 349.0000 1.0000
65.1100 365.0000 1.0000
65.1200 374.0000 1.0000
65.1300 374.0000 1.0000
65.1400 373.0000 1.0000
65.1500 379.0000 1.0000
65.1600 375.0000 1.0000
65.1700 382.0000 1.0000
65.1800 403.0000 1.0000
65.1900 423.0000 1.0000
65.2000 426.0000 1.0000
65.2100 431.0000 1.0000
65.2200 418.0000 1.0000
65.2300 412.0000 1.0000
65.2400 433.0000 1.0000
65.2500 438.0000 1.0000
65.2600 447.0000 1.0000
65.2700 467.0000 1.0000
65.2800 468.0000 1.0000
65.2900 465.0000 1.0000
65.3000 506.0000 1.0000
65.3100 487.0000 1.0000
65.3200 546.0000 1.0000
65.3300 572.0000 1.0000
65.3400 567.0000 1.0000
65.3500 560.0000 1.0000
65.3600 594.0000 1.0000
65.3700 656.0000 1.0000
65.3800 676.0000 1.0000
65.3900 687.0000 1.0000
65.4000 744.0000 1.0000
65.4100 741.0000 1.0000
65.4200 814.0000 1.0000
65.4300 826.0000 1.0000
65.4400 889.0000 1.0000
65.4500 859.0000 1.0000
65.4600 921.0000 1.0000
65.4700 1007.0000 1.0000
65.4800 1007.0000 1.0000
65.4900 1081.0000 1.0000
65.5000 1072.0000 1.0000
65.5100 1113.0000 1.0000
65.5200 1138.0000 1.0000
65.5300 1067.0000 1.0000
65.5400 1148.0000 1.0000
65.5500 1133.0000 1.0000
65.5600 1121.0000 1.0000
65.5700 1114.0000 1.0000
65.5800 1084.0000 1.0000
65.5900 1081.0000 1.0000
65.6000 1009.0000 1.0000
65.6100 1041.0000 1.0000
65.6200 1057.0000 1.0000
65.6300 983.0000 1.0000
65.6400 979.0000 1.0000
65.6500 938.0000 1.0000
65.6600 920.0000 1.0000
65.6700 958.0000 1.0000
65.6800 923.0000 1.0000
65.6900 937.0000 1.0000
65.7000 894.0000 1.0000
65.7100 889.0000 1.0000
65.7200 862.0000 1.0000
65.7300 863.0000 1.0000
65.7400 747.0000 1.0000
65.7500 750.0000 1.0000
65.7600 775.0000 1.0000
65.7700 717.0000 1.0000
65.7800 750.0000 1.0000
65.7900 700.0000 1.0000
65.8000 672.0000 1.0000
65.8100 624.0000 1.0000
65.8200 584.0000 1.0000
65.8300 566.0000 1.0000
65.8400 580.0000 1.0000
65.8500 577.0000 1.0000
65.8600 519.0000 1.0000
65.8700 519.0000 1.0000
65.8800 519.0000 1.0000
65.8900 515.0000 1.0000
65.9000 489.0000 1.0000
65.9100 493.0000 1.0000
65.9200 421.0000 1.0000
65.9300 453.0000 1.0000
65.9400 421.0000 1.0000
65.9500 390.0000 1.0000
65.9600 446.0000 1.0000
65.9700 436.0000 1.0000
65.9800 388.0000 1.0000
65.9900 418.0000 1.0000
66.0000 391.0000 1.0000
66.0100 380.0000 1.0000
66.0200 401.0000 1.0000
66.0300 391.0000 1.0000
66.0400 363.0000 1.0000
66.0500 345.0000 1.0000
66.0600 368.0000 1.0000
66.0700 359.0000 1.0000
66.0800 327.0000 1.0000
66.0900 361.0000 1.0000
66.1000 343.0000 1.0000
66.1100 349.0000 1.0000
66.1200 328.0000 1.0000
66.1300 335.0000 1.0000
66.1400 332.0000 1.0000
66.1500 314.0000 1.0000
66.1600 354.0000 1.0000
66.1700 333.0000 1.0000
66.1800 318.0000 1.0000
66.1900 317.0000 1.0000
66.2000 339.0000 1.0000
66.2100 302.0000 1.0000
66.2200 324.0000 1.0000
66.2300 298.0000 1.0000
66.2400 298.0000 1.0000
66.2500 320.0000 1.0000
66.2600 302.0000 1.0000
66.2700 318.0000 1.0000
66.2800 290.0000 1.0000
66.2900 303.0000 1.0000
66.3000 319.0000 1.0000
66.3100 304.0000 1.0000
66.3200 309.0000 1.0000
66.3300 308.0000 1.0000
66.3400 320.0000 1.0000
66.3500 283.0000 1.0000
66.3600 297.0000 1.0000
66.3700 283.0000 1.0000
66.3800 302.0000 1.0000
66.3900 329.0000 1.0000
66.4000 306.0000 1.0000
66.4100 296.0000 1.0000
66.4200 283.0000 1.0000
66.4300 295.0000 1.0000
66.4400 288.0000 1.0000
66.4500 304.0000 1.0000
66.4600 309.0000 1.0000
66.4700 291.0000 1.0000
66.4800 289.0000 1.0000
66.4900 301.0000 1.0000
66.5000 299.0000 1.0000
66.5100 310.0000 1.0000
66.5200 314.0000 1.0000
66.5300 253.0000 1.0000
66.5400 280.0000 1.0000
66.5500 297.0000 1.0000
66.5600 284.0000 1.0000
66.5700 270.0000 1.0000
66.5800 297.0000 1.0000
66.5900 311.0000 1.0000
66.6000 305.0000 1.0000
66.6100 287.0000 1.0000
66.6200 319.0000 1.0000
66.6300 300.0000 1.0000
66.6400 292.0000 1.0000
66.6500 267.0000 1.0000
66.6600 292.0000 1.0000
66.6700 286.0000 1.0000
66.6800 301.0000 1.0000
66.6900 283.0000 1.0000
66.7000 269.0000 1.0000
66.7100 280.0000 1.0000
66.7200 294.0000 1.0000
66.7300 282.0000 1.0000
66.7400 295.0000 1.0000
66.7500 311.0000 1.0000
66.7600 266.0000 1.0000
66.7700 265.0000 1.0000
66.7800 268.0000 1.0000
66.7900 300.0000 1.0000
66.8000 281.0000 1.0000
66.8100 271.0000 1.0000
66.8200 301.0000 1.0000
66.8300 281.0000 1.0000
66.8400 281.0000 1.0000
66.8500 288.0000 1.0000
66.8600 286.0000 1.0000
66.8700 303.0000 1.0000
66.8800 283.0000 1.0000
66.8900 305.0000 1.0000
66.9000 308.0000 1.0000
66.9100 302.0000 1.0000
66.9200 271.0000 1.0000
66.9300 298.0000 1.0000
66.9400 279.0000 1.0000
66.9500 295.0000 1.0000
66.9600 301.0000 1.0000
66.9700 278.0000 1.0000
66.9800 255.0000 1.0000
66.9900 283.0000 1.0000
67.0000 310.0000 1.0000
67.0100 270.0000 1.0000
67.0200 291.0000 1.0000
67.0300 304.0000 1.0000
67.0400 286.0000 1.0000
67.0500 297.0000 1.0000
67.0600 278.0000 1.0000
67.0700 287.0000 1.0000
67.0800 276.0000 1.0000
67.0900 294.0000 1.0000
67.1000 288.0000 1.0000
67.1100 288.0000 1.0000
67.1200 270.0000 1.0000
67.1300 297.0000 1.0000
67.1400 280.0000 1.0000
67.1500 286.0000 1.0000
67.1600 277.0000 1.0000
67.1700 290.0000 1.0000
67.1800 288.0000 1.0000
67.1900 272.0000 1.0000
67.2000 298.0000 1.0000
67.2100 288.0000 1.0000
67.2200 293.0000 1.0000
67.2300 289.0000 1.0000
67.2400 317.0000 1.0000
67.2500 267.0000 1.0000
67.2600 268.0000 1.0000
67.2700 278.0000 1.0000
67.2800 289.0000 1.0000
67.2900 273.0000 1.0000
67.3000 282.0000 1.0000
67.3100 312.0000 1.0000
67.3200 304.0000 1.0000
67.3300 278.0000 1.0000
67.3400 283.0000 1.0000
67.3500 298.0000 1.0000
67.3600 295.0000 1.0000
67.3700 300.0000 1.0000
67.3800 282.0000 1.0000
67.3900 265.0000 1.0000
67.4000 267.0000 1.0000
67.4100 278.0000 1.0000
67.4200 294.0000 1.0000
67.4300 280.0000 1.0000
67.4400 274.0000 1.0000
67.4500 279.0000 1.0000
67.4600 275.0000 1.0000
67.4700 248.0000 1.0000
67.4800 308.0000 1.0000
67.4900 287.0000 1.0000
67.5000 302.0000 1.0000
67.5100 281.0000 1.0000
67.5200 277.0000 1.0000
67.5300 297.0000 1.0000
67.5400 290.0000 1.0000
67.5500 288.0000 1.0000
67.5600 268.0000 1.0000
67.5700 278.0000 1.0000
67.5800 316.0000 1.0000
67.5900 274.0000 1.0000
67.6000 273.0000 1.0000
67.6100 247.0000 1.0000
67.6200 277.0000 1.0000
67.6300 275.0000 1.0000
67.6400 288.0000 1.0000
67.6500 282.0000 1.0000
67.6600 266.0000 1.0000
67.6700 275.0000 1.0000
67.6800 285.0000 1.0000
67.6900 279.0000 1.0000
67.7000 287.0000 1.0000
67.7100 280.0000 1.0000
67.7200 286.0000 1.0000
67.7300 253.0000 1.0000
67.7400 301.0000 1.0000
67.7500 298.0000 1.0000
67.7600 288.0000 1.0000
67.7700 281.0000 1.0000
67.7800 246.0000 1.0000
67.7900 287.0000 1.0000
67.8000 291.0000 1.0000
67.8100 310.0000 1.0000
67.8200 267.0000 1.0000
67.8300 298.0000 1.0000
67.8400 281.0000 1.0000
67.8500 290.0000 1.0000
67.8600 291.0000 1.0000
67.8700 288.0000 1.0000
67.8800 279.0000 1.0000
67.8900 298.0000 1.0000
67.9000 271.0000 1.0000
67.9100 283.0000 1.0000
67.9200 274.0000 1.0000
67.9300 272.0000 1.0000
67.9400 283.0000 1.0000
67.9500 274.0000 1.0000
67.9600 276.0000 1.0000
67.9700 281.0000 1.0000
67.9800 270.0000 1.0000
67.9900 288.0000 1.0000
68.0000 267.0000 1.0000
68.0100 287.0000 1.0000
68.0200 289.0000 1.0000
68.0300 307.0000 1.0000
68.0400 272.0000 1.0000
68.0500 274.0000 1.0000
68.0600 282.0000 1.0000
68.0700 271.0000 1.0000
68.0800 248.0000 1.0000
68.0900 263.0000 1.0000
68.1000 274.0000 1.0000
68.1100 269.0000 1.0000
68.1200 265.0000 1.0000
68.1300 276.0000 1.0000
68.1400 295.0000 1.0000
68.1500 289.0000 1.0000
68.1600 271.0000 1.0000
68.1700 257.0000 1.0000
68.1800 267.0000 1.0000
68.1900 270.0000 1.0000
68.2000 279.0000 1.0000
68.2100 291.0000 1.0000
68.2200 257.0000 1.0000
68.2300 237.0000 1.0000
68.2400 276.0000 1.0000
68.2500 306.0000 1.0000
68.2600 277.0000 1.0000
68.2700 264.0000 1.0000
68.2800 259.0000 1.0000
68.2900 242.0000 1.0000
68.3000 277.0000 1.0000
68.3100 285.0000 1.0000
68.3200 287.0000 1.0000
68.3300 242.0000 1.0000
68.3400 257.0000 1.0000
68.3500 266.0000 1.0000
68.3600 303.0000 1.0000
68.3700 265.0000 1.0000
68.3800 266.0000 1.0000
68.3900 300.0000 1.0000
68.4000 283.0000 1.0000
68.4100 282.0000 1.0000
68.4200 284.0000 1.0000
68.4300 276.0000 1.0000
68.4400 265.0000 1.0000
68.4500 306.0000 1.0000
68.4600 296.0000 1.0000
68.4700 268.0000 1.0000
68.4800 273.0000 1.0000
68.4900 272.0000 1.0000
68.5000 255.0000 1.0000
68.5100 289.0000 1.0000
68.5200 277.0000 1.0000
68.5300 276.0000 1.0000
68.5400 301.0000 1.0000
68.5500 289.0000 1.0000
68.5600 269.0000 1.0000
68.5700 258.0000 1.0000
68.5800 283.0000 1.0000
68.5900 240.0000 1.0000
68.6000 289.0000 1.0000
68.6100 259.0000 1.0000
68.6200 251.0000 1.0000
68.6300 276.0000 1.0000
68.6400 283.0000 1.0000
68.6500 254.0000 1.0000
68.6600 271.0000 1.0000
68.6700 277.0000 1.0000
68.6800 263.0000 1.0000
68.6900 300.0000 1.0000
68.7000 283.0000 1.0000
68.7100 302.0000 1.0000
68.7200 254.0000 1.0000
68.7300 270.0000 1.0000
68.7400 285.0000 1.0000
68.7500 274.0000 1.0000
68.7600 307.0000 1.0000
68.7700 287.0000 1.0000
68.7800 244.0000 1.0000
68.7900 293.0000 1.0000
68.8000 279.0000 1.0000
68.8100 283.0000 1.0000
68.8200 301.0000 1.0000
68.8300 267.0000 1.0000
68.8400 292.0000 1.0000
68.8500 257.0000 1.0000
68.8600 261.0000 1.0000
68.8700 261.0000 1.0000
68.8800 275.0000 1.0000
68.8900 279.0000 1.0000
68.9000 274.0000 1.0000
68.9100 256.0000 1.0000
68.9200 287.0000 1.0000
68.9300 261.0000 1.0000
68.9400 268.0000 1.0000
68.9500 270.0000 1.0000
68.9600 271.0000 1.0000
68.9700 262.0000 1.0000
68.9800 287.0000 1.0000
68.9900 286.0000 1.0000
69.0000 279.0000 1.0000
69.0100 266.0000 1.0000
69.0200 252.0000 1.0000
69.0300 251.0000 1.0000
69.0400 270.0000 1.0000
69.0500 255.0000 1.0000
69.0600 269.0000 1.0000
69.0700 265.0000 1.0000
69.0800 266.0000 1.0000
69.0900 303.0000 1.0000
69.1000 289.0000 1.0000
69.1100 303.0000 1.0000
69.1200 283.0000 1.0000
69.1300 274.0000 1.0000
69.1400 266.0000 1.0000
69.1500 281.0000 1.0000
69.1600 271.0000 1.0000
69.1700 262.0000 1.0000
69.1800 245.0000 1.0000
69.1900 258.0000 1.0000
69.2000 233.0000 1.0000
69.2100 261.0000 1.0000
69.2200 261.0000 1.0000
69.2300 258.0000 1.0000
69.2400 257.0000 1.0000
69.2500 263.0000 1.0000
69.2600 278.0000 1.0000
69.2700 272.0000 1.0000
69.2800 263.0000 1.0000
69.2900 265.0000 1.0000
69.3000 294.0000 1.0000
69.3100 231.0000 1.0000
69.3200 257.0000 1.0000
69.3300 265.0000 1.0000
69.3400 263.0000 1.0000
69.3500 259.0000 1.0000
69.3600 265.0000 1.0000
69.3700 293.0000 1.0000
69.3800 277.0000 1.0000
69.3900 272.0000 1.0000
69.4000 255.0000 1.0000
69.4100 247.0000 1.0000
69.4200 256.0000 1.0000
69.4300 265.0000 1.0000
69.4400 250.0000 1.0000
69.4500 282.0000 1.0000
69.4600 263.0000 1.0000
69.4700 276.0000 1.0000
69.4800 278.0000 1.0000
69.4900 274.0000 1.0000
69.5000 277.0000 1.0000
69.5100 255.0000 1.0000
69.5200 286.0000 1.0000
69.5300 272.0000 1.0000
69.5400 258.0000 1.0000
69.5500 273.0000 1.0000
69.5600 295.0000 1.0000
69.5700 278.0000 1.0000
69.5800 269.0000 1.0000
69.5900 282.0000 1.0000
69.6000 284.0000 1.0000
69.6100 255.0000 1.0000
69.6200 294.0000 1.0000
69.6300 265.0000 1.0000
69.6400 257.0000 1.0000
69.6500 265.0000 1.0000
69.6600 295.0000 1.0000
69.6700 264.0000 1.0000
69.6800 288.0000 1.0000
69.6900 282.0000 1.0000
69.7000 283.0000 1.0000
69.7100 272.0000 1.0000
69.7200 254.0000 1.0000
69.7300 265.0000 1.0000
69.7400 257.0000 1.0000
69.7500 243.0000 1.0000
69.7600 284.0000 1.0000
69.7700 258.0000 1.0000
69.7800 253.0000 1.0000
69.7900 269.0000 1.0000
69.8000 248.0000 1.0000
69.8100 266.0000 1.0000
69.8200 267.0000 1.0000
69.8300 235.0000 1.0000
69.8400 253.0000 1.0000
69.8500 281.0000 1.0000
69.8600 244.0000 1.0000
69.8700 270.0000 1.0000
69.8800 266.0000 1.0000
69.8900 252.0000 1.0000
69.9000 270.0000 1.0000
69.9100 278.0000 1.0000
69.9200 261.0000 1.0000
69.9300 269.0000 1.0000
69.9400 290.0000 1.0000
69.9500 250.0000 1.0000
69.9600 244.0000 1.0000
69.9700 267.0000 1.0000
69.9800 261.0000 1.0000
69.9900 265.0000 1.0000
70.0000 247.0000 1.0000
*RAS_INT_END
*RAS_TEMPERATURE_START
*RAS_TEMPERATURE_END
*RAS_DATA_END
