*RAS_DATA_START
*RAS_HEADER_START
*DISP_FMT_X "%.2f"
*DISP_FMT_Y "%.0f"
*DISP_FULLSCALE "13470.0000000000"
*DISP_LINE_COLOR "255.0000000000"
*DISP_LINE_STYLE "0.0000000000"
*DISP_LINE_WIDTH "0.2500000000"
*DISP_NOTE "測定データ-3"
*DISP_OFFSET_Y "0.0000000000"
*DISP_PEAKSEARCH_UNIT_Y "cps"
*DISP_RANGE_BOTTOM "0.0000000000"
*DISP_RANGE_LEFT "20.0000000000"
*DISP_RANGE_LOGCUTOFF "0.0100000000"
*DISP_RANGE_RIGHT "70.0000000000"
*DISP_RANGE_TOP "13470.0000000000"
*DISP_SCALE_MODE_Y "0.0000000000"
*DISP_TAB_NAME "2θ/θ"
*DISP_TITLE_Y "強度"
*DISP_UNIT_Y "cps"
*DISP_WINDOW_NAME "MSG_MACROENGINE"
*FILE_COMMENT " "
*FILE_MD5 ""
*FILE_MEMO " "
*FILE_OPERATOR "Administrator"
*FILE_SAMPLE " "
*FILE_TYPE "RAS_RAW"
*FILE_USERGROUP "システムマネージャ"
*FILE_VERSION "1.0000000000"
*HW_ATTACHMENT_ID "ATT0025"
*HW_ATTACHMENT_NAME "標準|Standard"
*HW_COUNTER_ID-0 "CUT0025"
*HW_COUNTER_ID-1 "CUT0020"
*HW_COUNTER_ID-2 "CUT0020"
*HW_COUNTER_ID-3 "CSL0021"
*HW_COUNTER_ID-4 "CMC0021"
*HW_COUNTER_NAME-0 "D/teX Ultra|D/teX Ultra"
*HW_COUNTER_NAME-1 "None|None"
*HW_COUNTER_NAME-2 "None|None"
*HW_COUNTER_NAME-3 "BBM|BBM"
*HW_COUNTER_NAME-4 "検出器モノクロメータ|Detector monochromator"
*HW_COUNTER_SELECT_NAME "D/teX Ultra|D/teX Ultra"
*HW_GONIOMETER_ID "GON0023"
*HW_GONIOMETER_NAME "SmartLab|SmartLab"
*HW_GONIOMETER_RADIUS-0 "90.0"
*HW_GONIOMETER_RADIUS-1 "114.0"
*HW_GONIOMETER_RADIUS-2 "190.0"
*HW_GONIOMETER_RADIUS-3 "300.0"
*HW_GONIOMETER_RADIUS-4 "187.0"
*HW_GONIOMETER_RADIUS-5 "300.0"
*HW_GONIOMETER_RADIUS-6 "113.0"
*HW_GONIOMETER_RADIUS-7 "331.0"
*HW_I_OPT_ID-0 "CBO0021"
*HW_I_OPT_ID-1 "ICR0023"
*HW_I_OPT_ID-2 "ISL0021"
*HW_I_OPT_ID-3 "ISO0021"
*HW_I_OPT_ID-4 "IAD0021"
*HW_I_OPT_ID-5 "IPR0001"
*HW_I_OPT_NAME-0 "CBOユニット|CBO unit"
*HW_I_OPT_NAME-1 "標準入射光学ユニット|Standard incident optical unit"
*HW_I_OPT_NAME-2 "標準入射スリットボックス|Standard incident slit box"
*HW_I_OPT_NAME-3 "入射平行スリット|Incident parallel slit"
*HW_I_OPT_NAME-4 "長手制限スリット|Length limiting slit"
*HW_I_OPT_NAME-5 "None|None"
*HW_R_ATTENUATER_AUTOMODE "0"
*HW_R_OPT_ID-0 "RSS0021"
*HW_R_OPT_ID-1 "RCR0023"
*HW_R_OPT_ID-2 "RSO0021"
*HW_R_OPT_ID-3 "RRS0021"
*HW_R_OPT_ID-4 "ATN0021"
*HW_R_OPT_ID-5 "RFL0021"
*HW_R_OPT_ID-6 "RAD0021"
*HW_R_OPT_NAME-0 "標準受光スリットボックス1|Standard receiving slit box # 1"
*HW_R_OPT_NAME-1 "標準受光光学ユニット1|Standard receiving unit # 1"
*HW_R_OPT_NAME-2 "標準受光光学ユニット2|Standard receiving optical unit # 2"
*HW_R_OPT_NAME-3 "標準受光スリットボックス2|Standard receiving slit box # 2"
*HW_R_OPT_NAME-4 "標準アッテネータ|Standard Attenuator"
*HW_R_OPT_NAME-5 "Cu Kβ|Cu K-beta"
*HW_R_OPT_NAME-6 "調整用受光スリット|Alignment receiving slit"
*HW_SAMPLE_HOLDER_ID "SMP0023"
*HW_SAMPLE_HOLDER_NAME "標準Zステージ|Standard Z stage"
*HW_XG_CURRENT_MAX "50"
*HW_XG_CURRENT_MIN "2"
*HW_XG_CURRENT_RESOLUTION "1"
*HW_XG_CURRENT_UNIT "mA"
*HW_XG_FOCUS "1mm x 10mm"
*HW_XG_FOCUS_TYPE "Normal"
*HW_XG_ID ""
*HW_XG_NAME "3kW 封入管(ID:1200)|3kW Sealed tube(ID:1200)"
*HW_XG_TARGET_ATOMIC_NUMBER "29.0000000000"
*HW_XG_TARGET_NAME "Cu"
*HW_XG_TYPE "Hermetic"
*HW_XG_VOLTAGE_MAX "60"
*HW_XG_VOLTAGE_MIN "20"
*HW_XG_VOLTAGE_RESOLUTION "1"
*HW_XG_VOLTAGE_UNIT "kV"
*HW_XG_WATT_MAX "1.500"
*HW_XG_WATT_UNIT "kW"
*HW_XG_WAVE_LENGTH_ALPHA1 "1.540593"
*HW_XG_WAVE_LENGTH_ALPHA2 "1.544414"
*HW_XG_WAVE_LENGTH_BETA "1.392250"
*MEAS_COND_AXIS_NAME-0 "2θ/θ"
*MEAS_COND_AXIS_NAME-1 "2θ"
*MEAS_COND_AXIS_NAME-2 "ω"
*MEAS_COND_AXIS_NAME-3 "Z"
*MEAS_COND_AXIS_NAME-4 "2θ/ω"
*MEAS_COND_AXIS_NAME-5 "θs"
*MEAS_COND_AXIS_NAME-6 "θd"
*MEAS_COND_AXIS_NAME-7 "Ts"
*MEAS_COND_AXIS_NAME-8 "CBO選択スリット"
*MEAS_COND_AXIS_NAME-9 "M"
*MEAS_COND_AXIS_NAME-10 "入射平行スリット"
*MEAS_COND_AXIS_NAME-11 "入射スリット"
*MEAS_COND_AXIS_NAME-12 ""
*MEAS_COND_AXIS_NAME-13 "Zs"
*MEAS_COND_AXIS_NAME-14 "入射光学素子"
*MEAS_COND_AXIS_NAME-15 "長手制限スリット"
*MEAS_COND_AXIS_NAME-16 "センタースリット"
*MEAS_COND_AXIS_NAME-17 "フィルター"
*MEAS_COND_AXIS_NAME-18 "受光スリット1"
*MEAS_COND_AXIS_NAME-19 "受光スリット2"
*MEAS_COND_AXIS_NAME-20 "受光光学素子"
*MEAS_COND_AXIS_NAME-21 "受光平行スリット"
*MEAS_COND_AXIS_NAME-22 "調整用受光スリット"
*MEAS_COND_AXIS_NAME-23 ""
*MEAS_COND_AXIS_NAME-24 ""
*MEAS_COND_AXIS_NAME-25 "Zd"
*MEAS_COND_AXIS_NAME-26 "アッテネータ"
*MEAS_COND_AXIS_NAME-27 "検出器モノクロメータ"
*MEAS_COND_AXIS_NAME-28 "モノクロメータスリット"
*MEAS_COND_AXIS_NAME-29 "プライマリビーム"
*MEAS_COND_AXIS_NAME-30 "PHA"
*MEAS_COND_AXIS_NAME_INTERNAL-0 "TwoThetaTheta"
*MEAS_COND_AXIS_NAME_INTERNAL-1 "TwoTheta"
*MEAS_COND_AXIS_NAME_INTERNAL-2 "Omega"
*MEAS_COND_AXIS_NAME_INTERNAL-3 "Z"
*MEAS_COND_AXIS_NAME_INTERNAL-4 "TwoThetaOmega"
*MEAS_COND_AXIS_NAME_INTERNAL-5 "ThetaS"
*MEAS_COND_AXIS_NAME_INTERNAL-6 "ThetaD"
*MEAS_COND_AXIS_NAME_INTERNAL-7 "Ts"
*MEAS_COND_AXIS_NAME_INTERNAL-8 "CBO"
*MEAS_COND_AXIS_NAME_INTERNAL-9 "CBO-M"
*MEAS_COND_AXIS_NAME_INTERNAL-10 "IncidentSollerSlit"
*MEAS_COND_AXIS_NAME_INTERNAL-11 "IncidentSlitBox"
*MEAS_COND_AXIS_NAME_INTERNAL-12 "IncidentSlitBox-_Axis"
*MEAS_COND_AXIS_NAME_INTERNAL-13 "Zs"
*MEAS_COND_AXIS_NAME_INTERNAL-14 "IncidentMonochromator"
*MEAS_COND_AXIS_NAME_INTERNAL-15 "IncidentAxdSlit"
*MEAS_COND_AXIS_NAME_INTERNAL-16 "CenterSlit"
*MEAS_COND_AXIS_NAME_INTERNAL-17 "Filter"
*MEAS_COND_AXIS_NAME_INTERNAL-18 "ReceivingSlitBox1"
*MEAS_COND_AXIS_NAME_INTERNAL-19 "ReceivingSlitBox2"
*MEAS_COND_AXIS_NAME_INTERNAL-20 "ReceivingOptics"
*MEAS_COND_AXIS_NAME_INTERNAL-21 "ReceivingSollerSlit"
*MEAS_COND_AXIS_NAME_INTERNAL-22 "ReceivingAxdSlit"
*MEAS_COND_AXIS_NAME_INTERNAL-23 "ReceivingSlitBox1-_Axis"
*MEAS_COND_AXIS_NAME_INTERNAL-24 "ReceivingSlitBox2-_Axis"
*MEAS_COND_AXIS_NAME_INTERNAL-25 "ReceivingSlitBox2-Zd"
*MEAS_COND_AXIS_NAME_INTERNAL-26 "Attenuator"
*MEAS_COND_AXIS_NAME_INTERNAL-27 "CounterMonochromator"
*MEAS_COND_AXIS_NAME_INTERNAL-28 "CounterSlit"
*MEAS_COND_AXIS_NAME_INTERNAL-29 "IncidentPrimary"
*MEAS_COND_AXIS_NAME_INTERNAL-30 "PHA"
*MEAS_COND_AXIS_NAME_MAGICNO-0 "83951616.0000000000"
*MEAS_COND_AXIS_NAME_MAGICNO-1 "268632064.0000000000"
*MEAS_COND_AXIS_NAME_MAGICNO-2 "268500992.0000000000"
*MEAS_COND_AXIS_NAME_MAGICNO-3 "285278208.0000000000"
*MEAS_COND_AXIS_NAME_MAGICNO-4 "83951616.0000000000"
*MEAS_COND_AXIS_NAME_MAGICNO-5 "131072.0000000000"
*MEAS_COND_AXIS_NAME_MAGICNO-6 "131072.0000000000"
*MEAS_COND_AXIS_NAME_MAGICNO-7 "318898176.0000000000"
*MEAS_COND_AXIS_NAME_MAGICNO-8 "20971521.0000000000"
*MEAS_COND_AXIS_NAME_MAGICNO-9 "285343744.0000000000"
*MEAS_COND_AXIS_NAME_MAGICNO-10 "20971521.0000000000"
*MEAS_COND_AXIS_NAME_MAGICNO-11 "22020097.0000000000"
*MEAS_COND_AXIS_NAME_MAGICNO-12 "25165824.0000000000"
*MEAS_COND_AXIS_NAME_MAGICNO-13 "318898176.0000000000"
*MEAS_COND_AXIS_NAME_MAGICNO-14 "1.0000000000"
*MEAS_COND_AXIS_NAME_MAGICNO-15 "20971521.0000000000"
*MEAS_COND_AXIS_NAME_MAGICNO-16 "20971521.0000000000"
*MEAS_COND_AXIS_NAME_MAGICNO-17 "20971521.0000000000"
*MEAS_COND_AXIS_NAME_MAGICNO-18 "23068673.0000000000"
*MEAS_COND_AXIS_NAME_MAGICNO-19 "23068673.0000000000"
*MEAS_COND_AXIS_NAME_MAGICNO-20 "20971521.0000000000"
*MEAS_COND_AXIS_NAME_MAGICNO-21 "20971521.0000000000"
*MEAS_COND_AXIS_NAME_MAGICNO-22 "20971521.0000000000"
*MEAS_COND_AXIS_NAME_MAGICNO-23 "25165824.0000000000"
*MEAS_COND_AXIS_NAME_MAGICNO-24 "25165824.0000000000"
*MEAS_COND_AXIS_NAME_MAGICNO-25 "285343744.0000000000"
*MEAS_COND_AXIS_NAME_MAGICNO-26 "17301505.0000000000"
*MEAS_COND_AXIS_NAME_MAGICNO-27 "20971521.0000000000"
*MEAS_COND_AXIS_NAME_MAGICNO-28 "20971521.0000000000"
*MEAS_COND_AXIS_NAME_MAGICNO-29 "20971521.0000000000"
*MEAS_COND_AXIS_NAME_MAGICNO-30 "0.0000000000"
*MEAS_COND_AXIS_OFFSET-0 "-"
*MEAS_COND_AXIS_OFFSET-1 "-0.1081000000"
*MEAS_COND_AXIS_OFFSET-2 "0.3758000000"
*MEAS_COND_AXIS_OFFSET-3 "-"
*MEAS_COND_AXIS_OFFSET-4 "-"
*MEAS_COND_AXIS_OFFSET-5 "0.3758000000"
*MEAS_COND_AXIS_OFFSET-6 "-0.4839000000"
*MEAS_COND_AXIS_OFFSET-7 "-"
*MEAS_COND_AXIS_OFFSET-8 "-"
*MEAS_COND_AXIS_OFFSET-9 "-"
*MEAS_COND_AXIS_OFFSET-10 "-"
*MEAS_COND_AXIS_OFFSET-11 "-"
*MEAS_COND_AXIS_OFFSET-12 "-"
*MEAS_COND_AXIS_OFFSET-13 "-"
*MEAS_COND_AXIS_OFFSET-14 "-"
*MEAS_COND_AXIS_OFFSET-15 "-"
*MEAS_COND_AXIS_OFFSET-16 "-"
*MEAS_COND_AXIS_OFFSET-17 "-"
*MEAS_COND_AXIS_OFFSET-18 "-"
*MEAS_COND_AXIS_OFFSET-19 "-"
*MEAS_COND_AXIS_OFFSET-20 "-"
*MEAS_COND_AXIS_OFFSET-21 "-"
*MEAS_COND_AXIS_OFFSET-22 "-"
*MEAS_COND_AXIS_OFFSET-23 "-"
*MEAS_COND_AXIS_OFFSET-24 "-"
*MEAS_COND_AXIS_OFFSET-25 "-"
*MEAS_COND_AXIS_OFFSET-26 "-"
*MEAS_COND_AXIS_OFFSET-27 "-"
*MEAS_COND_AXIS_OFFSET-28 "-"
*MEAS_COND_AXIS_OFFSET-29 "-"
*MEAS_COND_AXIS_OFFSET-30 "-"
*MEAS_COND_AXIS_POSITION-0 "0.0000000000"
*MEAS_COND_AXIS_POSITION-1 "0.0000000000"
*MEAS_COND_AXIS_POSITION-2 "0.0000000000"
*MEAS_COND_AXIS_POSITION-3 "-0.5500000000"
*MEAS_COND_AXIS_POSITION-4 "0.0000000000"
*MEAS_COND_AXIS_POSITION-5 "0.0000000000"
*MEAS_COND_AXIS_POSITION-6 "0.0000000000"
*MEAS_COND_AXIS_POSITION-7 "-0.4278800000"
*MEAS_COND_AXIS_POSITION-8 "BB"
*MEAS_COND_AXIS_POSITION-9 "0.0000000000"
*MEAS_COND_AXIS_POSITION-10 "Soller_slit_5.0deg"
*MEAS_COND_AXIS_POSITION-11 "2/3deg"
*MEAS_COND_AXIS_POSITION-12 "2.2088000000"
*MEAS_COND_AXIS_POSITION-13 "-0.4140600000"
*MEAS_COND_AXIS_POSITION-14 "0.0000000000"
*MEAS_COND_AXIS_POSITION-15 "10.0mm"
*MEAS_COND_AXIS_POSITION-16 "None"
*MEAS_COND_AXIS_POSITION-17 "Cu_K-beta"
*MEAS_COND_AXIS_POSITION-18 "13.000mm"
*MEAS_COND_AXIS_POSITION-19 "13.000mm"
*MEAS_COND_AXIS_POSITION-20 "No_unit"
*MEAS_COND_AXIS_POSITION-21 "Soller_slit_5.0deg"
*MEAS_COND_AXIS_POSITION-22 "None"
*MEAS_COND_AXIS_POSITION-23 "13.0000000000"
*MEAS_COND_AXIS_POSITION-24 "13.0000000000"
*MEAS_COND_AXIS_POSITION-25 "0.0109400000"
*MEAS_COND_AXIS_POSITION-26 "Open"
*MEAS_COND_AXIS_POSITION-27 "None"
*MEAS_COND_AXIS_POSITION-28 "None"
*MEAS_COND_AXIS_POSITION-29 "None"
*MEAS_COND_AXIS_POSITION-30 "38.0000000000"
*MEAS_COND_AXIS_UNIT-0 "deg"
*MEAS_COND_AXIS_UNIT-1 "deg"
*MEAS_COND_AXIS_UNIT-2 "deg"
*MEAS_COND_AXIS_UNIT-3 "mm"
*MEAS_COND_AXIS_UNIT-4 "deg"
*MEAS_COND_AXIS_UNIT-5 "deg"
*MEAS_COND_AXIS_UNIT-6 "deg"
*MEAS_COND_AXIS_UNIT-7 "mm"
*MEAS_COND_AXIS_UNIT-8 ""
*MEAS_COND_AXIS_UNIT-9 "pulse"
*MEAS_COND_AXIS_UNIT-10 ""
*MEAS_COND_AXIS_UNIT-11 ""
*MEAS_COND_AXIS_UNIT-12 "mm"
*MEAS_COND_AXIS_UNIT-13 "mm"
*MEAS_COND_AXIS_UNIT-14 ""
*MEAS_COND_AXIS_UNIT-15 ""
*MEAS_COND_AXIS_UNIT-16 ""
*MEAS_COND_AXIS_UNIT-17 ""
*MEAS_COND_AXIS_UNIT-18 ""
*MEAS_COND_AXIS_UNIT-19 ""
*MEAS_COND_AXIS_UNIT-20 ""
*MEAS_COND_AXIS_UNIT-21 ""
*MEAS_COND_AXIS_UNIT-22 ""
*MEAS_COND_AXIS_UNIT-23 "mm"
*MEAS_COND_AXIS_UNIT-24 "mm"
*MEAS_COND_AXIS_UNIT-25 "mm"
*MEAS_COND_AXIS_UNIT-26 ""
*MEAS_COND_AXIS_UNIT-27 ""
*MEAS_COND_AXIS_UNIT-28 ""
*MEAS_COND_AXIS_UNIT-29 ""
*MEAS_COND_AXIS_UNIT-30 "div"
*MEAS_COND_COUNTER_CNTLOSS_CORR "0.0000000000"
*MEAS_COND_COUNTER_PHABASE "38.0000000000"
*MEAS_COND_COUNTER_PHAWINDOW "16.0000000000"
*MEAS_COND_COUNTER_PHA_UNIT "div"
*MEAS_COND_COUNTER_TAUDIFF "30.0000000000"
*MEAS_COND_COUNTER_TAUINT "0.0000000000"
*MEAS_COND_IRRADIATION_MODE "OFF"
*MEAS_COND_IRRADIATION_WIDTH ""
*MEAS_COND_OPT_ATTR "集中法"
*MEAS_COND_OPT_NAME "@集中法"
*MEAS_COND_UNSYMMETRIC_MODE "OFF"
*MEAS_COND_XG_CURRENT "30.0000000000"
*MEAS_COND_XG_VOLTAGE "40.0000000000"
*MEAS_COND_XG_WAVE_TYPE "Ka"
*MEAS_DATA_COUNT "5001.0000000000"
*MEAS_SCAN_AXIS_X "2θ/θ"
*MEAS_SCAN_AXIS_X_INTERNAL "TwoThetaTheta"
*MEAS_SCAN_END_TIME "07/29/21 16:01:05"
*MEAS_SCAN_MODE "CONTINUOUS"
*MEAS_SCAN_MONITOR "0"
*MEAS_SCAN_RESOLUTION_X "0.0002"
*MEAS_SCAN_SPEED "2.5"
*MEAS_SCAN_SPEED_UNIT "deg/min"
*MEAS_SCAN_START "20.0000000000"
*MEAS_SCAN_START_TIME "07/29/21 15:39:42"
*MEAS_SCAN_STEP "0.0100000000"
*MEAS_SCAN_STOP "70.0000000000"
*MEAS_SCAN_UNIT_X "deg"
*MEAS_SCAN_UNIT_Y "counts"
*RAS_HEADER_END
*RAS_INT_START
20.0000 677.0000 1.0000
20.0100 666.0000 1.0000
20.0200 608.0000 1.0000
20.0300 671.0000 1.0000
20.0400 666.0000 1.0000
20.0500 694.0000 1.0000
20.0600 666.0000 1.0000
20.0700 666.0000 1.0000
20.0800 642.0000 1.0000
20.0900 686.0000 1.0000
20.1000 624.0000 1.0000
20.1100 599.0000 1.0000
20.1200 664.0000 1.0000
20.1300 672.0000 1.0000
20.1400 634.0000 1.0000
20.1500 653.0000 1.0000
20.1600 643.0000 1.0000
20.1700 618.0000 1.0000
20.1800 648.0000 1.0000
20.1900 657.0000 1.0000
20.2000 642.0000 1.0000
20.2100 680.0000 1.0000
20.2200 642.0000 1.0000
20.2300 669.0000 1.0000
20.2400 628.0000 1.0000
20.2500 648.0000 1.0000
20.2600 634.0000 1.0000
20.2700 623.0000 1.0000
20.2800 627.0000 1.0000
20.2900 605.0000 1.0000
20.3000 622.0000 1.0000
20.3100 615.0000 1.0000
20.3200 652.0000 1.0000
20.3300 646.0000 1.0000
20.3400 626.0000 1.0000
20.3500 630.0000 1.0000
20.3600 626.0000 1.0000
20.3700 632.0000 1.0000
20.3800 616.0000 1.0000
20.3900 670.0000 1.0000
20.4000 635.0000 1.0000
20.4100 675.0000 1.0000
20.4200 638.0000 1.0000
20.4300 618.0000 1.0000
20.4400 604.0000 1.0000
20.4500 617.0000 1.0000
20.4600 602.0000 1.0000
20.4700 629.0000 1.0000
20.4800 642.0000 1.0000
20.4900 658.0000 1.0000
20.5000 641.0000 1.0000
20.5100 613.0000 1.0000
20.5200 599.0000 1.0000
20.5300 621.0000 1.0000
20.5400 629.0000 1.0000
20.5500 646.0000 1.0000
20.5600 627.0000 1.0000
20.5700 645.0000 1.0000
20.5800 656.0000 1.0000
20.5900 671.0000 1.0000
20.6000 635.0000 1.0000
20.6100 653.0000 1.0000
20.6200 633.0000 1.0000
20.6300 642.0000 1.0000
20.6400 643.0000 1.0000
20.6500 665.0000 1.0000
20.6600 632.0000 1.0000
20.6700 600.0000 1.0000
20.6800 648.0000 1.0000
20.6900 632.0000 1.0000
20.7000 626.0000 1.0000
20.7100 660.0000 1.0000
20.7200 595.0000 1.0000
20.7300 632.0000 1.0000
20.7400 665.0000 1.0000
20.7500 604.0000 1.0000
20.7600 644.0000 1.0000
20.7700 641.0000 1.0000
20.7800 662.0000 1.0000
20.7900 644.0000 1.0000
20.8000 673.0000 1.0000
20.8100 645.0000 1.0000
20.8200 641.0000 1.0000
20.8300 605.0000 1.0000
20.8400 666.0000 1.0000
20.8500 650.0000 1.0000
20.8600 625.0000 1.0000
20.8700 678.0000 1.0000
20.8800 646.0000 1.0000
20.8900 643.0000 1.0000
20.9000 658.0000 1.0000
20.9100 617.0000 1.0000
20.9200 659.0000 1.0000
20.9300 645.0000 1.0000
20.9400 620.0000 1.0000
20.9500 648.0000 1.0000
20.9600 618.0000 1.0000
20.9700 667.0000 1.0000
20.9800 622.0000 1.0000
20.9900 654.0000 1.0000
21.0000 626.0000 1.0000
21.0100 637.0000 1.0000
21.0200 601.0000 1.0000
21.0300 687.0000 1.0000
21.0400 666.0000 1.0000
21.0500 659.0000 1.0000
21.0600 655.0000 1.0000
21.0700 637.0000 1.0000
21.0800 638.0000 1.0000
21.0900 599.0000 1.0000
21.1000 652.0000 1.0000
21.1100 697.0000 1.0000
21.1200 660.0000 1.0000
21.1300 649.0000 1.0000
21.1400 625.0000 1.0000
21.1500 630.0000 1.0000
21.1600 682.0000 1.0000
21.1700 661.0000 1.0000
21.1800 649.0000 1.0000
21.1900 656.0000 1.0000
21.2000 639.0000 1.0000
21.2100 660.0000 1.0000
21.2200 683.0000 1.0000
21.2300 678.0000 1.0000
21.2400 698.0000 1.0000
21.2500 646.0000 1.0000
21.2600 648.0000 1.0000
21.2700 691.0000 1.0000
21.2800 663.0000 1.0000
21.2900 645.0000 1.0000
21.3000 647.0000 1.0000
21.3100 603.0000 1.0000
21.3200 639.0000 1.0000
21.3300 658.0000 1.0000
21.3400 644.0000 1.0000
21.3500 635.0000 1.0000
21.3600 658.0000 1.0000
21.3700 649.0000 1.0000
21.3800 635.0000 1.0000
21.3900 644.0000 1.0000
21.4000 642.0000 1.0000
21.4100 622.0000 1.0000
21.4200 676.0000 1.0000
21.4300 657.0000 1.0000
21.4400 633.0000 1.0000
21.4500 662.0000 1.0000
21.4600 628.0000 1.0000
21.4700 652.0000 1.0000
21.4800 645.0000 1.0000
21.4900 621.0000 1.0000
21.5000 690.0000 1.0000
21.5100 619.0000 1.0000
21.5200 648.0000 1.0000
21.5300 646.0000 1.0000
21.5400 619.0000 1.0000
21.5500 620.0000 1.0000
21.5600 676.0000 1.0000
21.5700 672.0000 1.0000
21.5800 642.0000 1.0000
21.5900 668.0000 1.0000
21.6000 641.0000 1.0000
21.6100 641.0000 1.0000
21.6200 694.0000 1.0000
21.6300 671.0000 1.0000
21.6400 635.0000 1.0000
21.6500 653.0000 1.0000
21.6600 629.0000 1.0000
21.6700 628.0000 1.0000
21.6800 653.0000 1.0000
21.6900 662.0000 1.0000
21.7000 633.0000 1.0000
21.7100 703.0000 1.0000
21.7200 668.0000 1.0000
21.7300 620.0000 1.0000
21.7400 620.0000 1.0000
21.7500 630.0000 1.0000
21.7600 678.0000 1.0000
21.7700 685.0000 1.0000
21.7800 666.0000 1.0000
21.7900 652.0000 1.0000
21.8000 647.0000 1.0000
21.8100 675.0000 1.0000
21.8200 628.0000 1.0000
21.8300 679.0000 1.0000
21.8400 682.0000 1.0000
21.8500 632.0000 1.0000
21.8600 644.0000 1.0000
21.8700 656.0000 1.0000
21.8800 622.0000 1.0000
21.8900 675.0000 1.0000
21.9000 677.0000 1.0000
21.9100 651.0000 1.0000
21.9200 644.0000 1.0000
21.9300 638.0000 1.0000
21.9400 660.0000 1.0000
21.9500 660.0000 1.0000
21.9600 663.0000 1.0000
21.9700 652.0000 1.0000
21.9800 667.0000 1.0000
21.9900 609.0000 1.0000
22.0000 612.0000 1.0000
22.0100 658.0000 1.0000
22.0200 627.0000 1.0000
22.0300 628.0000 1.0000
22.0400 634.0000 1.0000
22.0500 667.0000 1.0000
22.0600 644.0000 1.0000
22.0700 612.0000 1.0000
22.0800 652.0000 1.0000
22.0900 657.0000 1.0000
22.1000 630.0000 1.0000
22.1100 613.0000 1.0000
22.1200 618.0000 1.0000
22.1300 656.0000 1.0000
22.1400 634.0000 1.0000
22.1500 637.0000 1.0000
22.1600 646.0000 1.0000
22.1700 668.0000 1.0000
22.1800 663.0000 1.0000
22.1900 644.0000 1.0000
22.2000 624.0000 1.0000
22.2100 664.0000 1.0000
22.2200 654.0000 1.0000
22.2300 644.0000 1.0000
22.2400 630.0000 1.0000
22.2500 658.0000 1.0000
22.2600 684.0000 1.0000
22.2700 651.0000 1.0000
22.2800 683.0000 1.0000
22.2900 655.0000 1.0000
22.3000 667.0000 1.0000
22.3100 670.0000 1.0000
22.3200 694.0000 1.0000
22.3300 656.0000 1.0000
22.3400 645.0000 1.0000
22.3500 666.0000 1.0000
22.3600 641.0000 1.0000
22.3700 659.0000 1.0000
22.3800 653.0000 1.0000
22.3900 656.0000 1.0000
22.4000 698.0000 1.0000
22.4100 678.0000 1.0000
22.4200 715.0000 1.0000
22.4300 687.0000 1.0000
22.4400 616.0000 1.0000
22.4500 672.0000 1.0000
22.4600 694.0000 1.0000
22.4700 666.0000 1.0000
22.4800 611.0000 1.0000
22.4900 668.0000 1.0000
22.5000 651.0000 1.0000
22.5100 665.0000 1.0000
22.5200 656.0000 1.0000
22.5300 650.0000 1.0000
22.5400 652.0000 1.0000
22.5500 664.0000 1.0000
22.5600 676.0000 1.0000
22.5700 691.0000 1.0000
22.5800 663.0000 1.0000
22.5900 693.0000 1.0000
22.6000 673.0000 1.0000
22.6100 686.0000 1.0000
22.6200 659.0000 1.0000
22.6300 631.0000 1.0000
22.6400 662.0000 1.0000
22.6500 638.0000 1.0000
22.6600 661.0000 1.0000
22.6700 651.0000 1.0000
22.6800 672.0000 1.0000
22.6900 685.0000 1.0000
22.7000 698.0000 1.0000
22.7100 634.0000 1.0000
22.7200 634.0000 1.0000
22.7300 662.0000 1.0000
22.7400 681.0000 1.0000
22.7500 637.0000 1.0000
22.7600 677.0000 1.0000
22.7700 656.0000 1.0000
22.7800 667.0000 1.0000
22.7900 676.0000 1.0000
22.8000 688.0000 1.0000
22.8100 673.0000 1.0000
22.8200 669.0000 1.0000
22.8300 653.0000 1.0000
22.8400 687.0000 1.0000
22.8500 644.0000 1.0000
22.8600 657.0000 1.0000
22.8700 620.0000 1.0000
22.8800 642.0000 1.0000
22.8900 654.0000 1.0000
22.9000 658.0000 1.0000
22.9100 666.0000 1.0000
22.9200 658.0000 1.0000
22.9300 659.0000 1.0000
22.9400 620.0000 1.0000
22.9500 668.0000 1.0000
22.9600 632.0000 1.0000
22.9700 667.0000 1.0000
22.9800 671.0000 1.0000
22.9900 682.0000 1.0000
23.0000 656.0000 1.0000
23.0100 663.0000 1.0000
23.0200 677.0000 1.0000
23.0300 656.0000 1.0000
23.0400 631.0000 1.0000
23.0500 678.0000 1.0000
23.0600 698.0000 1.0000
23.0700 682.0000 1.0000
23.0800 703.0000 1.0000
23.0900 667.0000 1.0000
23.1000 636.0000 1.0000
23.1100 662.0000 1.0000
23.1200 657.0000 1.0000
23.1300 701.0000 1.0000
23.1400 645.0000 1.0000
23.1500 635.0000 1.0000
23.1600 647.0000 1.0000
23.1700 690.0000 1.0000
23.1800 700.0000 1.0000
23.1900 654.0000 1.0000
23.2000 633.0000 1.0000
23.2100 634.0000 1.0000
23.2200 652.0000 1.0000
23.2300 693.0000 1.0000
23.2400 682.0000 1.0000
23.2500 689.0000 1.0000
23.2600 671.0000 1.0000
23.2700 649.0000 1.0000
23.2800 674.0000 1.0000
23.2900 649.0000 1.0000
23.3000 653.0000 1.0000
23.3100 696.0000 1.0000
23.3200 678.0000 1.0000
23.3300 641.0000 1.0000
23.3400 669.0000 1.0000
23.3500 704.0000 1.0000
23.3600 704.0000 1.0000
23.3700 678.0000 1.0000
23.3800 684.0000 1.0000
23.3900 693.0000 1.0000
23.4000 653.0000 1.0000
23.4100 653.0000 1.0000
23.4200 696.0000 1.0000
23.4300 682.0000 1.0000
23.4400 656.0000 1.0000
23.4500 683.0000 1.0000
23.4600 697.0000 1.0000
23.4700 669.0000 1.0000
23.4800 705.0000 1.0000
23.4900 682.0000 1.0000
23.5000 684.0000 1.0000
23.5100 676.0000 1.0000
23.5200 681.0000 1.0000
23.5300 674.0000 1.0000
23.5400 718.0000 1.0000
23.5500 680.0000 1.0000
23.5600 686.0000 1.0000
23.5700 641.0000 1.0000
23.5800 640.0000 1.0000
23.5900 650.0000 1.0000
23.6000 694.0000 1.0000
23.6100 669.0000 1.0000
23.6200 649.0000 1.0000
23.6300 659.0000 1.0000
23.6400 696.0000 1.0000
23.6500 687.0000 1.0000
23.6600 714.0000 1.0000
23.6700 677.0000 1.0000
23.6800 684.0000 1.0000
23.6900 711.0000 1.0000
23.7000 662.0000 1.0000
23.7100 654.0000 1.0000
23.7200 666.0000 1.0000
23.7300 697.0000 1.0000
23.7400 711.0000 1.0000
23.7500 665.0000 1.0000
23.7600 649.0000 1.0000
23.7700 671.0000 1.0000
23.7800 652.0000 1.0000
23.7900 671.0000 1.0000
23.8000 683.0000 1.0000
23.8100 701.0000 1.0000
23.8200 713.0000 1.0000
23.8300 720.0000 1.0000
23.8400 699.0000 1.0000
23.8500 658.0000 1.0000
23.8600 699.0000 1.0000
23.8700 712.0000 1.0000
23.8800 705.0000 1.0000
23.8900 664.0000 1.0000
23.9000 701.0000 1.0000
23.9100 737.0000 1.0000
23.9200 677.0000 1.0000
23.9300 658.0000 1.0000
23.9400 684.0000 1.0000
23.9500 668.0000 1.0000
23.9600 627.0000 1.0000
23.9700 684.0000 1.0000
23.9800 650.0000 1.0000
23.9900 688.0000 1.0000
24.0000 690.0000 1.0000
24.0100 684.0000 1.0000
24.0200 684.0000 1.0000
24.0300 659.0000 1.0000
24.0400 626.0000 1.0000
24.0500 668.0000 1.0000
24.0600 674.0000 1.0000
24.0700 655.0000 1.0000
24.0800 628.0000 1.0000
24.0900 639.0000 1.0000
24.1000 631.0000 1.0000
24.1100 623.0000 1.0000
24.1200 665.0000 1.0000
24.1300 635.0000 1.0000
24.1400 648.0000 1.0000
24.1500 671.0000 1.0000
24.1600 659.0000 1.0000
24.1700 654.0000 1.0000
24.1800 671.0000 1.0000
24.1900 691.0000 1.0000
24.2000 664.0000 1.0000
24.2100 652.0000 1.0000
24.2200 675.0000 1.0000
24.2300 664.0000 1.0000
24.2400 677.0000 1.0000
24.2500 708.0000 1.0000
24.2600 689.0000 1.0000
24.2700 678.0000 1.0000
24.2800 698.0000 1.0000
24.2900 687.0000 1.0000
24.3000 643.0000 1.0000
24.3100 668.0000 1.0000
24.3200 666.0000 1.0000
24.3300 686.0000 1.0000
24.3400 695.0000 1.0000
24.3500 694.0000 1.0000
24.3600 681.0000 1.0000
24.3700 695.0000 1.0000
24.3800 650.0000 1.0000
24.3900 721.0000 1.0000
24.4000 686.0000 1.0000
24.4100 681.0000 1.0000
24.4200 666.0000 1.0000
24.4300 638.0000 1.0000
24.4400 663.0000 1.0000
24.4500 689.0000 1.0000
24.4600 674.0000 1.0000
24.4700 729.0000 1.0000
24.4800 675.0000 1.0000
24.4900 712.0000 1.0000
24.5000 676.0000 1.0000
24.5100 666.0000 1.0000
24.5200 696.0000 1.0000
24.5300 699.0000 1.0000
24.5400 697.0000 1.0000
24.5500 708.0000 1.0000
24.5600 703.0000 1.0000
24.5700 669.0000 1.0000
24.5800 679.0000 1.0000
24.5900 662.0000 1.0000
24.6000 660.0000 1.0000
24.6100 703.0000 1.0000
24.6200 669.0000 1.0000
24.6300 701.0000 1.0000
24.6400 683.0000 1.0000
24.6500 694.0000 1.0000
24.6600 667.0000 1.0000
24.6700 651.0000 1.0000
24.6800 705.0000 1.0000
24.6900 674.0000 1.0000
24.7000 684.0000 1.0000
24.7100 687.0000 1.0000
24.7200 713.0000 1.0000
24.7300 735.0000 1.0000
24.7400 687.0000 1.0000
24.7500 723.0000 1.0000
24.7600 703.0000 1.0000
24.7700 696.0000 1.0000
24.7800 662.0000 1.0000
24.7900 705.0000 1.0000
24.8000 684.0000 1.0000
24.8100 689.0000 1.0000
24.8200 640.0000 1.0000
24.8300 725.0000 1.0000
24.8400 688.0000 1.0000
24.8500 709.0000 1.0000
24.8600 751.0000 1.0000
24.8700 754.0000 1.0000
24.8800 705.0000 1.0000
24.8900 730.0000 1.0000
24.9000 744.0000 1.0000
24.9100 746.0000 1.0000
24.9200 663.0000 1.0000
24.9300 688.0000 1.0000
24.9400 693.0000 1.0000
24.9500 704.0000 1.0000
24.9600 681.0000 1.0000
24.9700 745.0000 1.0000
24.9800 709.0000 1.0000
24.9900 691.0000 1.0000
25.0000 702.0000 1.0000
25.0100 683.0000 1.0000
25.0200 707.0000 1.0000
25.0300 702.0000 1.0000
25.0400 687.0000 1.0000
25.0500 693.0000 1.0000
25.0600 686.0000 1.0000
25.0700 722.0000 1.0000
25.0800 693.0000 1.0000
25.0900 690.0000 1.0000
25.1000 690.0000 1.0000
25.1100 686.0000 1.0000
25.1200 718.0000 1.0000
25.1300 686.0000 1.0000
25.1400 714.0000 1.0000
25.1500 740.0000 1.0000
25.1600 715.0000 1.0000
25.1700 684.0000 1.0000
25.1800 696.0000 1.0000
25.1900 726.0000 1.0000
25.2000 694.0000 1.0000
25.2100 690.0000 1.0000
25.2200 662.0000 1.0000
25.2300 689.0000 1.0000
25.2400 728.0000 1.0000
25.2500 699.0000 1.0000
25.2600 718.0000 1.0000
25.2700 693.0000 1.0000
25.2800 724.0000 1.0000
25.2900 704.0000 1.0000
25.3000 704.0000 1.0000
25.3100 709.0000 1.0000
25.3200 735.0000 1.0000
25.3300 718.0000 1.0000
25.3400 679.0000 1.0000
25.3500 711.0000 1.0000
25.3600 695.0000 1.0000
25.3700 701.0000 1.0000
25.3800 754.0000 1.0000
25.3900 712.0000 1.0000
25.4000 726.0000 1.0000
25.4100 738.0000 1.0000
25.4200 737.0000 1.0000
25.4300 709.0000 1.0000
25.4400 729.0000 1.0000
25.4500 712.0000 1.0000
25.4600 698.0000 1.0000
25.4700 670.0000 1.0000
25.4800 728.0000 1.0000
25.4900 696.0000 1.0000
25.5000 673.0000 1.0000
25.5100 687.0000 1.0000
25.5200 666.0000 1.0000
25.5300 683.0000 1.0000
25.5400 710.0000 1.0000
25.5500 720.0000 1.0000
25.5600 687.0000 1.0000
25.5700 664.0000 1.0000
25.5800 695.0000 1.0000
25.5900 676.0000 1.0000
25.6000 645.0000 1.0000
25.6100 719.0000 1.0000
25.6200 720.0000 1.0000
25.6300 683.0000 1.0000
25.6400 671.0000 1.0000
25.6500 700.0000 1.0000
25.6600 707.0000 1.0000
25.6700 714.0000 1.0000
25.6800 693.0000 1.0000
25.6900 692.0000 1.0000
25.7000 705.0000 1.0000
25.7100 680.0000 1.0000
25.7200 687.0000 1.0000
25.7300 693.0000 1.0000
25.7400 710.0000 1.0000
25.7500 707.0000 1.0000
25.7600 715.0000 1.0000
25.7700 743.0000 1.0000
25.7800 715.0000 1.0000
25.7900 712.0000 1.0000
25.8000 702.0000 1.0000
25.8100 725.0000 1.0000
25.8200 718.0000 1.0000
25.8300 683.0000 1.0000
25.8400 689.0000 1.0000
25.8500 697.0000 1.0000
25.8600 713.0000 1.0000
25.8700 694.0000 1.0000
25.8800 675.0000 1.0000
25.8900 657.0000 1.0000
25.9000 675.0000 1.0000
25.9100 741.0000 1.0000
25.9200 646.0000 1.0000
25.9300 714.0000 1.0000
25.9400 693.0000 1.0000
25.9500 704.0000 1.0000
25.9600 695.0000 1.0000
25.9700 703.0000 1.0000
25.9800 686.0000 1.0000
25.9900 731.0000 1.0000
26.0000 719.0000 1.0000
26.0100 738.0000 1.0000
26.0200 699.0000 1.0000
26.0300 688.0000 1.0000
26.0400 707.0000 1.0000
26.0500 700.0000 1.0000
26.0600 723.0000 1.0000
26.0700 704.0000 1.0000
26.0800 719.0000 1.0000
26.0900 689.0000 1.0000
26.1000 700.0000 1.0000
26.1100 688.0000 1.0000
26.1200 660.0000 1.0000
26.1300 715.0000 1.0000
26.1400 653.0000 1.0000
26.1500 706.0000 1.0000
26.1600 670.0000 1.0000
26.1700 683.0000 1.0000
26.1800 720.0000 1.0000
26.1900 732.0000 1.0000
26.2000 694.0000 1.0000
26.2100 706.0000 1.0000
26.2200 749.0000 1.0000
26.2300 665.0000 1.0000
26.2400 683.0000 1.0000
26.2500 675.0000 1.0000
26.2600 704.0000 1.0000
26.2700 663.0000 1.0000
26.2800 702.0000 1.0000
26.2900 715.0000 1.0000
26.3000 691.0000 1.0000
26.3100 668.0000 1.0000
26.3200 706.0000 1.0000
26.3300 724.0000 1.0000
26.3400 711.0000 1.0000
26.3500 678.0000 1.0000
26.3600 665.0000 1.0000
26.3700 718.0000 1.0000
26.3800 700.0000 1.0000
26.3900 692.0000 1.0000
26.4000 691.0000 1.0000
26.4100 679.0000 1.0000
26.4200 713.0000 1.0000
26.4300 724.0000 1.0000
26.4400 679.0000 1.0000
26.4500 755.0000 1.0000
26.4600 687.0000 1.0000
26.4700 697.0000 1.0000
26.4800 688.0000 1.0000
26.4900 778.0000 1.0000
26.5000 701.0000 1.0000
26.5100 695.0000 1.0000
26.5200 736.0000 1.0000
26.5300 686.0000 1.0000
26.5400 682.0000 1.0000
26.5500 653.0000 1.0000
26.5600 738.0000 1.0000
26.5700 728.0000 1.0000
26.5800 708.0000 1.0000
26.5900 718.0000 1.0000
26.6000 730.0000 1.0000
26.6100 746.0000 1.0000
26.6200 770.0000 1.0000
26.6300 744.0000 1.0000
26.6400 688.0000 1.0000
26.6500 746.0000 1.0000
26.6600 754.0000 1.0000
26.6700 746.0000 1.0000
26.6800 743.0000 1.0000
26.6900 759.0000 1.0000
26.7000 766.0000 1.0000
26.7100 777.0000 1.0000
26.7200 736.0000 1.0000
26.7300 760.0000 1.0000
26.7400 795.0000 1.0000
26.7500 764.0000 1.0000
26.7600 801.0000 1.0000
26.7700 727.0000 1.0000
26.7800 754.0000 1.0000
26.7900 831.0000 1.0000
26.8000 798.0000 1.0000
26.8100 757.0000 1.0000
26.8200 802.0000 1.0000
26.8300 799.0000 1.0000
26.8400 804.0000 1.0000
26.8500 778.0000 1.0000
26.8600 804.0000 1.0000
26.8700 745.0000 1.0000
26.8800 811.0000 1.0000
26.8900 781.0000 1.0000
26.9000 832.0000 1.0000
26.9100 849.0000 1.0000
26.9200 811.0000 1.0000
26.9300 853.0000 1.0000
26.9400 815.0000 1.0000
26.9500 847.0000 1.0000
26.9600 871.0000 1.0000
26.9700 858.0000 1.0000
26.9800 867.0000 1.0000
26.9900 905.0000 1.0000
27.0000 923.0000 1.0000
27.0100 965.0000 1.0000
27.0200 914.0000 1.0000
27.0300 931.0000 1.0000
27.0400 909.0000 1.0000
27.0500 982.0000 1.0000
27.0600 1005.0000 1.0000
27.0700 1033.0000 1.0000
27.0800 1074.0000 1.0000
27.0900 1026.0000 1.0000
27.1000 1051.0000 1.0000
27.1100 1138.0000 1.0000
27.1200 1152.0000 1.0000
27.1300 1222.0000 1.0000
27.1400 1219.0000 1.0000
27.1500 1170.0000 1.0000
27.1600 1343.0000 1.0000
27.1700 1410.0000 1.0000
27.1800 1437.0000 1.0000
27.1900 1522.0000 1.0000
27.2000 1565.0000 1.0000
27.2100 1646.0000 1.0000
27.2200 1720.0000 1.0000
27.2300 1784.0000 1.0000
27.2400 1903.0000 1.0000
27.2500 2023.0000 1.0000
27.2600 2092.0000 1.0000
27.2700 2262.0000 1.0000
27.2800 2338.0000 1.0000
27.2900 2478.0000 1.0000
27.3000 2506.0000 1.0000
27.3100 2629.0000 1.0000
27.3200 2643.0000 1.0000
27.3300 2680.0000 1.0000
27.3400 2648.0000 1.0000
27.3500 2617.0000 1.0000
27.3600 2515.0000 1.0000
27.3700 2512.0000 1.0000
27.3800 2489.0000 1.0000
27.3900 2396.0000 1.0000
27.4000 2309.0000 1.0000
27.4100 2259.0000 1.0000
27.4200 2110.0000 1.0000
27.4300 1968.0000 1.0000
27.4400 1892.0000 1.0000
27.4500 1827.0000 1.0000
27.4600 1734.0000 1.0000
27.4700 1647.0000 1.0000
27.4800 1509.0000 1.0000
27.4900 1421.0000 1.0000
27.5000 1338.0000 1.0000
27.5100 1316.0000 1.0000
27.5200 1327.0000 1.0000
27.5300 1288.0000 1.0000
27.5400 1234.0000 1.0000
27.5500 1232.0000 1.0000
27.5600 1182.0000 1.0000
27.5700 1077.0000 1.0000
27.5800 1072.0000 1.0000
27.5900 1053.0000 1.0000
27.6000 1035.0000 1.0000
27.6100 1007.0000 1.0000
27.6200 936.0000 1.0000
27.6300 936.0000 1.0000
27.6400 959.0000 1.0000
27.6500 917.0000 1.0000
27.6600 877.0000 1.0000
27.6700 858.0000 1.0000
27.6800 865.0000 1.0000
27.6900 905.0000 1.0000
27.7000 873.0000 1.0000
27.7100 814.0000 1.0000
27.7200 818.0000 1.0000
27.7300 808.0000 1.0000
27.7400 816.0000 1.0000
27.7500 857.0000 1.0000
27.7600 773.0000 1.0000
27.7700 760.0000 1.0000
27.7800 777.0000 1.0000
27.7900 808.0000 1.0000
27.8000 809.0000 1.0000
27.8100 775.0000 1.0000
27.8200 758.0000 1.0000
27.8300 748.0000 1.0000
27.8400 782.0000 1.0000
27.8500 799.0000 1.0000
27.8600 730.0000 1.0000
27.8700 743.0000 1.0000
27.8800 755.0000 1.0000
27.8900 754.0000 1.0000
27.9000 804.0000 1.0000
27.9100 768.0000 1.0000
27.9200 758.0000 1.0000
27.9300 777.0000 1.0000
27.9400 765.0000 1.0000
27.9500 752.0000 1.0000
27.9600 729.0000 1.0000
27.9700 747.0000 1.0000
27.9800 771.0000 1.0000
27.9900 714.0000 1.0000
28.0000 752.0000 1.0000
28.0100 753.0000 1.0000
28.0200 789.0000 1.0000
28.0300 767.0000 1.0000
28.0400 726.0000 1.0000
28.0500 686.0000 1.0000
28.0600 679.0000 1.0000
28.0700 690.0000 1.0000
28.0800 728.0000 1.0000
28.0900 712.0000 1.0000
28.1000 734.0000 1.0000
28.1100 713.0000 1.0000
28.1200 764.0000 1.0000
28.1300 771.0000 1.0000
28.1400 704.0000 1.0000
28.1500 722.0000 1.0000
28.1600 699.0000 1.0000
28.1700 692.0000 1.0000
28.1800 687.0000 1.0000
28.1900 709.0000 1.0000
28.2000 729.0000 1.0000
28.2100 718.0000 1.0000
28.2200 709.0000 1.0000
28.2300 779.0000 1.0000
28.2400 735.0000 1.0000
28.2500 717.0000 1.0000
28.2600 708.0000 1.0000
28.2700 722.0000 1.0000
28.2800 732.0000 1.0000
28.2900 707.0000 1.0000
28.3000 713.0000 1.0000
28.3100 754.0000 1.0000
28.3200 742.0000 1.0000
28.3300 698.0000 1.0000
28.3400 709.0000 1.0000
28.3500 664.0000 1.0000
28.3600 654.0000 1.0000
28.3700 704.0000 1.0000
28.3800 702.0000 1.0000
28.3900 692.0000 1.0000
28.4000 680.0000 1.0000
28.4100 688.0000 1.0000
28.4200 717.0000 1.0000
28.4300 721.0000 1.0000
28.4400 664.0000 1.0000
28.4500 708.0000 1.0000
28.4600 735.0000 1.0000
28.4700 709.0000 1.0000
28.4800 639.0000 1.0000
28.4900 677.0000 1.0000
28.5000 666.0000 1.0000
28.5100 682.0000 1.0000
28.5200 715.0000 1.0000
28.5300 701.0000 1.0000
28.5400 685.0000 1.0000
28.5500 691.0000 1.0000
28.5600 690.0000 1.0000
28.5700 704.0000 1.0000
28.5800 733.0000 1.0000
28.5900 722.0000 1.0000
28.6000 676.0000 1.0000
28.6100 661.0000 1.0000
28.6200 741.0000 1.0000
28.6300 711.0000 1.0000
28.6400 663.0000 1.0000
28.6500 659.0000 1.0000
28.6600 681.0000 1.0000
28.6700 722.0000 1.0000
28.6800 681.0000 1.0000
28.6900 675.0000 1.0000
28.7000 649.0000 1.0000
28.7100 657.0000 1.0000
28.7200 671.0000 1.0000
28.7300 684.0000 1.0000
28.7400 679.0000 1.0000
28.7500 673.0000 1.0000
28.7600 698.0000 1.0000
28.7700 661.0000 1.0000
28.7800 708.0000 1.0000
28.7900 701.0000 1.0000
28.8000 730.0000 1.0000
28.8100 665.0000 1.0000
28.8200 622.0000 1.0000
28.8300 668.0000 1.0000
28.8400 701.0000 1.0000
28.8500 700.0000 1.0000
28.8600 713.0000 1.0000
28.8700 732.0000 1.0000
28.8800 695.0000 1.0000
28.8900 654.0000 1.0000
28.9000 681.0000 1.0000
28.9100 681.0000 1.0000
28.9200 670.0000 1.0000
28.9300 647.0000 1.0000
28.9400 671.0000 1.0000
28.9500 695.0000 1.0000
28.9600 698.0000 1.0000
28.9700 650.0000 1.0000
28.9800 716.0000 1.0000
28.9900 679.0000 1.0000
29.0000 671.0000 1.0000
29.0100 626.0000 1.0000
29.0200 706.0000 1.0000
29.0300 711.0000 1.0000
29.0400 706.0000 1.0000
29.0500 673.0000 1.0000
29.0600 704.0000 1.0000
29.0700 650.0000 1.0000
29.0800 693.0000 1.0000
29.0900 682.0000 1.0000
29.1000 672.0000 1.0000
29.1100 670.0000 1.0000
29.1200 711.0000 1.0000
29.1300 674.0000 1.0000
29.1400 697.0000 1.0000
29.1500 681.0000 1.0000
29.1600 722.0000 1.0000
29.1700 710.0000 1.0000
29.1800 678.0000 1.0000
29.1900 714.0000 1.0000
29.2000 704.0000 1.0000
29.2100 650.0000 1.0000
29.2200 703.0000 1.0000
29.2300 697.0000 1.0000
29.2400 640.0000 1.0000
29.2500 673.0000 1.0000
29.2600 717.0000 1.0000
29.2700 685.0000 1.0000
29.2800 757.0000 1.0000
29.2900 668.0000 1.0000
29.3000 635.0000 1.0000
29.3100 681.0000 1.0000
29.3200 707.0000 1.0000
29.3300 662.0000 1.0000
29.3400 672.0000 1.0000
29.3500 663.0000 1.0000
29.3600 648.0000 1.0000
29.3700 686.0000 1.0000
29.3800 642.0000 1.0000
29.3900 708.0000 1.0000
29.4000 688.0000 1.0000
29.4100 667.0000 1.0000
29.4200 668.0000 1.0000
29.4300 671.0000 1.0000
29.4400 663.0000 1.0000
29.4500 659.0000 1.0000
29.4600 667.0000 1.0000
29.4700 670.0000 1.0000
29.4800 669.0000 1.0000
29.4900 670.0000 1.0000
29.5000 694.0000 1.0000
29.5100 694.0000 1.0000
29.5200 629.0000 1.0000
29.5300 652.0000 1.0000
29.5400 687.0000 1.0000
29.5500 665.0000 1.0000
29.5600 622.0000 1.0000
29.5700 657.0000 1.0000
29.5800 654.0000 1.0000
29.5900 649.0000 1.0000
29.6000 702.0000 1.0000
29.6100 651.0000 1.0000
29.6200 632.0000 1.0000
29.6300 655.0000 1.0000
29.6400 652.0000 1.0000
29.6500 641.0000 1.0000
29.6600 681.0000 1.0000
29.6700 634.0000 1.0000
29.6800 680.0000 1.0000
29.6900 676.0000 1.0000
29.7000 646.0000 1.0000
29.7100 634.0000 1.0000
29.7200 697.0000 1.0000
29.7300 711.0000 1.0000
29.7400 668.0000 1.0000
29.7500 649.0000 1.0000
29.7600 641.0000 1.0000
29.7700 658.0000 1.0000
29.7800 689.0000 1.0000
29.7900 705.0000 1.0000
29.8000 674.0000 1.0000
29.8100 658.0000 1.0000
29.8200 648.0000 1.0000
29.8300 648.0000 1.0000
29.8400 634.0000 1.0000
29.8500 633.0000 1.0000
29.8600 635.0000 1.0000
29.8700 651.0000 1.0000
29.8800 697.0000 1.0000
29.8900 656.0000 1.0000
29.9000 671.0000 1.0000
29.9100 639.0000 1.0000
29.9200 638.0000 1.0000
29.9300 686.0000 1.0000
29.9400 678.0000 1.0000
29.9500 705.0000 1.0000
29.9600 641.0000 1.0000
29.9700 678.0000 1.0000
29.9800 677.0000 1.0000
29.9900 641.0000 1.0000
30.0000 647.0000 1.0000
30.0100 636.0000 1.0000
30.0200 652.0000 1.0000
30.0300 655.0000 1.0000
30.0400 643.0000 1.0000
30.0500 638.0000 1.0000
30.0600 642.0000 1.0000
30.0700 629.0000 1.0000
30.0800 660.0000 1.0000
30.0900 657.0000 1.0000
30.1000 658.0000 1.0000
30.1100 639.0000 1.0000
30.1200 665.0000 1.0000
30.1300 688.0000 1.0000
30.1400 675.0000 1.0000
30.1500 642.0000 1.0000
30.1600 645.0000 1.0000
30.1700 678.0000 1.0000
30.1800 666.0000 1.0000
30.1900 633.0000 1.0000
30.2000 661.0000 1.0000
30.2100 666.0000 1.0000
30.2200 668.0000 1.0000
30.2300 650.0000 1.0000
30.2400 658.0000 1.0000
30.2500 615.0000 1.0000
30.2600 661.0000 1.0000
30.2700 667.0000 1.0000
30.2800 662.0000 1.0000
30.2900 682.0000 1.0000
30.3000 635.0000 1.0000
30.3100 643.0000 1.0000
30.3200 651.0000 1.0000
30.3300 640.0000 1.0000
30.3400 641.0000 1.0000
30.3500 617.0000 1.0000
30.3600 653.0000 1.0000
30.3700 667.0000 1.0000
30.3800 656.0000 1.0000
30.3900 663.0000 1.0000
30.4000 618.0000 1.0000
30.4100 607.0000 1.0000
30.4200 671.0000 1.0000
30.4300 659.0000 1.0000
30.4400 638.0000 1.0000
30.4500 672.0000 1.0000
30.4600 668.0000 1.0000
30.4700 619.0000 1.0000
30.4800 650.0000 1.0000
30.4900 642.0000 1.0000
30.5000 654.0000 1.0000
30.5100 633.0000 1.0000
30.5200 656.0000 1.0000
30.5300 636.0000 1.0000
30.5400 602.0000 1.0000
30.5500 623.0000 1.0000
30.5600 660.0000 1.0000
30.5700 644.0000 1.0000
30.5800 663.0000 1.0000
30.5900 651.0000 1.0000
30.6000 665.0000 1.0000
30.6100 647.0000 1.0000
30.6200 612.0000 1.0000
30.6300 608.0000 1.0000
30.6400 689.0000 1.0000
30.6500 693.0000 1.0000
30.6600 628.0000 1.0000
30.6700 664.0000 1.0000
30.6800 653.0000 1.0000
30.6900 650.0000 1.0000
30.7000 667.0000 1.0000
30.7100 664.0000 1.0000
30.7200 649.0000 1.0000
30.7300 655.0000 1.0000
30.7400 628.0000 1.0000
30.7500 682.0000 1.0000
30.7600 653.0000 1.0000
30.7700 650.0000 1.0000
30.7800 614.0000 1.0000
30.7900 667.0000 1.0000
30.8000 626.0000 1.0000
30.8100 656.0000 1.0000
30.8200 636.0000 1.0000
30.8300 625.0000 1.0000
30.8400 600.0000 1.0000
30.8500 653.0000 1.0000
30.8600 636.0000 1.0000
30.8700 625.0000 1.0000
30.8800 624.0000 1.0000
30.8900 622.0000 1.0000
30.9000 621.0000 1.0000
30.9100 663.0000 1.0000
30.9200 663.0000 1.0000
30.9300 639.0000 1.0000
30.9400 618.0000 1.0000
30.9500 640.0000 1.0000
30.9600 614.0000 1.0000
30.9700 648.0000 1.0000
30.9800 616.0000 1.0000
30.9900 632.0000 1.0000
31.0000 603.0000 1.0000
31.0100 586.0000 1.0000
31.0200 660.0000 1.0000
31.0300 669.0000 1.0000
31.0400 672.0000 1.0000
31.0500 650.0000 1.0000
31.0600 640.0000 1.0000
31.0700 651.0000 1.0000
31.0800 612.0000 1.0000
31.0900 593.0000 1.0000
31.1000 571.0000 1.0000
31.1100 628.0000 1.0000
31.1200 653.0000 1.0000
31.1300 676.0000 1.0000
31.1400 606.0000 1.0000
31.1500 597.0000 1.0000
31.1600 641.0000 1.0000
31.1700 613.0000 1.0000
31.1800 600.0000 1.0000
31.1900 645.0000 1.0000
31.2000 612.0000 1.0000
31.2100 629.0000 1.0000
31.2200 643.0000 1.0000
31.2300 638.0000 1.0000
31.2400 604.0000 1.0000
31.2500 620.0000 1.0000
31.2600 617.0000 1.0000
31.2700 604.0000 1.0000
31.2800 586.0000 1.0000
31.2900 653.0000 1.0000
31.3000 598.0000 1.0000
31.3100 611.0000 1.0000
31.3200 639.0000 1.0000
31.3300 635.0000 1.0000
31.3400 617.0000 1.0000
31.3500 621.0000 1.0000
31.3600 611.0000 1.0000
31.3700 607.0000 1.0000
31.3800 633.0000 1.0000
31.3900 612.0000 1.0000
31.4000 602.0000 1.0000
31.4100 653.0000 1.0000
31.4200 634.0000 1.0000
31.4300 613.0000 1.0000
31.4400 624.0000 1.0000
31.4500 594.0000 1.0000
31.4600 613.0000 1.0000
31.4700 622.0000 1.0000
31.4800 621.0000 1.0000
31.4900 633.0000 1.0000
31.5000 607.0000 1.0000
31.5100 568.0000 1.0000
31.5200 635.0000 1.0000
31.5300 605.0000 1.0000
31.5400 637.0000 1.0000
31.5500 641.0000 1.0000
31.5600 612.0000 1.0000
31.5700 646.0000 1.0000
31.5800 630.0000 1.0000
31.5900 617.0000 1.0000
31.6000 608.0000 1.0000
31.6100 610.0000 1.0000
31.6200 607.0000 1.0000
31.6300 620.0000 1.0000
31.6400 603.0000 1.0000
31.6500 613.0000 1.0000
31.6600 605.0000 1.0000
31.6700 652.0000 1.0000
31.6800 654.0000 1.0000
31.6900 601.0000 1.0000
31.7000 586.0000 1.0000
31.7100 619.0000 1.0000
31.7200 606.0000 1.0000
31.7300 641.0000 1.0000
31.7400 640.0000 1.0000
31.7500 601.0000 1.0000
31.7600 618.0000 1.0000
31.7700 621.0000 1.0000
31.7800 651.0000 1.0000
31.7900 599.0000 1.0000
31.8000 617.0000 1.0000
31.8100 596.0000 1.0000
31.8200 597.0000 1.0000
31.8300 619.0000 1.0000
31.8400 582.0000 1.0000
31.8500 640.0000 1.0000
31.8600 625.0000 1.0000
31.8700 613.0000 1.0000
31.8800 628.0000 1.0000
31.8900 612.0000 1.0000
31.9000 652.0000 1.0000
31.9100 623.0000 1.0000
31.9200 631.0000 1.0000
31.9300 634.0000 1.0000
31.9400 640.0000 1.0000
31.9500 618.0000 1.0000
31.9600 623.0000 1.0000
31.9700 627.0000 1.0000
31.9800 613.0000 1.0000
31.9900 631.0000 1.0000
32.0000 634.0000 1.0000
32.0100 625.0000 1.0000
32.0200 645.0000 1.0000
32.0300 658.0000 1.0000
32.0400 663.0000 1.0000
32.0500 613.0000 1.0000
32.0600 608.0000 1.0000
32.0700 621.0000 1.0000
32.0800 631.0000 1.0000
32.0900 593.0000 1.0000
32.1000 576.0000 1.0000
32.1100 581.0000 1.0000
32.1200 628.0000 1.0000
32.1300 625.0000 1.0000
32.1400 635.0000 1.0000
32.1500 657.0000 1.0000
32.1600 660.0000 1.0000
32.1700 614.0000 1.0000
32.1800 650.0000 1.0000
32.1900 643.0000 1.0000
32.2000 597.0000 1.0000
32.2100 621.0000 1.0000
32.2200 633.0000 1.0000
32.2300 602.0000 1.0000
32.2400 599.0000 1.0000
32.2500 588.0000 1.0000
32.2600 633.0000 1.0000
32.2700 624.0000 1.0000
32.2800 575.0000 1.0000
32.2900 574.0000 1.0000
32.3000 627.0000 1.0000
32.3100 586.0000 1.0000
32.3200 619.0000 1.0000
32.3300 640.0000 1.0000
32.3400 600.0000 1.0000
32.3500 635.0000 1.0000
32.3600 623.0000 1.0000
32.3700 610.0000 1.0000
32.3800 608.0000 1.0000
32.3900 616.0000 1.0000
32.4000 618.0000 1.0000
32.4100 619.0000 1.0000
32.4200 618.0000 1.0000
32.4300 623.0000 1.0000
32.4400 589.0000 1.0000
32.4500 631.0000 1.0000
32.4600 662.0000 1.0000
32.4700 615.0000 1.0000
32.4800 606.0000 1.0000
32.4900 630.0000 1.0000
32.5000 630.0000 1.0000
32.5100 630.0000 1.0000
32.5200 618.0000 1.0000
32.5300 619.0000 1.0000
32.5400 646.0000 1.0000
32.5500 613.0000 1.0000
32.5600 598.0000 1.0000
32.5700 595.0000 1.0000
32.5800 611.0000 1.0000
32.5900 645.0000 1.0000
32.6000 590.0000 1.0000
32.6100 622.0000 1.0000
32.6200 641.0000 1.0000
32.6300 594.0000 1.0000
32.6400 605.0000 1.0000
32.6500 604.0000 1.0000
32.6600 615.0000 1.0000
32.6700 620.0000 1.0000
32.6800 642.0000 1.0000
32.6900 581.0000 1.0000
32.7000 570.0000 1.0000
32.7100 564.0000 1.0000
32.7200 588.0000 1.0000
32.7300 574.0000 1.0000
32.7400 603.0000 1.0000
32.7500 579.0000 1.0000
32.7600 576.0000 1.0000
32.7700 576.0000 1.0000
32.7800 601.0000 1.0000
32.7900 592.0000 1.0000
32.8000 618.0000 1.0000
32.8100 597.0000 1.0000
32.8200 592.0000 1.0000
32.8300 619.0000 1.0000
32.8400 603.0000 1.0000
32.8500 607.0000 1.0000
32.8600 543.0000 1.0000
32.8700 591.0000 1.0000
32.8800 634.0000 1.0000
32.8900 570.0000 1.0000
32.9000 605.0000 1.0000
32.9100 599.0000 1.0000
32.9200 569.0000 1.0000
32.9300 600.0000 1.0000
32.9400 565.0000 1.0000
32.9500 557.0000 1.0000
32.9600 582.0000 1.0000
32.9700 596.0000 1.0000
32.9800 594.0000 1.0000
32.9900 582.0000 1.0000
33.0000 601.0000 1.0000
33.0100 588.0000 1.0000
33.0200 607.0000 1.0000
33.0300 577.0000 1.0000
33.0400 554.0000 1.0000
33.0500 589.0000 1.0000
33.0600 635.0000 1.0000
33.0700 625.0000 1.0000
33.0800 551.0000 1.0000
33.0900 601.0000 1.0000
33.1000 541.0000 1.0000
33.1100 524.0000 1.0000
33.1200 547.0000 1.0000
33.1300 603.0000 1.0000
33.1400 599.0000 1.0000
33.1500 646.0000 1.0000
33.1600 596.0000 1.0000
33.1700 594.0000 1.0000
33.1800 560.0000 1.0000
33.1900 581.0000 1.0000
33.2000 612.0000 1.0000
33.2100 596.0000 1.0000
33.2200 577.0000 1.0000
33.2300 600.0000 1.0000
33.2400 585.0000 1.0000
33.2500 577.0000 1.0000
33.2600 542.0000 1.0000
33.2700 589.0000 1.0000
33.2800 603.0000 1.0000
33.2900 573.0000 1.0000
33.3000 567.0000 1.0000
33.3100 596.0000 1.0000
33.3200 618.0000 1.0000
33.3300 588.0000 1.0000
33.3400 631.0000 1.0000
33.3500 540.0000 1.0000
33.3600 560.0000 1.0000
33.3700 552.0000 1.0000
33.3800 606.0000 1.0000
33.3900 607.0000 1.0000
33.4000 624.0000 1.0000
33.4100 594.0000 1.0000
33.4200 617.0000 1.0000
33.4300 611.0000 1.0000
33.4400 592.0000 1.0000
33.4500 603.0000 1.0000
33.4600 629.0000 1.0000
33.4700 568.0000 1.0000
33.4800 614.0000 1.0000
33.4900 642.0000 1.0000
33.5000 571.0000 1.0000
33.5100 603.0000 1.0000
33.5200 608.0000 1.0000
33.5300 589.0000 1.0000
33.5400 654.0000 1.0000
33.5500 600.0000 1.0000
33.5600 612.0000 1.0000
33.5700 570.0000 1.0000
33.5800 607.0000 1.0000
33.5900 591.0000 1.0000
33.6000 607.0000 1.0000
33.6100 604.0000 1.0000
33.6200 621.0000 1.0000
33.6300 577.0000 1.0000
33.6400 549.0000 1.0000
33.6500 597.0000 1.0000
33.6600 587.0000 1.0000
33.6700 637.0000 1.0000
33.6800 612.0000 1.0000
33.6900 626.0000 1.0000
33.7000 643.0000 1.0000
33.7100 609.0000 1.0000
33.7200 592.0000 1.0000
33.7300 548.0000 1.0000
33.7400 564.0000 1.0000
33.7500 612.0000 1.0000
33.7600 616.0000 1.0000
33.7700 639.0000 1.0000
33.7800 612.0000 1.0000
33.7900 627.0000 1.0000
33.8000 603.0000 1.0000
33.8100 616.0000 1.0000
33.8200 620.0000 1.0000
33.8300 591.0000 1.0000
33.8400 644.0000 1.0000
33.8500 638.0000 1.0000
33.8600 621.0000 1.0000
33.8700 622.0000 1.0000
33.8800 650.0000 1.0000
33.8900 643.0000 1.0000
33.9000 598.0000 1.0000
33.9100 615.0000 1.0000
33.9200 675.0000 1.0000
33.9300 657.0000 1.0000
33.9400 620.0000 1.0000
33.9500 630.0000 1.0000
33.9600 663.0000 1.0000
33.9700 675.0000 1.0000
33.9800 692.0000 1.0000
33.9900 639.0000 1.0000
34.0000 695.0000 1.0000
34.0100 685.0000 1.0000
34.0200 665.0000 1.0000
34.0300 636.0000 1.0000
34.0400 643.0000 1.0000
34.0500 644.0000 1.0000
34.0600 661.0000 1.0000
34.0700 652.0000 1.0000
34.0800 657.0000 1.0000
34.0900 648.0000 1.0000
34.1000 664.0000 1.0000
34.1100 670.0000 1.0000
34.1200 655.0000 1.0000
34.1300 631.0000 1.0000
34.1400 665.0000 1.0000
34.1500 725.0000 1.0000
34.1600 688.0000 1.0000
34.1700 629.0000 1.0000
34.1800 701.0000 1.0000
34.1900 657.0000 1.0000
34.2000 674.0000 1.0000
34.2100 683.0000 1.0000
34.2200 721.0000 1.0000
34.2300 716.0000 1.0000
34.2400 708.0000 1.0000
34.2500 717.0000 1.0000
34.2600 725.0000 1.0000
34.2700 748.0000 1.0000
34.2800 721.0000 1.0000
34.2900 760.0000 1.0000
34.3000 756.0000 1.0000
34.3100 765.0000 1.0000
34.3200 801.0000 1.0000
34.3300 780.0000 1.0000
34.3400 827.0000 1.0000
34.3500 841.0000 1.0000
34.3600 881.0000 1.0000
34.3700 921.0000 1.0000
34.3800 965.0000 1.0000
34.3900 958.0000 1.0000
34.4000 1023.0000 1.0000
34.4100 1076.0000 1.0000
34.4200 1154.0000 1.0000
34.4300 1147.0000 1.0000
34.4400 1207.0000 1.0000
34.4500 1262.0000 1.0000
34.4600 1342.0000 1.0000
34.4700 1307.0000 1.0000
34.4800 1408.0000 1.0000
34.4900 1463.0000 1.0000
34.5000 1429.0000 1.0000
34.5100 1455.0000 1.0000
34.5200 1424.0000 1.0000
34.5300 1478.0000 1.0000
34.5400 1470.0000 1.0000
34.5500 1480.0000 1.0000
34.5600 1426.0000 1.0000
34.5700 1427.0000 1.0000
34.5800 1366.0000 1.0000
34.5900 1337.0000 1.0000
34.6000 1257.0000 1.0000
34.6100 1216.0000 1.0000
34.6200 1225.0000 1.0000
34.6300 1177.0000 1.0000
34.6400 1087.0000 1.0000
34.6500 1072.0000 1.0000
34.6600 1009.0000 1.0000
34.6700 1028.0000 1.0000
34.6800 955.0000 1.0000
34.6900 923.0000 1.0000
34.7000 894.0000 1.0000
34.7100 868.0000 1.0000
34.7200 823.0000 1.0000
34.7300 810.0000 1.0000
34.7400 789.0000 1.0000
34.7500 768.0000 1.0000
34.7600 735.0000 1.0000
34.7700 703.0000 1.0000
34.7800 741.0000 1.0000
34.7900 733.0000 1.0000
34.8000 755.0000 1.0000
34.8100 728.0000 1.0000
34.8200 677.0000 1.0000
34.8300 656.0000 1.0000
34.8400 622.0000 1.0000
34.8500 644.0000 1.0000
34.8600 637.0000 1.0000
34.8700 669.0000 1.0000
34.8800 684.0000 1.0000
34.8900 620.0000 1.0000
34.9000 627.0000 1.0000
34.9100 589.0000 1.0000
34.9200 609.0000 1.0000
34.9300 618.0000 1.0000
34.9400 579.0000 1.0000
34.9500 596.0000 1.0000
34.9600 580.0000 1.0000
34.9700 576.0000 1.0000
34.9800 566.0000 1.0000
34.9900 619.0000 1.0000
35.0000 553.0000 1.0000
35.0100 542.0000 1.0000
35.0200 597.0000 1.0000
35.0300 576.0000 1.0000
35.0400 571.0000 1.0000
35.0500 568.0000 1.0000
35.0600 567.0000 1.0000
35.0700 548.0000 1.0000
35.0800 541.0000 1.0000
35.0900 579.0000 1.0000
35.1000 617.0000 1.0000
35.1100 538.0000 1.0000
35.1200 554.0000 1.0000
35.1300 554.0000 1.0000
35.1400 581.0000 1.0000
35.1500 520.0000 1.0000
35.1600 548.0000 1.0000
35.1700 580.0000 1.0000
35.1800 568.0000 1.0000
35.1900 535.0000 1.0000
35.2000 545.0000 1.0000
35.2100 509.0000 1.0000
35.2200 564.0000 1.0000
35.2300 531.0000 1.0000
35.2400 536.0000 1.0000
35.2500 571.0000 1.0000
35.2600 578.0000 1.0000
35.2700 566.0000 1.0000
35.2800 522.0000 1.0000
35.2900 520.0000 1.0000
35.3000 501.0000 1.0000
35.3100 529.0000 1.0000
35.3200 536.0000 1.0000
35.3300 547.0000 1.0000
35.3400 545.0000 1.0000
35.3500 478.0000 1.0000
35.3600 507.0000 1.0000
35.3700 480.0000 1.0000
35.3800 522.0000 1.0000
35.3900 553.0000 1.0000
35.4000 506.0000 1.0000
35.4100 533.0000 1.0000
35.4200 535.0000 1.0000
35.4300 519.0000 1.0000
35.4400 524.0000 1.0000
35.4500 504.0000 1.0000
35.4600 506.0000 1.0000
35.4700 515.0000 1.0000
35.4800 538.0000 1.0000
35.4900 520.0000 1.0000
35.5000 516.0000 1.0000
35.5100 520.0000 1.0000
35.5200 540.0000 1.0000
35.5300 525.0000 1.0000
35.5400 504.0000 1.0000
35.5500 536.0000 1.0000
35.5600 553.0000 1.0000
35.5700 521.0000 1.0000
35.5800 515.0000 1.0000
35.5900 509.0000 1.0000
35.6000 544.0000 1.0000
35.6100 506.0000 1.0000
35.6200 556.0000 1.0000
35.6300 493.0000 1.0000
35.6400 509.0000 1.0000
35.6500 481.0000 1.0000
35.6600 499.0000 1.0000
35.6700 528.0000 1.0000
35.6800 485.0000 1.0000
35.6900 526.0000 1.0000
35.7000 512.0000 1.0000
35.7100 494.0000 1.0000
35.7200 500.0000 1.0000
35.7300 463.0000 1.0000
35.7400 484.0000 1.0000
35.7500 475.0000 1.0000
35.7600 512.0000 1.0000
35.7700 509.0000 1.0000
35.7800 524.0000 1.0000
35.7900 493.0000 1.0000
35.8000 500.0000 1.0000
35.8100 542.0000 1.0000
35.8200 534.0000 1.0000
35.8300 523.0000 1.0000
35.8400 508.0000 1.0000
35.8500 494.0000 1.0000
35.8600 528.0000 1.0000
35.8700 506.0000 1.0000
35.8800 488.0000 1.0000
35.8900 506.0000 1.0000
35.9000 509.0000 1.0000
35.9100 540.0000 1.0000
35.9200 518.0000 1.0000
35.9300 535.0000 1.0000
35.9400 482.0000 1.0000
35.9500 542.0000 1.0000
35.9600 513.0000 1.0000
35.9700 528.0000 1.0000
35.9800 485.0000 1.0000
35.9900 507.0000 1.0000
36.0000 484.0000 1.0000
36.0100 500.0000 1.0000
36.0200 501.0000 1.0000
36.0300 518.0000 1.0000
36.0400 514.0000 1.0000
36.0500 538.0000 1.0000
36.0600 530.0000 1.0000
36.0700 556.0000 1.0000
36.0800 522.0000 1.0000
36.0900 565.0000 1.0000
36.1000 525.0000 1.0000
36.1100 536.0000 1.0000
36.1200 543.0000 1.0000
36.1300 584.0000 1.0000
36.1400 530.0000 1.0000
36.1500 533.0000 1.0000
36.1600 551.0000 1.0000
36.1700 556.0000 1.0000
36.1800 556.0000 1.0000
36.1900 570.0000 1.0000
36.2000 592.0000 1.0000
36.2100 578.0000 1.0000
36.2200 575.0000 1.0000
36.2300 592.0000 1.0000
36.2400 594.0000 1.0000
36.2500 621.0000 1.0000
36.2600 601.0000 1.0000
36.2700 593.0000 1.0000
36.2800 611.0000 1.0000
36.2900 659.0000 1.0000
36.3000 681.0000 1.0000
36.3100 685.0000 1.0000
36.3200 706.0000 1.0000
36.3300 719.0000 1.0000
36.3400 740.0000 1.0000
36.3500 766.0000 1.0000
36.3600 723.0000 1.0000
36.3700 727.0000 1.0000
36.3800 735.0000 1.0000
36.3900 806.0000 1.0000
36.4000 809.0000 1.0000
36.4100 832.0000 1.0000
36.4200 811.0000 1.0000
36.4300 853.0000 1.0000
36.4400 829.0000 1.0000
36.4500 799.0000 1.0000
36.4600 773.0000 1.0000
36.4700 839.0000 1.0000
36.4800 822.0000 1.0000
36.4900 801.0000 1.0000
36.5000 772.0000 1.0000
36.5100 808.0000 1.0000
36.5200 753.0000 1.0000
36.5300 746.0000 1.0000
36.5400 750.0000 1.0000
36.5500 727.0000 1.0000
36.5600 720.0000 1.0000
36.5700 686.0000 1.0000
36.5800 670.0000 1.0000
36.5900 640.0000 1.0000
36.6000 640.0000 1.0000
36.6100 630.0000 1.0000
36.6200 604.0000 1.0000
36.6300 572.0000 1.0000
36.6400 596.0000 1.0000
36.6500 561.0000 1.0000
36.6600 564.0000 1.0000
36.6700 595.0000 1.0000
36.6800 572.0000 1.0000
36.6900 548.0000 1.0000
36.7000 541.0000 1.0000
36.7100 531.0000 1.0000
36.7200 526.0000 1.0000
36.7300 505.0000 1.0000
36.7400 527.0000 1.0000
36.7500 539.0000 1.0000
36.7600 494.0000 1.0000
36.7700 473.0000 1.0000
36.7800 509.0000 1.0000
36.7900 448.0000 1.0000
36.8000 508.0000 1.0000
36.8100 487.0000 1.0000
36.8200 495.0000 1.0000
36.8300 470.0000 1.0000
36.8400 470.0000 1.0000
36.8500 496.0000 1.0000
36.8600 501.0000 1.0000
36.8700 495.0000 1.0000
36.8800 492.0000 1.0000
36.8900 527.0000 1.0000
36.9000 517.0000 1.0000
36.9100 524.0000 1.0000
36.9200 490.0000 1.0000
36.9300 487.0000 1.0000
36.9400 484.0000 1.0000
36.9500 514.0000 1.0000
36.9600 465.0000 1.0000
36.9700 475.0000 1.0000
36.9800 470.0000 1.0000
36.9900 495.0000 1.0000
37.0000 452.0000 1.0000
37.0100 451.0000 1.0000
37.0200 467.0000 1.0000
37.0300 486.0000 1.0000
37.0400 470.0000 1.0000
37.0500 481.0000 1.0000
37.0600 496.0000 1.0000
37.0700 489.0000 1.0000
37.0800 442.0000 1.0000
37.0900 470.0000 1.0000
37.1000 517.0000 1.0000
37.1100 469.0000 1.0000
37.1200 474.0000 1.0000
37.1300 454.0000 1.0000
37.1400 455.0000 1.0000
37.1500 481.0000 1.0000
37.1600 463.0000 1.0000
37.1700 418.0000 1.0000
37.1800 475.0000 1.0000
37.1900 489.0000 1.0000
37.2000 470.0000 1.0000
37.2100 447.0000 1.0000
37.2200 488.0000 1.0000
37.2300 453.0000 1.0000
37.2400 471.0000 1.0000
37.2500 474.0000 1.0000
37.2600 448.0000 1.0000
37.2700 455.0000 1.0000
37.2800 464.0000 1.0000
37.2900 494.0000 1.0000
37.3000 451.0000 1.0000
37.3100 490.0000 1.0000
37.3200 479.0000 1.0000
37.3300 462.0000 1.0000
37.3400 453.0000 1.0000
37.3500 441.0000 1.0000
37.3600 457.0000 1.0000
37.3700 444.0000 1.0000
37.3800 481.0000 1.0000
37.3900 462.0000 1.0000
37.4000 476.0000 1.0000
37.4100 484.0000 1.0000
37.4200 479.0000 1.0000
37.4300 448.0000 1.0000
37.4400 462.0000 1.0000
37.4500 462.0000 1.0000
37.4600 467.0000 1.0000
37.4700 469.0000 1.0000
37.4800 491.0000 1.0000
37.4900 437.0000 1.0000
37.5000 432.0000 1.0000
37.5100 459.0000 1.0000
37.5200 456.0000 1.0000
37.5300 471.0000 1.0000
37.5400 467.0000 1.0000
37.5500 462.0000 1.0000
37.5600 472.0000 1.0000
37.5700 470.0000 1.0000
37.5800 462.0000 1.0000
37.5900 445.0000 1.0000
37.6000 436.0000 1.0000
37.6100 473.0000 1.0000
37.6200 459.0000 1.0000
37.6300 496.0000 1.0000
37.6400 487.0000 1.0000
37.6500 480.0000 1.0000
37.6600 446.0000 1.0000
37.6700 466.0000 1.0000
37.6800 452.0000 1.0000
37.6900 445.0000 1.0000
37.7000 461.0000 1.0000
37.7100 455.0000 1.0000
37.7200 465.0000 1.0000
37.7300 465.0000 1.0000
37.7400 465.0000 1.0000
37.7500 457.0000 1.0000
37.7600 516.0000 1.0000
37.7700 467.0000 1.0000
37.7800 453.0000 1.0000
37.7900 483.0000 1.0000
37.8000 492.0000 1.0000
37.8100 451.0000 1.0000
37.8200 470.0000 1.0000
37.8300 494.0000 1.0000
37.8400 477.0000 1.0000
37.8500 475.0000 1.0000
37.8600 487.0000 1.0000
37.8700 464.0000 1.0000
37.8800 526.0000 1.0000
37.8900 494.0000 1.0000
37.9000 522.0000 1.0000
37.9100 493.0000 1.0000
37.9200 499.0000 1.0000
37.9300 468.0000 1.0000
37.9400 472.0000 1.0000
37.9500 497.0000 1.0000
37.9600 496.0000 1.0000
37.9700 528.0000 1.0000
37.9800 481.0000 1.0000
37.9900 481.0000 1.0000
38.0000 504.0000 1.0000
38.0100 517.0000 1.0000
38.0200 448.0000 1.0000
38.0300 513.0000 1.0000
38.0400 474.0000 1.0000
38.0500 472.0000 1.0000
38.0600 502.0000 1.0000
38.0700 501.0000 1.0000
38.0800 517.0000 1.0000
38.0900 508.0000 1.0000
38.1000 501.0000 1.0000
38.1100 538.0000 1.0000
38.1200 501.0000 1.0000
38.1300 527.0000 1.0000
38.1400 559.0000 1.0000
38.1500 534.0000 1.0000
38.1600 538.0000 1.0000
38.1700 534.0000 1.0000
38.1800 558.0000 1.0000
38.1900 554.0000 1.0000
38.2000 551.0000 1.0000
38.2100 624.0000 1.0000
38.2200 633.0000 1.0000
38.2300 633.0000 1.0000
38.2400 588.0000 1.0000
38.2500 630.0000 1.0000
38.2600 664.0000 1.0000
38.2700 643.0000 1.0000
38.2800 704.0000 1.0000
38.2900 747.0000 1.0000
38.3000 749.0000 1.0000
38.3100 787.0000 1.0000
38.3200 807.0000 1.0000
38.3300 793.0000 1.0000
38.3400 911.0000 1.0000
38.3500 960.0000 1.0000
38.3600 975.0000 1.0000
38.3700 1024.0000 1.0000
38.3800 1120.0000 1.0000
38.3900 1128.0000 1.0000
38.4000 1160.0000 1.0000
38.4100 1270.0000 1.0000
38.4200 1366.0000 1.0000
38.4300 1484.0000 1.0000
38.4400 1462.0000 1.0000
38.4500 1633.0000 1.0000
38.4600 1813.0000 1.0000
38.4700 1890.0000 1.0000
38.4800 2015.0000 1.0000
38.4900 2180.0000 1.0000
38.5000 2209.0000 1.0000
38.5100 2383.0000 1.0000
38.5200 2414.0000 1.0000
38.5300 2520.0000 1.0000
38.5400 2602.0000 1.0000
38.5500 2694.0000 1.0000
38.5600 2575.0000 1.0000
38.5700 2591.0000 1.0000
38.5800 2574.0000 1.0000
38.5900 2577.0000 1.0000
38.6000 2467.0000 1.0000
38.6100 2500.0000 1.0000
38.6200 2289.0000 1.0000
38.6300 2271.0000 1.0000
38.6400 2188.0000 1.0000
38.6500 2081.0000 1.0000
38.6600 2037.0000 1.0000
38.6700 1934.0000 1.0000
38.6800 1802.0000 1.0000
38.6900 1694.0000 1.0000
38.7000 1589.0000 1.0000
38.7100 1441.0000 1.0000
38.7200 1387.0000 1.0000
38.7300 1316.0000 1.0000
38.7400 1163.0000 1.0000
38.7500 1092.0000 1.0000
38.7600 1081.0000 1.0000
38.7700 1006.0000 1.0000
38.7800 996.0000 1.0000
38.7900 982.0000 1.0000
38.8000 898.0000 1.0000
38.8100 820.0000 1.0000
38.8200 785.0000 1.0000
38.8300 733.0000 1.0000
38.8400 685.0000 1.0000
38.8500 711.0000 1.0000
38.8600 729.0000 1.0000
38.8700 653.0000 1.0000
38.8800 668.0000 1.0000
38.8900 591.0000 1.0000
38.9000 625.0000 1.0000
38.9100 552.0000 1.0000
38.9200 572.0000 1.0000
38.9300 550.0000 1.0000
38.9400 545.0000 1.0000
38.9500 512.0000 1.0000
38.9600 522.0000 1.0000
38.9700 493.0000 1.0000
38.9800 563.0000 1.0000
38.9900 497.0000 1.0000
39.0000 515.0000 1.0000
39.0100 508.0000 1.0000
39.0200 489.0000 1.0000
39.0300 482.0000 1.0000
39.0400 461.0000 1.0000
39.0500 465.0000 1.0000
39.0600 471.0000 1.0000
39.0700 527.0000 1.0000
39.0800 461.0000 1.0000
39.0900 453.0000 1.0000
39.1000 464.0000 1.0000
39.1100 444.0000 1.0000
39.1200 442.0000 1.0000
39.1300 459.0000 1.0000
39.1400 468.0000 1.0000
39.1500 447.0000 1.0000
39.1600 444.0000 1.0000
39.1700 435.0000 1.0000
39.1800 454.0000 1.0000
39.1900 446.0000 1.0000
39.2000 428.0000 1.0000
39.2100 456.0000 1.0000
39.2200 450.0000 1.0000
39.2300 393.0000 1.0000
39.2400 405.0000 1.0000
39.2500 444.0000 1.0000
39.2600 437.0000 1.0000
39.2700 420.0000 1.0000
39.2800 444.0000 1.0000
39.2900 435.0000 1.0000
39.3000 447.0000 1.0000
39.3100 434.0000 1.0000
39.3200 435.0000 1.0000
39.3300 424.0000 1.0000
39.3400 449.0000 1.0000
39.3500 437.0000 1.0000
39.3600 418.0000 1.0000
39.3700 400.0000 1.0000
39.3800 437.0000 1.0000
39.3900 431.0000 1.0000
39.4000 446.0000 1.0000
39.4100 432.0000 1.0000
39.4200 412.0000 1.0000
39.4300 428.0000 1.0000
39.4400 399.0000 1.0000
39.4500 444.0000 1.0000
39.4600 445.0000 1.0000
39.4700 405.0000 1.0000
39.4800 457.0000 1.0000
39.4900 434.0000 1.0000
39.5000 444.0000 1.0000
39.5100 451.0000 1.0000
39.5200 448.0000 1.0000
39.5300 450.0000 1.0000
39.5400 401.0000 1.0000
39.5500 401.0000 1.0000
39.5600 431.0000 1.0000
39.5700 422.0000 1.0000
39.5800 465.0000 1.0000
39.5900 451.0000 1.0000
39.6000 442.0000 1.0000
39.6100 448.0000 1.0000
39.6200 445.0000 1.0000
39.6300 439.0000 1.0000
39.6400 444.0000 1.0000
39.6500 444.0000 1.0000
39.6600 425.0000 1.0000
39.6700 462.0000 1.0000
39.6800 449.0000 1.0000
39.6900 433.0000 1.0000
39.7000 421.0000 1.0000
39.7100 440.0000 1.0000
39.7200 434.0000 1.0000
39.7300 427.0000 1.0000
39.7400 435.0000 1.0000
39.7500 444.0000 1.0000
39.7600 408.0000 1.0000
39.7700 423.0000 1.0000
39.7800 424.0000 1.0000
39.7900 378.0000 1.0000
39.8000 411.0000 1.0000
39.8100 437.0000 1.0000
39.8200 417.0000 1.0000
39.8300 423.0000 1.0000
39.8400 418.0000 1.0000
39.8500 434.0000 1.0000
39.8600 444.0000 1.0000
39.8700 409.0000 1.0000
39.8800 421.0000 1.0000
39.8900 437.0000 1.0000
39.9000 382.0000 1.0000
39.9100 426.0000 1.0000
39.9200 387.0000 1.0000
39.9300 410.0000 1.0000
39.9400 395.0000 1.0000
39.9500 398.0000 1.0000
39.9600 422.0000 1.0000
39.9700 388.0000 1.0000
39.9800 380.0000 1.0000
39.9900 398.0000 1.0000
40.0000 410.0000 1.0000
40.0100 402.0000 1.0000
40.0200 388.0000 1.0000
40.0300 417.0000 1.0000
40.0400 401.0000 1.0000
40.0500 415.0000 1.0000
40.0600 404.0000 1.0000
40.0700 385.0000 1.0000
40.0800 374.0000 1.0000
40.0900 414.0000 1.0000
40.1000 404.0000 1.0000
40.1100 415.0000 1.0000
40.1200 409.0000 1.0000
40.1300 390.0000 1.0000
40.1400 358.0000 1.0000
40.1500 347.0000 1.0000
40.1600 403.0000 1.0000
40.1700 395.0000 1.0000
40.1800 388.0000 1.0000
40.1900 412.0000 1.0000
40.2000 401.0000 1.0000
40.2100 411.0000 1.0000
40.2200 379.0000 1.0000
40.2300 393.0000 1.0000
40.2400 378.0000 1.0000
40.2500 398.0000 1.0000
40.2600 396.0000 1.0000
40.2700 401.0000 1.0000
40.2800 416.0000 1.0000
40.2900 371.0000 1.0000
40.3000 367.0000 1.0000
40.3100 380.0000 1.0000
40.3200 370.0000 1.0000
40.3300 405.0000 1.0000
40.3400 411.0000 1.0000
40.3500 418.0000 1.0000
40.3600 368.0000 1.0000
40.3700 427.0000 1.0000
40.3800 372.0000 1.0000
40.3900 373.0000 1.0000
40.4000 385.0000 1.0000
40.4100 391.0000 1.0000
40.4200 370.0000 1.0000
40.4300 373.0000 1.0000
40.4400 370.0000 1.0000
40.4500 374.0000 1.0000
40.4600 383.0000 1.0000
40.4700 393.0000 1.0000
40.4800 427.0000 1.0000
40.4900 401.0000 1.0000
40.5000 374.0000 1.0000
40.5100 371.0000 1.0000
40.5200 382.0000 1.0000
40.5300 392.0000 1.0000
40.5400 407.0000 1.0000
40.5500 399.0000 1.0000
40.5600 401.0000 1.0000
40.5700 383.0000 1.0000
40.5800 368.0000 1.0000
40.5900 371.0000 1.0000
40.6000 383.0000 1.0000
40.6100 383.0000 1.0000
40.6200 371.0000 1.0000
40.6300 371.0000 1.0000
40.6400 378.0000 1.0000
40.6500 396.0000 1.0000
40.6600 375.0000 1.0000
40.6700 364.0000 1.0000
40.6800 384.0000 1.0000
40.6900 396.0000 1.0000
40.7000 394.0000 1.0000
40.7100 414.0000 1.0000
40.7200 373.0000 1.0000
40.7300 392.0000 1.0000
40.7400 367.0000 1.0000
40.7500 416.0000 1.0000
40.7600 409.0000 1.0000
40.7700 330.0000 1.0000
40.7800 343.0000 1.0000
40.7900 362.0000 1.0000
40.8000 359.0000 1.0000
40.8100 358.0000 1.0000
40.8200 396.0000 1.0000
40.8300 389.0000 1.0000
40.8400 360.0000 1.0000
40.8500 389.0000 1.0000
40.8600 382.0000 1.0000
40.8700 376.0000 1.0000
40.8800 401.0000 1.0000
40.8900 401.0000 1.0000
40.9000 361.0000 1.0000
40.9100 389.0000 1.0000
40.9200 392.0000 1.0000
40.9300 392.0000 1.0000
40.9400 392.0000 1.0000
40.9500 376.0000 1.0000
40.9600 352.0000 1.0000
40.9700 381.0000 1.0000
40.9800 398.0000 1.0000
40.9900 371.0000 1.0000
41.0000 389.0000 1.0000
41.0100 404.0000 1.0000
41.0200 381.0000 1.0000
41.0300 423.0000 1.0000
41.0400 390.0000 1.0000
41.0500 387.0000 1.0000
41.0600 394.0000 1.0000
41.0700 370.0000 1.0000
41.0800 376.0000 1.0000
41.0900 396.0000 1.0000
41.1000 360.0000 1.0000
41.1100 358.0000 1.0000
41.1200 389.0000 1.0000
41.1300 376.0000 1.0000
41.1400 339.0000 1.0000
41.1500 362.0000 1.0000
41.1600 363.0000 1.0000
41.1700 394.0000 1.0000
41.1800 385.0000 1.0000
41.1900 383.0000 1.0000
41.2000 381.0000 1.0000
41.2100 390.0000 1.0000
41.2200 382.0000 1.0000
41.2300 372.0000 1.0000
41.2400 391.0000 1.0000
41.2500 397.0000 1.0000
41.2600 414.0000 1.0000
41.2700 373.0000 1.0000
41.2800 376.0000 1.0000
41.2900 387.0000 1.0000
41.3000 413.0000 1.0000
41.3100 424.0000 1.0000
41.3200 371.0000 1.0000
41.3300 362.0000 1.0000
41.3400 384.0000 1.0000
41.3500 364.0000 1.0000
41.3600 376.0000 1.0000
41.3700 359.0000 1.0000
41.3800 367.0000 1.0000
41.3900 395.0000 1.0000
41.4000 380.0000 1.0000
41.4100 384.0000 1.0000
41.4200 405.0000 1.0000
41.4300 373.0000 1.0000
41.4400 408.0000 1.0000
41.4500 381.0000 1.0000
41.4600 377.0000 1.0000
41.4700 373.0000 1.0000
41.4800 402.0000 1.0000
41.4900 400.0000 1.0000
41.5000 393.0000 1.0000
41.5100 358.0000 1.0000
41.5200 365.0000 1.0000
41.5300 422.0000 1.0000
41.5400 395.0000 1.0000
41.5500 385.0000 1.0000
41.5600 388.0000 1.0000
41.5700 385.0000 1.0000
41.5800 412.0000 1.0000
41.5900 387.0000 1.0000
41.6000 382.0000 1.0000
41.6100 384.0000 1.0000
41.6200 384.0000 1.0000
41.6300 401.0000 1.0000
41.6400 384.0000 1.0000
41.6500 388.0000 1.0000
41.6600 408.0000 1.0000
41.6700 372.0000 1.0000
41.6800 382.0000 1.0000
41.6900 372.0000 1.0000
41.7000 416.0000 1.0000
41.7100 401.0000 1.0000
41.7200 405.0000 1.0000
41.7300 396.0000 1.0000
41.7400 398.0000 1.0000
41.7500 398.0000 1.0000
41.7600 413.0000 1.0000
41.7700 380.0000 1.0000
41.7800 398.0000 1.0000
41.7900 398.0000 1.0000
41.8000 396.0000 1.0000
41.8100 394.0000 1.0000
41.8200 370.0000 1.0000
41.8300 405.0000 1.0000
41.8400 394.0000 1.0000
41.8500 405.0000 1.0000
41.8600 359.0000 1.0000
41.8700 397.0000 1.0000
41.8800 416.0000 1.0000
41.8900 394.0000 1.0000
41.9000 383.0000 1.0000
41.9100 351.0000 1.0000
41.9200 388.0000 1.0000
41.9300 378.0000 1.0000
41.9400 359.0000 1.0000
41.9500 399.0000 1.0000
41.9600 356.0000 1.0000
41.9700 376.0000 1.0000
41.9800 394.0000 1.0000
41.9900 347.0000 1.0000
42.0000 364.0000 1.0000
42.0100 360.0000 1.0000
42.0200 376.0000 1.0000
42.0300 372.0000 1.0000
42.0400 388.0000 1.0000
42.0500 363.0000 1.0000
42.0600 360.0000 1.0000
42.0700 385.0000 1.0000
42.0800 404.0000 1.0000
42.0900 363.0000 1.0000
42.1000 361.0000 1.0000
42.1100 367.0000 1.0000
42.1200 367.0000 1.0000
42.1300 381.0000 1.0000
42.1400 409.0000 1.0000
42.1500 367.0000 1.0000
42.1600 381.0000 1.0000
42.1700 372.0000 1.0000
42.1800 371.0000 1.0000
42.1900 377.0000 1.0000
42.2000 398.0000 1.0000
42.2100 379.0000 1.0000
42.2200 364.0000 1.0000
42.2300 377.0000 1.0000
42.2400 377.0000 1.0000
42.2500 383.0000 1.0000
42.2600 394.0000 1.0000
42.2700 361.0000 1.0000
42.2800 383.0000 1.0000
42.2900 353.0000 1.0000
42.3000 352.0000 1.0000
42.3100 393.0000 1.0000
42.3200 384.0000 1.0000
42.3300 387.0000 1.0000
42.3400 373.0000 1.0000
42.3500 371.0000 1.0000
42.3600 380.0000 1.0000
42.3700 395.0000 1.0000
42.3800 372.0000 1.0000
42.3900 364.0000 1.0000
42.4000 394.0000 1.0000
42.4100 378.0000 1.0000
42.4200 336.0000 1.0000
42.4300 366.0000 1.0000
42.4400 375.0000 1.0000
42.4500 386.0000 1.0000
42.4600 368.0000 1.0000
42.4700 375.0000 1.0000
42.4800 379.0000 1.0000
42.4900 411.0000 1.0000
42.5000 381.0000 1.0000
42.5100 366.0000 1.0000
42.5200 393.0000 1.0000
42.5300 356.0000 1.0000
42.5400 362.0000 1.0000
42.5500 371.0000 1.0000
42.5600 378.0000 1.0000
42.5700 364.0000 1.0000
42.5800 367.0000 1.0000
42.5900 384.0000 1.0000
42.6000 389.0000 1.0000
42.6100 362.0000 1.0000
42.6200 356.0000 1.0000
42.6300 398.0000 1.0000
42.6400 379.0000 1.0000
42.6500 385.0000 1.0000
42.6600 404.0000 1.0000
42.6700 404.0000 1.0000
42.6800 352.0000 1.0000
42.6900 367.0000 1.0000
42.7000 371.0000 1.0000
42.7100 369.0000 1.0000
42.7200 395.0000 1.0000
42.7300 402.0000 1.0000
42.7400 370.0000 1.0000
42.7500 378.0000 1.0000
42.7600 363.0000 1.0000
42.7700 371.0000 1.0000
42.7800 366.0000 1.0000
42.7900 333.0000 1.0000
42.8000 360.0000 1.0000
42.8100 334.0000 1.0000
42.8200 380.0000 1.0000
42.8300 386.0000 1.0000
42.8400 354.0000 1.0000
42.8500 369.0000 1.0000
42.8600 389.0000 1.0000
42.8700 391.0000 1.0000
42.8800 340.0000 1.0000
42.8900 365.0000 1.0000
42.9000 356.0000 1.0000
42.9100 381.0000 1.0000
42.9200 366.0000 1.0000
42.9300 384.0000 1.0000
42.9400 394.0000 1.0000
42.9500 387.0000 1.0000
42.9600 370.0000 1.0000
42.9700 367.0000 1.0000
42.9800 361.0000 1.0000
42.9900 363.0000 1.0000
43.0000 388.0000 1.0000
43.0100 377.0000 1.0000
43.0200 363.0000 1.0000
43.0300 366.0000 1.0000
43.0400 388.0000 1.0000
43.0500 368.0000 1.0000
43.0600 387.0000 1.0000
43.0700 382.0000 1.0000
43.0800 426.0000 1.0000
43.0900 412.0000 1.0000
43.1000 374.0000 1.0000
43.1100 382.0000 1.0000
43.1200 363.0000 1.0000
43.1300 403.0000 1.0000
43.1400 410.0000 1.0000
43.1500 425.0000 1.0000
43.1600 425.0000 1.0000
43.1700 431.0000 1.0000
43.1800 370.0000 1.0000
43.1900 385.0000 1.0000
43.2000 412.0000 1.0000
43.2100 414.0000 1.0000
43.2200 407.0000 1.0000
43.2300 424.0000 1.0000
43.2400 398.0000 1.0000
43.2500 433.0000 1.0000
43.2600 433.0000 1.0000
43.2700 384.0000 1.0000
43.2800 395.0000 1.0000
43.2900 433.0000 1.0000
43.3000 410.0000 1.0000
43.3100 409.0000 1.0000
43.3200 401.0000 1.0000
43.3300 395.0000 1.0000
43.3400 392.0000 1.0000
43.3500 392.0000 1.0000
43.3600 402.0000 1.0000
43.3700 414.0000 1.0000
43.3800 409.0000 1.0000
43.3900 402.0000 1.0000
43.4000 378.0000 1.0000
43.4100 370.0000 1.0000
43.4200 390.0000 1.0000
43.4300 373.0000 1.0000
43.4400 351.0000 1.0000
43.4500 377.0000 1.0000
43.4600 369.0000 1.0000
43.4700 376.0000 1.0000
43.4800 380.0000 1.0000
43.4900 403.0000 1.0000
43.5000 396.0000 1.0000
43.5100 359.0000 1.0000
43.5200 383.0000 1.0000
43.5300 358.0000 1.0000
43.5400 364.0000 1.0000
43.5500 356.0000 1.0000
43.5600 353.0000 1.0000
43.5700 364.0000 1.0000
43.5800 365.0000 1.0000
43.5900 321.0000 1.0000
43.6000 363.0000 1.0000
43.6100 389.0000 1.0000
43.6200 368.0000 1.0000
43.6300 393.0000 1.0000
43.6400 348.0000 1.0000
43.6500 345.0000 1.0000
43.6600 344.0000 1.0000
43.6700 362.0000 1.0000
43.6800 364.0000 1.0000
43.6900 349.0000 1.0000
43.7000 336.0000 1.0000
43.7100 347.0000 1.0000
43.7200 338.0000 1.0000
43.7300 385.0000 1.0000
43.7400 334.0000 1.0000
43.7500 352.0000 1.0000
43.7600 399.0000 1.0000
43.7700 373.0000 1.0000
43.7800 323.0000 1.0000
43.7900 343.0000 1.0000
43.8000 335.0000 1.0000
43.8100 386.0000 1.0000
43.8200 352.0000 1.0000
43.8300 368.0000 1.0000
43.8400 354.0000 1.0000
43.8500 361.0000 1.0000
43.8600 389.0000 1.0000
43.8700 343.0000 1.0000
43.8800 363.0000 1.0000
43.8900 366.0000 1.0000
43.9000 391.0000 1.0000
43.9100 384.0000 1.0000
43.9200 373.0000 1.0000
43.9300 368.0000 1.0000
43.9400 373.0000 1.0000
43.9500 337.0000 1.0000
43.9600 368.0000 1.0000
43.9700 376.0000 1.0000
43.9800 373.0000 1.0000
43.9900 382.0000 1.0000
44.0000 390.0000 1.0000
44.0100 369.0000 1.0000
44.0200 368.0000 1.0000
44.0300 379.0000 1.0000
44.0400 355.0000 1.0000
44.0500 368.0000 1.0000
44.0600 372.0000 1.0000
44.0700 365.0000 1.0000
44.0800 370.0000 1.0000
44.0900 375.0000 1.0000
44.1000 387.0000 1.0000
44.1100 355.0000 1.0000
44.1200 359.0000 1.0000
44.1300 379.0000 1.0000
44.1400 366.0000 1.0000
44.1500 351.0000 1.0000
44.1600 376.0000 1.0000
44.1700 373.0000 1.0000
44.1800 363.0000 1.0000
44.1900 328.0000 1.0000
44.2000 337.0000 1.0000
44.2100 349.0000 1.0000
44.2200 379.0000 1.0000
44.2300 376.0000 1.0000
44.2400 353.0000 1.0000
44.2500 362.0000 1.0000
44.2600 370.0000 1.0000
44.2700 385.0000 1.0000
44.2800 395.0000 1.0000
44.2900 353.0000 1.0000
44.3000 365.0000 1.0000
44.3100 398.0000 1.0000
44.3200 385.0000 1.0000
44.3300 385.0000 1.0000
44.3400 370.0000 1.0000
44.3500 343.0000 1.0000
44.3600 369.0000 1.0000
44.3700 384.0000 1.0000
44.3800 370.0000 1.0000
44.3900 374.0000 1.0000
44.4000 381.0000 1.0000
44.4100 366.0000 1.0000
44.4200 366.0000 1.0000
44.4300 371.0000 1.0000
44.4400 364.0000 1.0000
44.4500 379.0000 1.0000
44.4600 364.0000 1.0000
44.4700 380.0000 1.0000
44.4800 380.0000 1.0000
44.4900 384.0000 1.0000
44.5000 350.0000 1.0000
44.5100 380.0000 1.0000
44.5200 363.0000 1.0000
44.5300 388.0000 1.0000
44.5400 372.0000 1.0000
44.5500 374.0000 1.0000
44.5600 381.0000 1.0000
44.5700 344.0000 1.0000
44.5800 344.0000 1.0000
44.5900 387.0000 1.0000
44.6000 391.0000 1.0000
44.6100 348.0000 1.0000
44.6200 359.0000 1.0000
44.6300 335.0000 1.0000
44.6400 357.0000 1.0000
44.6500 371.0000 1.0000
44.6600 357.0000 1.0000
44.6700 384.0000 1.0000
44.6800 361.0000 1.0000
44.6900 337.0000 1.0000
44.7000 346.0000 1.0000
44.7100 363.0000 1.0000
44.7200 340.0000 1.0000
44.7300 368.0000 1.0000
44.7400 362.0000 1.0000
44.7500 384.0000 1.0000
44.7600 348.0000 1.0000
44.7700 345.0000 1.0000
44.7800 347.0000 1.0000
44.7900 390.0000 1.0000
44.8000 359.0000 1.0000
44.8100 379.0000 1.0000
44.8200 369.0000 1.0000
44.8300 362.0000 1.0000
44.8400 370.0000 1.0000
44.8500 369.0000 1.0000
44.8600 356.0000 1.0000
44.8700 365.0000 1.0000
44.8800 315.0000 1.0000
44.8900 359.0000 1.0000
44.9000 350.0000 1.0000
44.9100 360.0000 1.0000
44.9200 365.0000 1.0000
44.9300 370.0000 1.0000
44.9400 335.0000 1.0000
44.9500 355.0000 1.0000
44.9600 340.0000 1.0000
44.9700 355.0000 1.0000
44.9800 346.0000 1.0000
44.9900 363.0000 1.0000
45.0000 393.0000 1.0000
45.0100 335.0000 1.0000
45.0200 353.0000 1.0000
45.0300 367.0000 1.0000
45.0400 353.0000 1.0000
45.0500 357.0000 1.0000
45.0600 396.0000 1.0000
45.0700 338.0000 1.0000
45.0800 343.0000 1.0000
45.0900 360.0000 1.0000
45.1000 375.0000 1.0000
45.1100 353.0000 1.0000
45.1200 387.0000 1.0000
45.1300 379.0000 1.0000
45.1400 318.0000 1.0000
45.1500 335.0000 1.0000
45.1600 382.0000 1.0000
45.1700 361.0000 1.0000
45.1800 337.0000 1.0000
45.1900 337.0000 1.0000
45.2000 317.0000 1.0000
45.2100 347.0000 1.0000
45.2200 384.0000 1.0000
45.2300 355.0000 1.0000
45.2400 347.0000 1.0000
45.2500 368.0000 1.0000
45.2600 359.0000 1.0000
45.2700 362.0000 1.0000
45.2800 341.0000 1.0000
45.2900 356.0000 1.0000
45.3000 345.0000 1.0000
45.3100 329.0000 1.0000
45.3200 327.0000 1.0000
45.3300 333.0000 1.0000
45.3400 324.0000 1.0000
45.3500 345.0000 1.0000
45.3600 313.0000 1.0000
45.3700 366.0000 1.0000
45.3800 352.0000 1.0000
45.3900 344.0000 1.0000
45.4000 362.0000 1.0000
45.4100 339.0000 1.0000
45.4200 337.0000 1.0000
45.4300 358.0000 1.0000
45.4400 337.0000 1.0000
45.4500 349.0000 1.0000
45.4600 374.0000 1.0000
45.4700 364.0000 1.0000
45.4800 331.0000 1.0000
45.4900 343.0000 1.0000
45.5000 362.0000 1.0000
45.5100 364.0000 1.0000
45.5200 367.0000 1.0000
45.5300 355.0000 1.0000
45.5400 337.0000 1.0000
45.5500 347.0000 1.0000
45.5600 335.0000 1.0000
45.5700 344.0000 1.0000
45.5800 338.0000 1.0000
45.5900 373.0000 1.0000
45.6000 341.0000 1.0000
45.6100 361.0000 1.0000
45.6200 374.0000 1.0000
45.6300 350.0000 1.0000
45.6400 324.0000 1.0000
45.6500 356.0000 1.0000
45.6600 365.0000 1.0000
45.6700 378.0000 1.0000
45.6800 331.0000 1.0000
45.6900 352.0000 1.0000
45.7000 337.0000 1.0000
45.7100 336.0000 1.0000
45.7200 327.0000 1.0000
45.7300 358.0000 1.0000
45.7400 347.0000 1.0000
45.7500 340.0000 1.0000
45.7600 351.0000 1.0000
45.7700 320.0000 1.0000
45.7800 349.0000 1.0000
45.7900 341.0000 1.0000
45.8000 331.0000 1.0000
45.8100 328.0000 1.0000
45.8200 362.0000 1.0000
45.8300 331.0000 1.0000
45.8400 334.0000 1.0000
45.8500 380.0000 1.0000
45.8600 383.0000 1.0000
45.8700 385.0000 1.0000
45.8800 358.0000 1.0000
45.8900 344.0000 1.0000
45.9000 347.0000 1.0000
45.9100 364.0000 1.0000
45.9200 337.0000 1.0000
45.9300 338.0000 1.0000
45.9400 366.0000 1.0000
45.9500 331.0000 1.0000
45.9600 353.0000 1.0000
45.9700 361.0000 1.0000
45.9800 345.0000 1.0000
45.9900 363.0000 1.0000
46.0000 349.0000 1.0000
46.0100 337.0000 1.0000
46.0200 361.0000 1.0000
46.0300 372.0000 1.0000
46.0400 354.0000 1.0000
46.0500 325.0000 1.0000
46.0600 341.0000 1.0000
46.0700 349.0000 1.0000
46.0800 368.0000 1.0000
46.0900 367.0000 1.0000
46.1000 352.0000 1.0000
46.1100 347.0000 1.0000
46.1200 334.0000 1.0000
46.1300 349.0000 1.0000
46.1400 327.0000 1.0000
46.1500 359.0000 1.0000
46.1600 329.0000 1.0000
46.1700 355.0000 1.0000
46.1800 383.0000 1.0000
46.1900 333.0000 1.0000
46.2000 344.0000 1.0000
46.2100 318.0000 1.0000
46.2200 358.0000 1.0000
46.2300 345.0000 1.0000
46.2400 361.0000 1.0000
46.2500 340.0000 1.0000
46.2600 351.0000 1.0000
46.2700 353.0000 1.0000
46.2800 351.0000 1.0000
46.2900 329.0000 1.0000
46.3000 335.0000 1.0000
46.3100 316.0000 1.0000
46.3200 334.0000 1.0000
46.3300 338.0000 1.0000
46.3400 339.0000 1.0000
46.3500 350.0000 1.0000
46.3600 348.0000 1.0000
46.3700 337.0000 1.0000
46.3800 328.0000 1.0000
46.3900 339.0000 1.0000
46.4000 342.0000 1.0000
46.4100 337.0000 1.0000
46.4200 329.0000 1.0000
46.4300 364.0000 1.0000
46.4400 354.0000 1.0000
46.4500 353.0000 1.0000
46.4600 340.0000 1.0000
46.4700 365.0000 1.0000
46.4800 304.0000 1.0000
46.4900 343.0000 1.0000
46.5000 341.0000 1.0000
46.5100 334.0000 1.0000
46.5200 347.0000 1.0000
46.5300 343.0000 1.0000
46.5400 347.0000 1.0000
46.5500 354.0000 1.0000
46.5600 356.0000 1.0000
46.5700 330.0000 1.0000
46.5800 341.0000 1.0000
46.5900 347.0000 1.0000
46.6000 365.0000 1.0000
46.6100 360.0000 1.0000
46.6200 337.0000 1.0000
46.6300 341.0000 1.0000
46.6400 360.0000 1.0000
46.6500 325.0000 1.0000
46.6600 358.0000 1.0000
46.6700 320.0000 1.0000
46.6800 315.0000 1.0000
46.6900 372.0000 1.0000
46.7000 361.0000 1.0000
46.7100 346.0000 1.0000
46.7200 338.0000 1.0000
46.7300 332.0000 1.0000
46.7400 310.0000 1.0000
46.7500 368.0000 1.0000
46.7600 376.0000 1.0000
46.7700 358.0000 1.0000
46.7800 353.0000 1.0000
46.7900 354.0000 1.0000
46.8000 350.0000 1.0000
46.8100 337.0000 1.0000
46.8200 320.0000 1.0000
46.8300 351.0000 1.0000
46.8400 363.0000 1.0000
46.8500 348.0000 1.0000
46.8600 333.0000 1.0000
46.8700 329.0000 1.0000
46.8800 345.0000 1.0000
46.8900 337.0000 1.0000
46.9000 345.0000 1.0000
46.9100 336.0000 1.0000
46.9200 312.0000 1.0000
46.9300 342.0000 1.0000
46.9400 359.0000 1.0000
46.9500 350.0000 1.0000
46.9600 372.0000 1.0000
46.9700 383.0000 1.0000
46.9800 337.0000 1.0000
46.9900 365.0000 1.0000
47.0000 368.0000 1.0000
47.0100 362.0000 1.0000
47.0200 351.0000 1.0000
47.0300 359.0000 1.0000
47.0400 347.0000 1.0000
47.0500 339.0000 1.0000
47.0600 361.0000 1.0000
47.0700 344.0000 1.0000
47.0800 355.0000 1.0000
47.0900 330.0000 1.0000
47.1000 335.0000 1.0000
47.1100 347.0000 1.0000
47.1200 353.0000 1.0000
47.1300 368.0000 1.0000
47.1400 315.0000 1.0000
47.1500 349.0000 1.0000
47.1600 336.0000 1.0000
47.1700 359.0000 1.0000
47.1800 338.0000 1.0000
47.1900 334.0000 1.0000
47.2000 341.0000 1.0000
47.2100 338.0000 1.0000
47.2200 368.0000 1.0000
47.2300 347.0000 1.0000
47.2400 359.0000 1.0000
47.2500 349.0000 1.0000
47.2600 342.0000 1.0000
47.2700 333.0000 1.0000
47.2800 337.0000 1.0000
47.2900 350.0000 1.0000
47.3000 311.0000 1.0000
47.3100 298.0000 1.0000
47.3200 326.0000 1.0000
47.3300 335.0000 1.0000
47.3400 329.0000 1.0000
47.3500 335.0000 1.0000
47.3600 318.0000 1.0000
47.3700 329.0000 1.0000
47.3800 332.0000 1.0000
47.3900 304.0000 1.0000
47.4000 330.0000 1.0000
47.4100 288.0000 1.0000
47.4200 332.0000 1.0000
47.4300 335.0000 1.0000
47.4400 345.0000 1.0000
47.4500 347.0000 1.0000
47.4600 354.0000 1.0000
47.4700 366.0000 1.0000
47.4800 331.0000 1.0000
47.4900 324.0000 1.0000
47.5000 356.0000 1.0000
47.5100 337.0000 1.0000
47.5200 303.0000 1.0000
47.5300 338.0000 1.0000
47.5400 335.0000 1.0000
47.5500 329.0000 1.0000
47.5600 367.0000 1.0000
47.5700 339.0000 1.0000
47.5800 308.0000 1.0000
47.5900 320.0000 1.0000
47.6000 324.0000 1.0000
47.6100 343.0000 1.0000
47.6200 340.0000 1.0000
47.6300 341.0000 1.0000
47.6400 341.0000 1.0000
47.6500 304.0000 1.0000
47.6600 311.0000 1.0000
47.6700 322.0000 1.0000
47.6800 315.0000 1.0000
47.6900 316.0000 1.0000
47.7000 353.0000 1.0000
47.7100 343.0000 1.0000
47.7200 347.0000 1.0000
47.7300 335.0000 1.0000
47.7400 344.0000 1.0000
47.7500 350.0000 1.0000
47.7600 350.0000 1.0000
47.7700 332.0000 1.0000
47.7800 352.0000 1.0000
47.7900 353.0000 1.0000
47.8000 357.0000 1.0000
47.8100 347.0000 1.0000
47.8200 355.0000 1.0000
47.8300 349.0000 1.0000
47.8400 326.0000 1.0000
47.8500 322.0000 1.0000
47.8600 321.0000 1.0000
47.8700 336.0000 1.0000
47.8800 347.0000 1.0000
47.8900 323.0000 1.0000
47.9000 338.0000 1.0000
47.9100 295.0000 1.0000
47.9200 345.0000 1.0000
47.9300 324.0000 1.0000
47.9400 363.0000 1.0000
47.9500 361.0000 1.0000
47.9600 298.0000 1.0000
47.9700 331.0000 1.0000
47.9800 344.0000 1.0000
47.9900 303.0000 1.0000
48.0000 313.0000 1.0000
48.0100 331.0000 1.0000
48.0200 339.0000 1.0000
48.0300 345.0000 1.0000
48.0400 329.0000 1.0000
48.0500 348.0000 1.0000
48.0600 333.0000 1.0000
48.0700 315.0000 1.0000
48.0800 350.0000 1.0000
48.0900 334.0000 1.0000
48.1000 329.0000 1.0000
48.1100 342.0000 1.0000
48.1200 344.0000 1.0000
48.1300 322.0000 1.0000
48.1400 328.0000 1.0000
48.1500 322.0000 1.0000
48.1600 338.0000 1.0000
48.1700 342.0000 1.0000
48.1800 334.0000 1.0000
48.1900 310.0000 1.0000
48.2000 312.0000 1.0000
48.2100 347.0000 1.0000
48.2200 366.0000 1.0000
48.2300 340.0000 1.0000
48.2400 355.0000 1.0000
48.2500 330.0000 1.0000
48.2600 321.0000 1.0000
48.2700 316.0000 1.0000
48.2800 330.0000 1.0000
48.2900 314.0000 1.0000
48.3000 330.0000 1.0000
48.3100 318.0000 1.0000
48.3200 338.0000 1.0000
48.3300 335.0000 1.0000
48.3400 317.0000 1.0000
48.3500 309.0000 1.0000
48.3600 307.0000 1.0000
48.3700 326.0000 1.0000
48.3800 330.0000 1.0000
48.3900 310.0000 1.0000
48.4000 340.0000 1.0000
48.4100 336.0000 1.0000
48.4200 349.0000 1.0000
48.4300 349.0000 1.0000
48.4400 312.0000 1.0000
48.4500 344.0000 1.0000
48.4600 308.0000 1.0000
48.4700 335.0000 1.0000
48.4800 334.0000 1.0000
48.4900 301.0000 1.0000
48.5000 333.0000 1.0000
48.5100 338.0000 1.0000
48.5200 310.0000 1.0000
48.5300 341.0000 1.0000
48.5400 328.0000 1.0000
48.5500 342.0000 1.0000
48.5600 308.0000 1.0000
48.5700 331.0000 1.0000
48.5800 340.0000 1.0000
48.5900 343.0000 1.0000
48.6000 328.0000 1.0000
48.6100 314.0000 1.0000
48.6200 319.0000 1.0000
48.6300 340.0000 1.0000
48.6400 335.0000 1.0000
48.6500 309.0000 1.0000
48.6600 313.0000 1.0000
48.6700 317.0000 1.0000
48.6800 328.0000 1.0000
48.6900 357.0000 1.0000
48.7000 305.0000 1.0000
48.7100 349.0000 1.0000
48.7200 358.0000 1.0000
48.7300 327.0000 1.0000
48.7400 331.0000 1.0000
48.7500 326.0000 1.0000
48.7600 341.0000 1.0000
48.7700 315.0000 1.0000
48.7800 307.0000 1.0000
48.7900 343.0000 1.0000
48.8000 307.0000 1.0000
48.8100 343.0000 1.0000
48.8200 336.0000 1.0000
48.8300 317.0000 1.0000
48.8400 331.0000 1.0000
48.8500 345.0000 1.0000
48.8600 342.0000 1.0000
48.8700 324.0000 1.0000
48.8800 332.0000 1.0000
48.8900 345.0000 1.0000
48.9000 348.0000 1.0000
48.9100 337.0000 1.0000
48.9200 316.0000 1.0000
48.9300 323.0000 1.0000
48.9400 342.0000 1.0000
48.9500 357.0000 1.0000
48.9600 315.0000 1.0000
48.9700 307.0000 1.0000
48.9800 352.0000 1.0000
48.9900 351.0000 1.0000
49.0000 334.0000 1.0000
49.0100 331.0000 1.0000
49.0200 317.0000 1.0000
49.0300 327.0000 1.0000
49.0400 325.0000 1.0000
49.0500 338.0000 1.0000
49.0600 332.0000 1.0000
49.0700 326.0000 1.0000
49.0800 335.0000 1.0000
49.0900 304.0000 1.0000
49.1000 321.0000 1.0000
49.1100 318.0000 1.0000
49.1200 303.0000 1.0000
49.1300 327.0000 1.0000
49.1400 334.0000 1.0000
49.1500 303.0000 1.0000
49.1600 290.0000 1.0000
49.1700 306.0000 1.0000
49.1800 327.0000 1.0000
49.1900 329.0000 1.0000
49.2000 310.0000 1.0000
49.2100 294.0000 1.0000
49.2200 336.0000 1.0000
49.2300 308.0000 1.0000
49.2400 318.0000 1.0000
49.2500 312.0000 1.0000
49.2600 307.0000 1.0000
49.2700 338.0000 1.0000
49.2800 330.0000 1.0000
49.2900 320.0000 1.0000
49.3000 332.0000 1.0000
49.3100 321.0000 1.0000
49.3200 325.0000 1.0000
49.3300 312.0000 1.0000
49.3400 315.0000 1.0000
49.3500 330.0000 1.0000
49.3600 329.0000 1.0000
49.3700 339.0000 1.0000
49.3800 322.0000 1.0000
49.3900 330.0000 1.0000
49.4000 322.0000 1.0000
49.4100 316.0000 1.0000
49.4200 331.0000 1.0000
49.4300 324.0000 1.0000
49.4400 316.0000 1.0000
49.4500 304.0000 1.0000
49.4600 318.0000 1.0000
49.4700 322.0000 1.0000
49.4800 314.0000 1.0000
49.4900 327.0000 1.0000
49.5000 343.0000 1.0000
49.5100 322.0000 1.0000
49.5200 317.0000 1.0000
49.5300 307.0000 1.0000
49.5400 299.0000 1.0000
49.5500 341.0000 1.0000
49.5600 327.0000 1.0000
49.5700 286.0000 1.0000
49.5800 312.0000 1.0000
49.5900 303.0000 1.0000
49.6000 334.0000 1.0000
49.6100 317.0000 1.0000
49.6200 320.0000 1.0000
49.6300 301.0000 1.0000
49.6400 303.0000 1.0000
49.6500 330.0000 1.0000
49.6600 324.0000 1.0000
49.6700 325.0000 1.0000
49.6800 332.0000 1.0000
49.6900 330.0000 1.0000
49.7000 324.0000 1.0000
49.7100 300.0000 1.0000
49.7200 313.0000 1.0000
49.7300 317.0000 1.0000
49.7400 346.0000 1.0000
49.7500 339.0000 1.0000
49.7600 304.0000 1.0000
49.7700 316.0000 1.0000
49.7800 318.0000 1.0000
49.7900 320.0000 1.0000
49.8000 312.0000 1.0000
49.8100 315.0000 1.0000
49.8200 319.0000 1.0000
49.8300 307.0000 1.0000
49.8400 329.0000 1.0000
49.8500 325.0000 1.0000
49.8600 310.0000 1.0000
49.8700 327.0000 1.0000
49.8800 307.0000 1.0000
49.8900 301.0000 1.0000
49.9000 313.0000 1.0000
49.9100 331.0000 1.0000
49.9200 318.0000 1.0000
49.9300 336.0000 1.0000
49.9400 360.0000 1.0000
49.9500 335.0000 1.0000
49.9600 353.0000 1.0000
49.9700 339.0000 1.0000
49.9800 334.0000 1.0000
49.9900 337.0000 1.0000
50.0000 317.0000 1.0000
50.0100 309.0000 1.0000
50.0200 324.0000 1.0000
50.0300 338.0000 1.0000
50.0400 338.0000 1.0000
50.0500 293.0000 1.0000
50.0600 318.0000 1.0000
50.0700 312.0000 1.0000
50.0800 337.0000 1.0000
50.0900 326.0000 1.0000
50.1000 334.0000 1.0000
50.1100 317.0000 1.0000
50.1200 346.0000 1.0000
50.1300 313.0000 1.0000
50.1400 331.0000 1.0000
50.1500 347.0000 1.0000
50.1600 322.0000 1.0000
50.1700 343.0000 1.0000
50.1800 353.0000 1.0000
50.1900 353.0000 1.0000
50.2000 331.0000 1.0000
50.2100 318.0000 1.0000
50.2200 333.0000 1.0000
50.2300 337.0000 1.0000
50.2400 321.0000 1.0000
50.2500 339.0000 1.0000
50.2600 311.0000 1.0000
50.2700 320.0000 1.0000
50.2800 334.0000 1.0000
50.2900 326.0000 1.0000
50.3000 321.0000 1.0000
50.3100 347.0000 1.0000
50.3200 342.0000 1.0000
50.3300 355.0000 1.0000
50.3400 359.0000 1.0000
50.3500 328.0000 1.0000
50.3600 314.0000 1.0000
50.3700 316.0000 1.0000
50.3800 322.0000 1.0000
50.3900 346.0000 1.0000
50.4000 350.0000 1.0000
50.4100 340.0000 1.0000
50.4200 310.0000 1.0000
50.4300 315.0000 1.0000
50.4400 306.0000 1.0000
50.4500 358.0000 1.0000
50.4600 327.0000 1.0000
50.4700 327.0000 1.0000
50.4800 342.0000 1.0000
50.4900 326.0000 1.0000
50.5000 353.0000 1.0000
50.5100 319.0000 1.0000
50.5200 287.0000 1.0000
50.5300 317.0000 1.0000
50.5400 326.0000 1.0000
50.5500 309.0000 1.0000
50.5600 332.0000 1.0000
50.5700 351.0000 1.0000
50.5800 320.0000 1.0000
50.5900 310.0000 1.0000
50.6000 342.0000 1.0000
50.6100 351.0000 1.0000
50.6200 332.0000 1.0000
50.6300 314.0000 1.0000
50.6400 307.0000 1.0000
50.6500 310.0000 1.0000
50.6600 313.0000 1.0000
50.6700 333.0000 1.0000
50.6800 341.0000 1.0000
50.6900 311.0000 1.0000
50.7000 343.0000 1.0000
50.7100 337.0000 1.0000
50.7200 329.0000 1.0000
50.7300 328.0000 1.0000
50.7400 327.0000 1.0000
50.7500 330.0000 1.0000
50.7600 299.0000 1.0000
50.7700 302.0000 1.0000
50.7800 341.0000 1.0000
50.7900 306.0000 1.0000
50.8000 328.0000 1.0000
50.8100 330.0000 1.0000
50.8200 344.0000 1.0000
50.8300 335.0000 1.0000
50.8400 317.0000 1.0000
50.8500 354.0000 1.0000
50.8600 313.0000 1.0000
50.8700 297.0000 1.0000
50.8800 307.0000 1.0000
50.8900 317.0000 1.0000
50.9000 310.0000 1.0000
50.9100 331.0000 1.0000
50.9200 337.0000 1.0000
50.9300 342.0000 1.0000
50.9400 321.0000 1.0000
50.9500 330.0000 1.0000
50.9600 340.0000 1.0000
50.9700 345.0000 1.0000
50.9800 334.0000 1.0000
50.9900 352.0000 1.0000
51.0000 317.0000 1.0000
51.0100 328.0000 1.0000
51.0200 322.0000 1.0000
51.0300 349.0000 1.0000
51.0400 331.0000 1.0000
51.0500 345.0000 1.0000
51.0600 310.0000 1.0000
51.0700 323.0000 1.0000
51.0800 334.0000 1.0000
51.0900 325.0000 1.0000
51.1000 324.0000 1.0000
51.1100 341.0000 1.0000
51.1200 344.0000 1.0000
51.1300 340.0000 1.0000
51.1400 325.0000 1.0000
51.1500 331.0000 1.0000
51.1600 334.0000 1.0000
51.1700 332.0000 1.0000
51.1800 314.0000 1.0000
51.1900 321.0000 1.0000
51.2000 320.0000 1.0000
51.2100 339.0000 1.0000
51.2200 312.0000 1.0000
51.2300 308.0000 1.0000
51.2400 339.0000 1.0000
51.2500 341.0000 1.0000
51.2600 309.0000 1.0000
51.2700 304.0000 1.0000
51.2800 318.0000 1.0000
51.2900 298.0000 1.0000
51.3000 339.0000 1.0000
51.3100 328.0000 1.0000
51.3200 348.0000 1.0000
51.3300 314.0000 1.0000
51.3400 321.0000 1.0000
51.3500 360.0000 1.0000
51.3600 320.0000 1.0000
51.3700 323.0000 1.0000
51.3800 309.0000 1.0000
51.3900 328.0000 1.0000
51.4000 308.0000 1.0000
51.4100 348.0000 1.0000
51.4200 328.0000 1.0000
51.4300 326.0000 1.0000
51.4400 341.0000 1.0000
51.4500 339.0000 1.0000
51.4600 339.0000 1.0000
51.4700 342.0000 1.0000
51.4800 332.0000 1.0000
51.4900 297.0000 1.0000
51.5000 328.0000 1.0000
51.5100 341.0000 1.0000
51.5200 325.0000 1.0000
51.5300 340.0000 1.0000
51.5400 331.0000 1.0000
51.5500 343.0000 1.0000
51.5600 354.0000 1.0000
51.5700 362.0000 1.0000
51.5800 345.0000 1.0000
51.5900 363.0000 1.0000
51.6000 353.0000 1.0000
51.6100 337.0000 1.0000
51.6200 351.0000 1.0000
51.6300 389.0000 1.0000
51.6400 341.0000 1.0000
51.6500 353.0000 1.0000
51.6600 343.0000 1.0000
51.6700 354.0000 1.0000
51.6800 343.0000 1.0000
51.6900 339.0000 1.0000
51.7000 321.0000 1.0000
51.7100 318.0000 1.0000
51.7200 342.0000 1.0000
51.7300 334.0000 1.0000
51.7400 316.0000 1.0000
51.7500 358.0000 1.0000
51.7600 348.0000 1.0000
51.7700 346.0000 1.0000
51.7800 362.0000 1.0000
51.7900 381.0000 1.0000
51.8000 373.0000 1.0000
51.8100 364.0000 1.0000
51.8200 371.0000 1.0000
51.8300 329.0000 1.0000
51.8400 355.0000 1.0000
51.8500 357.0000 1.0000
51.8600 356.0000 1.0000
51.8700 354.0000 1.0000
51.8800 349.0000 1.0000
51.8900 393.0000 1.0000
51.9000 363.0000 1.0000
51.9100 380.0000 1.0000
51.9200 429.0000 1.0000
51.9300 420.0000 1.0000
51.9400 436.0000 1.0000
51.9500 486.0000 1.0000
51.9600 439.0000 1.0000
51.9700 470.0000 1.0000
51.9800 511.0000 1.0000
51.9900 476.0000 1.0000
52.0000 525.0000 1.0000
52.0100 484.0000 1.0000
52.0200 511.0000 1.0000
52.0300 570.0000 1.0000
52.0400 573.0000 1.0000
52.0500 631.0000 1.0000
52.0600 603.0000 1.0000
52.0700 649.0000 1.0000
52.0800 660.0000 1.0000
52.0900 702.0000 1.0000
52.1000 698.0000 1.0000
52.1100 773.0000 1.0000
52.1200 765.0000 1.0000
52.1300 861.0000 1.0000
52.1400 920.0000 1.0000
52.1500 1055.0000 1.0000
52.1600 1095.0000 1.0000
52.1700 1173.0000 1.0000
52.1800 1293.0000 1.0000
52.1900 1402.0000 1.0000
52.2000 1567.0000 1.0000
52.2100 1639.0000 1.0000
52.2200 1809.0000 1.0000
52.2300 1948.0000 1.0000
52.2400 2081.0000 1.0000
52.2500 2146.0000 1.0000
52.2600 2230.0000 1.0000
52.2700 2279.0000 1.0000
52.2800 2394.0000 1.0000
52.2900 2410.0000 1.0000
52.3000 2290.0000 1.0000
52.3100 2270.0000 1.0000
52.3200 2327.0000 1.0000
52.3300 2318.0000 1.0000
52.3400 2154.0000 1.0000
52.3500 2063.0000 1.0000
52.3600 2022.0000 1.0000
52.3700 1959.0000 1.0000
52.3800 2002.0000 1.0000
52.3900 1791.0000 1.0000
52.4000 1710.0000 1.0000
52.4100 1753.0000 1.0000
52.4200 1823.0000 1.0000
52.4300 1668.0000 1.0000
52.4400 1618.0000 1.0000
52.4500 1568.0000 1.0000
52.4600 1480.0000 1.0000
52.4700 1391.0000 1.0000
52.4800 1219.0000 1.0000
52.4900 1131.0000 1.0000
52.5000 1037.0000 1.0000
52.5100 1002.0000 1.0000
52.5200 894.0000 1.0000
52.5300 820.0000 1.0000
52.5400 800.0000 1.0000
52.5500 754.0000 1.0000
52.5600 734.0000 1.0000
52.5700 675.0000 1.0000
52.5800 661.0000 1.0000
52.5900 633.0000 1.0000
52.6000 630.0000 1.0000
52.6100 585.0000 1.0000
52.6200 575.0000 1.0000
52.6300 536.0000 1.0000
52.6400 512.0000 1.0000
52.6500 518.0000 1.0000
52.6600 484.0000 1.0000
52.6700 463.0000 1.0000
52.6800 500.0000 1.0000
52.6900 447.0000 1.0000
52.7000 430.0000 1.0000
52.7100 402.0000 1.0000
52.7200 433.0000 1.0000
52.7300 434.0000 1.0000
52.7400 424.0000 1.0000
52.7500 405.0000 1.0000
52.7600 417.0000 1.0000
52.7700 416.0000 1.0000
52.7800 398.0000 1.0000
52.7900 415.0000 1.0000
52.8000 409.0000 1.0000
52.8100 419.0000 1.0000
52.8200 366.0000 1.0000
52.8300 386.0000 1.0000
52.8400 357.0000 1.0000
52.8500 372.0000 1.0000
52.8600 358.0000 1.0000
52.8700 345.0000 1.0000
52.8800 361.0000 1.0000
52.8900 357.0000 1.0000
52.9000 359.0000 1.0000
52.9100 338.0000 1.0000
52.9200 348.0000 1.0000
52.9300 350.0000 1.0000
52.9400 366.0000 1.0000
52.9500 353.0000 1.0000
52.9600 373.0000 1.0000
52.9700 357.0000 1.0000
52.9800 348.0000 1.0000
52.9900 383.0000 1.0000
53.0000 360.0000 1.0000
53.0100 374.0000 1.0000
53.0200 375.0000 1.0000
53.0300 331.0000 1.0000
53.0400 356.0000 1.0000
53.0500 353.0000 1.0000
53.0600 367.0000 1.0000
53.0700 346.0000 1.0000
53.0800 344.0000 1.0000
53.0900 337.0000 1.0000
53.1000 347.0000 1.0000
53.1100 343.0000 1.0000
53.1200 343.0000 1.0000
53.1300 374.0000 1.0000
53.1400 363.0000 1.0000
53.1500 311.0000 1.0000
53.1600 338.0000 1.0000
53.1700 329.0000 1.0000
53.1800 330.0000 1.0000
53.1900 326.0000 1.0000
53.2000 333.0000 1.0000
53.2100 345.0000 1.0000
53.2200 326.0000 1.0000
53.2300 316.0000 1.0000
53.2400 303.0000 1.0000
53.2500 330.0000 1.0000
53.2600 340.0000 1.0000
53.2700 332.0000 1.0000
53.2800 348.0000 1.0000
53.2900 321.0000 1.0000
53.3000 345.0000 1.0000
53.3100 319.0000 1.0000
53.3200 312.0000 1.0000
53.3300 345.0000 1.0000
53.3400 321.0000 1.0000
53.3500 287.0000 1.0000
53.3600 326.0000 1.0000
53.3700 320.0000 1.0000
53.3800 335.0000 1.0000
53.3900 305.0000 1.0000
53.4000 317.0000 1.0000
53.4100 341.0000 1.0000
53.4200 337.0000 1.0000
53.4300 315.0000 1.0000
53.4400 321.0000 1.0000
53.4500 320.0000 1.0000
53.4600 328.0000 1.0000
53.4700 326.0000 1.0000
53.4800 327.0000 1.0000
53.4900 339.0000 1.0000
53.5000 340.0000 1.0000
53.5100 288.0000 1.0000
53.5200 303.0000 1.0000
53.5300 321.0000 1.0000
53.5400 320.0000 1.0000
53.5500 315.0000 1.0000
53.5600 309.0000 1.0000
53.5700 318.0000 1.0000
53.5800 342.0000 1.0000
53.5900 315.0000 1.0000
53.6000 295.0000 1.0000
53.6100 320.0000 1.0000
53.6200 328.0000 1.0000
53.6300 323.0000 1.0000
53.6400 357.0000 1.0000
53.6500 326.0000 1.0000
53.6600 327.0000 1.0000
53.6700 317.0000 1.0000
53.6800 310.0000 1.0000
53.6900 332.0000 1.0000
53.7000 315.0000 1.0000
53.7100 351.0000 1.0000
53.7200 324.0000 1.0000
53.7300 297.0000 1.0000
53.7400 321.0000 1.0000
53.7500 313.0000 1.0000
53.7600 335.0000 1.0000
53.7700 320.0000 1.0000
53.7800 333.0000 1.0000
53.7900 300.0000 1.0000
53.8000 322.0000 1.0000
53.8100 327.0000 1.0000
53.8200 362.0000 1.0000
53.8300 324.0000 1.0000
53.8400 337.0000 1.0000
53.8500 310.0000 1.0000
53.8600 329.0000 1.0000
53.8700 311.0000 1.0000
53.8800 326.0000 1.0000
53.8900 312.0000 1.0000
53.9000 293.0000 1.0000
53.9100 315.0000 1.0000
53.9200 340.0000 1.0000
53.9300 293.0000 1.0000
53.9400 319.0000 1.0000
53.9500 313.0000 1.0000
53.9600 305.0000 1.0000
53.9700 319.0000 1.0000
53.9800 308.0000 1.0000
53.9900 317.0000 1.0000
54.0000 343.0000 1.0000
54.0100 330.0000 1.0000
54.0200 314.0000 1.0000
54.0300 338.0000 1.0000
54.0400 298.0000 1.0000
54.0500 309.0000 1.0000
54.0600 333.0000 1.0000
54.0700 323.0000 1.0000
54.0800 322.0000 1.0000
54.0900 322.0000 1.0000
54.1000 323.0000 1.0000
54.1100 304.0000 1.0000
54.1200 338.0000 1.0000
54.1300 319.0000 1.0000
54.1400 296.0000 1.0000
54.1500 350.0000 1.0000
54.1600 306.0000 1.0000
54.1700 332.0000 1.0000
54.1800 319.0000 1.0000
54.1900 292.0000 1.0000
54.2000 329.0000 1.0000
54.2100 304.0000 1.0000
54.2200 322.0000 1.0000
54.2300 303.0000 1.0000
54.2400 319.0000 1.0000
54.2500 328.0000 1.0000
54.2600 303.0000 1.0000
54.2700 301.0000 1.0000
54.2800 313.0000 1.0000
54.2900 308.0000 1.0000
54.3000 306.0000 1.0000
54.3100 318.0000 1.0000
54.3200 309.0000 1.0000
54.3300 312.0000 1.0000
54.3400 331.0000 1.0000
54.3500 353.0000 1.0000
54.3600 340.0000 1.0000
54.3700 320.0000 1.0000
54.3800 308.0000 1.0000
54.3900 296.0000 1.0000
54.4000 342.0000 1.0000
54.4100 316.0000 1.0000
54.4200 326.0000 1.0000
54.4300 326.0000 1.0000
54.4400 311.0000 1.0000
54.4500 325.0000 1.0000
54.4600 308.0000 1.0000
54.4700 319.0000 1.0000
54.4800 303.0000 1.0000
54.4900 293.0000 1.0000
54.5000 290.0000 1.0000
54.5100 318.0000 1.0000
54.5200 304.0000 1.0000
54.5300 293.0000 1.0000
54.5400 313.0000 1.0000
54.5500 298.0000 1.0000
54.5600 317.0000 1.0000
54.5700 310.0000 1.0000
54.5800 322.0000 1.0000
54.5900 298.0000 1.0000
54.6000 289.0000 1.0000
54.6100 316.0000 1.0000
54.6200 307.0000 1.0000
54.6300 309.0000 1.0000
54.6400 317.0000 1.0000
54.6500 336.0000 1.0000
54.6600 325.0000 1.0000
54.6700 313.0000 1.0000
54.6800 365.0000 1.0000
54.6900 339.0000 1.0000
54.7000 324.0000 1.0000
54.7100 344.0000 1.0000
54.7200 359.0000 1.0000
54.7300 318.0000 1.0000
54.7400 339.0000 1.0000
54.7500 344.0000 1.0000
54.7600 360.0000 1.0000
54.7700 339.0000 1.0000
54.7800 333.0000 1.0000
54.7900 346.0000 1.0000
54.8000 315.0000 1.0000
54.8100 315.0000 1.0000
54.8200 313.0000 1.0000
54.8300 334.0000 1.0000
54.8400 344.0000 1.0000
54.8500 329.0000 1.0000
54.8600 360.0000 1.0000
54.8700 311.0000 1.0000
54.8800 313.0000 1.0000
54.8900 368.0000 1.0000
54.9000 351.0000 1.0000
54.9100 325.0000 1.0000
54.9200 352.0000 1.0000
54.9300 342.0000 1.0000
54.9400 356.0000 1.0000
54.9500 344.0000 1.0000
54.9600 351.0000 1.0000
54.9700 332.0000 1.0000
54.9800 358.0000 1.0000
54.9900 356.0000 1.0000
55.0000 370.0000 1.0000
55.0100 356.0000 1.0000
55.0200 348.0000 1.0000
55.0300 342.0000 1.0000
55.0400 345.0000 1.0000
55.0500 334.0000 1.0000
55.0600 325.0000 1.0000
55.0700 380.0000 1.0000
55.0800 367.0000 1.0000
55.0900 370.0000 1.0000
55.1000 372.0000 1.0000
55.1100 352.0000 1.0000
55.1200 364.0000 1.0000
55.1300 360.0000 1.0000
55.1400 376.0000 1.0000
55.1500 415.0000 1.0000
55.1600 421.0000 1.0000
55.1700 384.0000 1.0000
55.1800 391.0000 1.0000
55.1900 408.0000 1.0000
55.2000 397.0000 1.0000
55.2100 409.0000 1.0000
55.2200 431.0000 1.0000
55.2300 433.0000 1.0000
55.2400 433.0000 1.0000
55.2500 479.0000 1.0000
55.2600 478.0000 1.0000
55.2700 436.0000 1.0000
55.2800 441.0000 1.0000
55.2900 466.0000 1.0000
55.3000 472.0000 1.0000
55.3100 439.0000 1.0000
55.3200 464.0000 1.0000
55.3300 484.0000 1.0000
55.3400 448.0000 1.0000
55.3500 465.0000 1.0000
55.3600 440.0000 1.0000
55.3700 454.0000 1.0000
55.3800 429.0000 1.0000
55.3900 443.0000 1.0000
55.4000 450.0000 1.0000
55.4100 427.0000 1.0000
55.4200 439.0000 1.0000
55.4300 449.0000 1.0000
55.4400 454.0000 1.0000
55.4500 415.0000 1.0000
55.4600 448.0000 1.0000
55.4700 436.0000 1.0000
55.4800 422.0000 1.0000
55.4900 409.0000 1.0000
55.5000 399.0000 1.0000
55.5100 408.0000 1.0000
55.5200 365.0000 1.0000
55.5300 393.0000 1.0000
55.5400 364.0000 1.0000
55.5500 369.0000 1.0000
55.5600 376.0000 1.0000
55.5700 399.0000 1.0000
55.5800 376.0000 1.0000
55.5900 351.0000 1.0000
55.6000 389.0000 1.0000
55.6100 358.0000 1.0000
55.6200 358.0000 1.0000
55.6300 313.0000 1.0000
55.6400 365.0000 1.0000
55.6500 300.0000 1.0000
55.6600 338.0000 1.0000
55.6700 323.0000 1.0000
55.6800 339.0000 1.0000
55.6900 349.0000 1.0000
55.7000 329.0000 1.0000
55.7100 308.0000 1.0000
55.7200 270.0000 1.0000
55.7300 304.0000 1.0000
55.7400 304.0000 1.0000
55.7500 300.0000 1.0000
55.7600 325.0000 1.0000
55.7700 333.0000 1.0000
55.7800 333.0000 1.0000
55.7900 306.0000 1.0000
55.8000 314.0000 1.0000
55.8100 331.0000 1.0000
55.8200 310.0000 1.0000
55.8300 315.0000 1.0000
55.8400 302.0000 1.0000
55.8500 332.0000 1.0000
55.8600 354.0000 1.0000
55.8700 337.0000 1.0000
55.8800 321.0000 1.0000
55.8900 329.0000 1.0000
55.9000 342.0000 1.0000
55.9100 313.0000 1.0000
55.9200 316.0000 1.0000
55.9300 300.0000 1.0000
55.9400 319.0000 1.0000
55.9500 311.0000 1.0000
55.9600 331.0000 1.0000
55.9700 326.0000 1.0000
55.9800 328.0000 1.0000
55.9900 309.0000 1.0000
56.0000 318.0000 1.0000
56.0100 324.0000 1.0000
56.0200 324.0000 1.0000
56.0300 306.0000 1.0000
56.0400 326.0000 1.0000
56.0500 307.0000 1.0000
56.0600 316.0000 1.0000
56.0700 323.0000 1.0000
56.0800 312.0000 1.0000
56.0900 327.0000 1.0000
56.1000 312.0000 1.0000
56.1100 302.0000 1.0000
56.1200 281.0000 1.0000
56.1300 317.0000 1.0000
56.1400 321.0000 1.0000
56.1500 323.0000 1.0000
56.1600 310.0000 1.0000
56.1700 318.0000 1.0000
56.1800 306.0000 1.0000
56.1900 317.0000 1.0000
56.2000 337.0000 1.0000
56.2100 303.0000 1.0000
56.2200 311.0000 1.0000
56.2300 308.0000 1.0000
56.2400 326.0000 1.0000
56.2500 304.0000 1.0000
56.2600 275.0000 1.0000
56.2700 298.0000 1.0000
56.2800 304.0000 1.0000
56.2900 320.0000 1.0000
56.3000 325.0000 1.0000
56.3100 312.0000 1.0000
56.3200 292.0000 1.0000
56.3300 304.0000 1.0000
56.3400 279.0000 1.0000
56.3500 320.0000 1.0000
56.3600 323.0000 1.0000
56.3700 312.0000 1.0000
56.3800 293.0000 1.0000
56.3900 277.0000 1.0000
56.4000 290.0000 1.0000
56.4100 296.0000 1.0000
56.4200 309.0000 1.0000
56.4300 326.0000 1.0000
56.4400 333.0000 1.0000
56.4500 324.0000 1.0000
56.4600 289.0000 1.0000
56.4700 308.0000 1.0000
56.4800 307.0000 1.0000
56.4900 311.0000 1.0000
56.5000 307.0000 1.0000
56.5100 311.0000 1.0000
56.5200 324.0000 1.0000
56.5300 318.0000 1.0000
56.5400 336.0000 1.0000
56.5500 306.0000 1.0000
56.5600 282.0000 1.0000
56.5700 308.0000 1.0000
56.5800 291.0000 1.0000
56.5900 323.0000 1.0000
56.6000 319.0000 1.0000
56.6100 282.0000 1.0000
56.6200 296.0000 1.0000
56.6300 323.0000 1.0000
56.6400 279.0000 1.0000
56.6500 318.0000 1.0000
56.6600 299.0000 1.0000
56.6700 279.0000 1.0000
56.6800 311.0000 1.0000
56.6900 267.0000 1.0000
56.7000 282.0000 1.0000
56.7100 305.0000 1.0000
56.7200 324.0000 1.0000
56.7300 327.0000 1.0000
56.7400 295.0000 1.0000
56.7500 293.0000 1.0000
56.7600 284.0000 1.0000
56.7700 311.0000 1.0000
56.7800 304.0000 1.0000
56.7900 274.0000 1.0000
56.8000 302.0000 1.0000
56.8100 303.0000 1.0000
56.8200 297.0000 1.0000
56.8300 324.0000 1.0000
56.8400 315.0000 1.0000
56.8500 286.0000 1.0000
56.8600 299.0000 1.0000
56.8700 304.0000 1.0000
56.8800 314.0000 1.0000
56.8900 310.0000 1.0000
56.9000 304.0000 1.0000
56.9100 304.0000 1.0000
56.9200 307.0000 1.0000
56.9300 288.0000 1.0000
56.9400 310.0000 1.0000
56.9500 290.0000 1.0000
56.9600 306.0000 1.0000
56.9700 276.0000 1.0000
56.9800 280.0000 1.0000
56.9900 325.0000 1.0000
57.0000 306.0000 1.0000
57.0100 298.0000 1.0000
57.0200 306.0000 1.0000
57.0300 318.0000 1.0000
57.0400 319.0000 1.0000
57.0500 309.0000 1.0000
57.0600 332.0000 1.0000
57.0700 296.0000 1.0000
57.0800 321.0000 1.0000
57.0900 273.0000 1.0000
57.1000 304.0000 1.0000
57.1100 286.0000 1.0000
57.1200 278.0000 1.0000
57.1300 314.0000 1.0000
57.1400 315.0000 1.0000
57.1500 311.0000 1.0000
57.1600 299.0000 1.0000
57.1700 301.0000 1.0000
57.1800 302.0000 1.0000
57.1900 316.0000 1.0000
57.2000 311.0000 1.0000
57.2100 317.0000 1.0000
57.2200 321.0000 1.0000
57.2300 290.0000 1.0000
57.2400 296.0000 1.0000
57.2500 291.0000 1.0000
57.2600 331.0000 1.0000
57.2700 337.0000 1.0000
57.2800 307.0000 1.0000
57.2900 308.0000 1.0000
57.3000 284.0000 1.0000
57.3100 282.0000 1.0000
57.3200 302.0000 1.0000
57.3300 291.0000 1.0000
57.3400 290.0000 1.0000
57.3500 296.0000 1.0000
57.3600 293.0000 1.0000
57.3700 324.0000 1.0000
57.3800 302.0000 1.0000
57.3900 306.0000 1.0000
57.4000 301.0000 1.0000
57.4100 310.0000 1.0000
57.4200 309.0000 1.0000
57.4300 285.0000 1.0000
57.4400 316.0000 1.0000
57.4500 321.0000 1.0000
57.4600 288.0000 1.0000
57.4700 277.0000 1.0000
57.4800 292.0000 1.0000
57.4900 312.0000 1.0000
57.5000 304.0000 1.0000
57.5100 289.0000 1.0000
57.5200 303.0000 1.0000
57.5300 320.0000 1.0000
57.5400 290.0000 1.0000
57.5500 297.0000 1.0000
57.5600 302.0000 1.0000
57.5700 308.0000 1.0000
57.5800 292.0000 1.0000
57.5900 301.0000 1.0000
57.6000 288.0000 1.0000
57.6100 290.0000 1.0000
57.6200 272.0000 1.0000
57.6300 290.0000 1.0000
57.6400 307.0000 1.0000
57.6500 317.0000 1.0000
57.6600 329.0000 1.0000
57.6700 322.0000 1.0000
57.6800 316.0000 1.0000
57.6900 293.0000 1.0000
57.7000 303.0000 1.0000
57.7100 315.0000 1.0000
57.7200 320.0000 1.0000
57.7300 315.0000 1.0000
57.7400 312.0000 1.0000
57.7500 317.0000 1.0000
57.7600 307.0000 1.0000
57.7700 328.0000 1.0000
57.7800 291.0000 1.0000
57.7900 275.0000 1.0000
57.8000 316.0000 1.0000
57.8100 338.0000 1.0000
57.8200 305.0000 1.0000
57.8300 280.0000 1.0000
57.8400 302.0000 1.0000
57.8500 315.0000 1.0000
57.8600 282.0000 1.0000
57.8700 289.0000 1.0000
57.8800 293.0000 1.0000
57.8900 341.0000 1.0000
57.9000 301.0000 1.0000
57.9100 299.0000 1.0000
57.9200 306.0000 1.0000
57.9300 301.0000 1.0000
57.9400 300.0000 1.0000
57.9500 293.0000 1.0000
57.9600 311.0000 1.0000
57.9700 346.0000 1.0000
57.9800 314.0000 1.0000
57.9900 295.0000 1.0000
58.0000 284.0000 1.0000
58.0100 292.0000 1.0000
58.0200 320.0000 1.0000
58.0300 309.0000 1.0000
58.0400 281.0000 1.0000
58.0500 285.0000 1.0000
58.0600 313.0000 1.0000
58.0700 323.0000 1.0000
58.0800 308.0000 1.0000
58.0900 324.0000 1.0000
58.1000 321.0000 1.0000
58.1100 299.0000 1.0000
58.1200 317.0000 1.0000
58.1300 319.0000 1.0000
58.1400 320.0000 1.0000
58.1500 280.0000 1.0000
58.1600 296.0000 1.0000
58.1700 323.0000 1.0000
58.1800 308.0000 1.0000
58.1900 300.0000 1.0000
58.2000 315.0000 1.0000
58.2100 294.0000 1.0000
58.2200 330.0000 1.0000
58.2300 316.0000 1.0000
58.2400 325.0000 1.0000
58.2500 315.0000 1.0000
58.2600 327.0000 1.0000
58.2700 308.0000 1.0000
58.2800 318.0000 1.0000
58.2900 302.0000 1.0000
58.3000 291.0000 1.0000
58.3100 307.0000 1.0000
58.3200 310.0000 1.0000
58.3300 291.0000 1.0000
58.3400 325.0000 1.0000
58.3500 325.0000 1.0000
58.3600 274.0000 1.0000
58.3700 293.0000 1.0000
58.3800 302.0000 1.0000
58.3900 309.0000 1.0000
58.4000 281.0000 1.0000
58.4100 310.0000 1.0000
58.4200 301.0000 1.0000
58.4300 313.0000 1.0000
58.4400 331.0000 1.0000
58.4500 316.0000 1.0000
58.4600 299.0000 1.0000
58.4700 329.0000 1.0000
58.4800 287.0000 1.0000
58.4900 301.0000 1.0000
58.5000 307.0000 1.0000
58.5100 292.0000 1.0000
58.5200 303.0000 1.0000
58.5300 286.0000 1.0000
58.5400 295.0000 1.0000
58.5500 305.0000 1.0000
58.5600 296.0000 1.0000
58.5700 320.0000 1.0000
58.5800 276.0000 1.0000
58.5900 276.0000 1.0000
58.6000 299.0000 1.0000
58.6100 297.0000 1.0000
58.6200 313.0000 1.0000
58.6300 286.0000 1.0000
58.6400 290.0000 1.0000
58.6500 309.0000 1.0000
58.6600 278.0000 1.0000
58.6700 287.0000 1.0000
58.6800 304.0000 1.0000
58.6900 325.0000 1.0000
58.7000 297.0000 1.0000
58.7100 290.0000 1.0000
58.7200 315.0000 1.0000
58.7300 298.0000 1.0000
58.7400 316.0000 1.0000
58.7500 297.0000 1.0000
58.7600 311.0000 1.0000
58.7700 310.0000 1.0000
58.7800 319.0000 1.0000
58.7900 304.0000 1.0000
58.8000 321.0000 1.0000
58.8100 301.0000 1.0000
58.8200 306.0000 1.0000
58.8300 307.0000 1.0000
58.8400 317.0000 1.0000
58.8500 300.0000 1.0000
58.8600 304.0000 1.0000
58.8700 293.0000 1.0000
58.8800 305.0000 1.0000
58.8900 299.0000 1.0000
58.9000 290.0000 1.0000
58.9100 268.0000 1.0000
58.9200 300.0000 1.0000
58.9300 299.0000 1.0000
58.9400 306.0000 1.0000
58.9500 297.0000 1.0000
58.9600 296.0000 1.0000
58.9700 311.0000 1.0000
58.9800 329.0000 1.0000
58.9900 320.0000 1.0000
59.0000 349.0000 1.0000
59.0100 299.0000 1.0000
59.0200 288.0000 1.0000
59.0300 295.0000 1.0000
59.0400 303.0000 1.0000
59.0500 289.0000 1.0000
59.0600 295.0000 1.0000
59.0700 300.0000 1.0000
59.0800 303.0000 1.0000
59.0900 290.0000 1.0000
59.1000 302.0000 1.0000
59.1100 294.0000 1.0000
59.1200 300.0000 1.0000
59.1300 318.0000 1.0000
59.1400 301.0000 1.0000
59.1500 294.0000 1.0000
59.1600 313.0000 1.0000
59.1700 300.0000 1.0000
59.1800 298.0000 1.0000
59.1900 304.0000 1.0000
59.2000 321.0000 1.0000
59.2100 298.0000 1.0000
59.2200 301.0000 1.0000
59.2300 280.0000 1.0000
59.2400 286.0000 1.0000
59.2500 290.0000 1.0000
59.2600 306.0000 1.0000
59.2700 300.0000 1.0000
59.2800 299.0000 1.0000
59.2900 292.0000 1.0000
59.3000 328.0000 1.0000
59.3100 301.0000 1.0000
59.3200 307.0000 1.0000
59.3300 311.0000 1.0000
59.3400 297.0000 1.0000
59.3500 296.0000 1.0000
59.3600 322.0000 1.0000
59.3700 313.0000 1.0000
59.3800 290.0000 1.0000
59.3900 296.0000 1.0000
59.4000 303.0000 1.0000
59.4100 317.0000 1.0000
59.4200 278.0000 1.0000
59.4300 296.0000 1.0000
59.4400 292.0000 1.0000
59.4500 337.0000 1.0000
59.4600 319.0000 1.0000
59.4700 304.0000 1.0000
59.4800 297.0000 1.0000
59.4900 299.0000 1.0000
59.5000 318.0000 1.0000
59.5100 318.0000 1.0000
59.5200 270.0000 1.0000
59.5300 320.0000 1.0000
59.5400 306.0000 1.0000
59.5500 312.0000 1.0000
59.5600 309.0000 1.0000
59.5700 309.0000 1.0000
59.5800 304.0000 1.0000
59.5900 289.0000 1.0000
59.6000 283.0000 1.0000
59.6100 310.0000 1.0000
59.6200 287.0000 1.0000
59.6300 301.0000 1.0000
59.6400 313.0000 1.0000
59.6500 291.0000 1.0000
59.6600 299.0000 1.0000
59.6700 287.0000 1.0000
59.6800 315.0000 1.0000
59.6900 273.0000 1.0000
59.7000 280.0000 1.0000
59.7100 307.0000 1.0000
59.7200 300.0000 1.0000
59.7300 303.0000 1.0000
59.7400 281.0000 1.0000
59.7500 289.0000 1.0000
59.7600 296.0000 1.0000
59.7700 314.0000 1.0000
59.7800 312.0000 1.0000
59.7900 279.0000 1.0000
59.8000 306.0000 1.0000
59.8100 313.0000 1.0000
59.8200 297.0000 1.0000
59.8300 284.0000 1.0000
59.8400 293.0000 1.0000
59.8500 279.0000 1.0000
59.8600 293.0000 1.0000
59.8700 310.0000 1.0000
59.8800 286.0000 1.0000
59.8900 286.0000 1.0000
59.9000 297.0000 1.0000
59.9100 293.0000 1.0000
59.9200 288.0000 1.0000
59.9300 288.0000 1.0000
59.9400 301.0000 1.0000
59.9500 307.0000 1.0000
59.9600 298.0000 1.0000
59.9700 312.0000 1.0000
59.9800 301.0000 1.0000
59.9900 299.0000 1.0000
60.0000 297.0000 1.0000
60.0100 305.0000 1.0000
60.0200 300.0000 1.0000
60.0300 332.0000 1.0000
60.0400 304.0000 1.0000
60.0500 289.0000 1.0000
60.0600 277.0000 1.0000
60.0700 328.0000 1.0000
60.0800 304.0000 1.0000
60.0900 289.0000 1.0000
60.1000 289.0000 1.0000
60.1100 279.0000 1.0000
60.1200 297.0000 1.0000
60.1300 319.0000 1.0000
60.1400 313.0000 1.0000
60.1500 299.0000 1.0000
60.1600 301.0000 1.0000
60.1700 284.0000 1.0000
60.1800 294.0000 1.0000
60.1900 300.0000 1.0000
60.2000 284.0000 1.0000
60.2100 297.0000 1.0000
60.2200 305.0000 1.0000
60.2300 317.0000 1.0000
60.2400 278.0000 1.0000
60.2500 319.0000 1.0000
60.2600 282.0000 1.0000
60.2700 291.0000 1.0000
60.2800 320.0000 1.0000
60.2900 298.0000 1.0000
60.3000 290.0000 1.0000
60.3100 292.0000 1.0000
60.3200 290.0000 1.0000
60.3300 300.0000 1.0000
60.3400 303.0000 1.0000
60.3500 288.0000 1.0000
60.3600 286.0000 1.0000
60.3700 280.0000 1.0000
60.3800 279.0000 1.0000
60.3900 303.0000 1.0000
60.4000 293.0000 1.0000
60.4100 305.0000 1.0000
60.4200 283.0000 1.0000
60.4300 286.0000 1.0000
60.4400 294.0000 1.0000
60.4500 287.0000 1.0000
60.4600 303.0000 1.0000
60.4700 300.0000 1.0000
60.4800 298.0000 1.0000
60.4900 313.0000 1.0000
60.5000 318.0000 1.0000
60.5100 315.0000 1.0000
60.5200 325.0000 1.0000
60.5300 302.0000 1.0000
60.5400 309.0000 1.0000
60.5500 319.0000 1.0000
60.5600 334.0000 1.0000
60.5700 328.0000 1.0000
60.5800 275.0000 1.0000
60.5900 318.0000 1.0000
60.6000 297.0000 1.0000
60.6100 296.0000 1.0000
60.6200 291.0000 1.0000
60.6300 304.0000 1.0000
60.6400 285.0000 1.0000
60.6500 274.0000 1.0000
60.6600 278.0000 1.0000
60.6700 312.0000 1.0000
60.6800 312.0000 1.0000
60.6900 292.0000 1.0000
60.7000 291.0000 1.0000
60.7100 283.0000 1.0000
60.7200 286.0000 1.0000
60.7300 292.0000 1.0000
60.7400 313.0000 1.0000
60.7500 324.0000 1.0000
60.7600 329.0000 1.0000
60.7700 321.0000 1.0000
60.7800 310.0000 1.0000
60.7900 269.0000 1.0000
60.8000 298.0000 1.0000
60.8100 319.0000 1.0000
60.8200 279.0000 1.0000
60.8300 286.0000 1.0000
60.8400 289.0000 1.0000
60.8500 275.0000 1.0000
60.8600 291.0000 1.0000
60.8700 316.0000 1.0000
60.8800 307.0000 1.0000
60.8900 291.0000 1.0000
60.9000 314.0000 1.0000
60.9100 289.0000 1.0000
60.9200 271.0000 1.0000
60.9300 319.0000 1.0000
60.9400 280.0000 1.0000
60.9500 279.0000 1.0000
60.9600 291.0000 1.0000
60.9700 303.0000 1.0000
60.9800 306.0000 1.0000
60.9900 316.0000 1.0000
61.0000 309.0000 1.0000
61.0100 343.0000 1.0000
61.0200 314.0000 1.0000
61.0300 313.0000 1.0000
61.0400 297.0000 1.0000
61.0500 276.0000 1.0000
61.0600 301.0000 1.0000
61.0700 292.0000 1.0000
61.0800 252.0000 1.0000
61.0900 297.0000 1.0000
61.1000 298.0000 1.0000
61.1100 312.0000 1.0000
61.1200 337.0000 1.0000
61.1300 339.0000 1.0000
61.1400 301.0000 1.0000
61.1500 299.0000 1.0000
61.1600 319.0000 1.0000
61.1700 321.0000 1.0000
61.1800 272.0000 1.0000
61.1900 298.0000 1.0000
61.2000 314.0000 1.0000
61.2100 305.0000 1.0000
61.2200 322.0000 1.0000
61.2300 317.0000 1.0000
61.2400 296.0000 1.0000
61.2500 313.0000 1.0000
61.2600 287.0000 1.0000
61.2700 295.0000 1.0000
61.2800 301.0000 1.0000
61.2900 283.0000 1.0000
61.3000 274.0000 1.0000
61.3100 302.0000 1.0000
61.3200 322.0000 1.0000
61.3300 334.0000 1.0000
61.3400 318.0000 1.0000
61.3500 280.0000 1.0000
61.3600 280.0000 1.0000
61.3700 305.0000 1.0000
61.3800 294.0000 1.0000
61.3900 296.0000 1.0000
61.4000 278.0000 1.0000
61.4100 309.0000 1.0000
61.4200 287.0000 1.0000
61.4300 284.0000 1.0000
61.4400 298.0000 1.0000
61.4500 330.0000 1.0000
61.4600 311.0000 1.0000
61.4700 314.0000 1.0000
61.4800 314.0000 1.0000
61.4900 282.0000 1.0000
61.5000 285.0000 1.0000
61.5100 287.0000 1.0000
61.5200 316.0000 1.0000
61.5300 301.0000 1.0000
61.5400 311.0000 1.0000
61.5500 293.0000 1.0000
61.5600 303.0000 1.0000
61.5700 266.0000 1.0000
61.5800 288.0000 1.0000
61.5900 292.0000 1.0000
61.6000 285.0000 1.0000
61.6100 314.0000 1.0000
61.6200 304.0000 1.0000
61.6300 306.0000 1.0000
61.6400 307.0000 1.0000
61.6500 308.0000 1.0000
61.6600 293.0000 1.0000
61.6700 341.0000 1.0000
61.6800 319.0000 1.0000
61.6900 337.0000 1.0000
61.7000 260.0000 1.0000
61.7100 321.0000 1.0000
61.7200 336.0000 1.0000
61.7300 319.0000 1.0000
61.7400 319.0000 1.0000
61.7500 296.0000 1.0000
61.7600 338.0000 1.0000
61.7700 346.0000 1.0000
61.7800 312.0000 1.0000
61.7900 278.0000 1.0000
61.8000 324.0000 1.0000
61.8100 343.0000 1.0000
61.8200 305.0000 1.0000
61.8300 330.0000 1.0000
61.8400 335.0000 1.0000
61.8500 313.0000 1.0000
61.8600 321.0000 1.0000
61.8700 343.0000 1.0000
61.8800 338.0000 1.0000
61.8900 309.0000 1.0000
61.9000 334.0000 1.0000
61.9100 335.0000 1.0000
61.9200 344.0000 1.0000
61.9300 356.0000 1.0000
61.9400 362.0000 1.0000
61.9500 366.0000 1.0000
61.9600 390.0000 1.0000
61.9700 347.0000 1.0000
61.9800 377.0000 1.0000
61.9900 343.0000 1.0000
62.0000 370.0000 1.0000
62.0100 385.0000 1.0000
62.0200 373.0000 1.0000
62.0300 411.0000 1.0000
62.0400 430.0000 1.0000
62.0500 413.0000 1.0000
62.0600 380.0000 1.0000
62.0700 387.0000 1.0000
62.0800 431.0000 1.0000
62.0900 455.0000 1.0000
62.1000 427.0000 1.0000
62.1100 401.0000 1.0000
62.1200 439.0000 1.0000
62.1300 438.0000 1.0000
62.1400 484.0000 1.0000
62.1500 507.0000 1.0000
62.1600 504.0000 1.0000
62.1700 543.0000 1.0000
62.1800 575.0000 1.0000
62.1900 553.0000 1.0000
62.2000 579.0000 1.0000
62.2100 560.0000 1.0000
62.2200 579.0000 1.0000
62.2300 617.0000 1.0000
62.2400 669.0000 1.0000
62.2500 646.0000 1.0000
62.2600 644.0000 1.0000
62.2700 655.0000 1.0000
62.2800 687.0000 1.0000
62.2900 651.0000 1.0000
62.3000 669.0000 1.0000
62.3100 669.0000 1.0000
62.3200 632.0000 1.0000
62.3300 651.0000 1.0000
62.3400 641.0000 1.0000
62.3500 584.0000 1.0000
62.3600 660.0000 1.0000
62.3700 600.0000 1.0000
62.3800 644.0000 1.0000
62.3900 635.0000 1.0000
62.4000 607.0000 1.0000
62.4100 612.0000 1.0000
62.4200 626.0000 1.0000
62.4300 627.0000 1.0000
62.4400 590.0000 1.0000
62.4500 592.0000 1.0000
62.4600 608.0000 1.0000
62.4700 579.0000 1.0000
62.4800 533.0000 1.0000
62.4900 528.0000 1.0000
62.5000 565.0000 1.0000
62.5100 534.0000 1.0000
62.5200 522.0000 1.0000
62.5300 509.0000 1.0000
62.5400 523.0000 1.0000
62.5500 486.0000 1.0000
62.5600 498.0000 1.0000
62.5700 463.0000 1.0000
62.5800 467.0000 1.0000
62.5900 453.0000 1.0000
62.6000 458.0000 1.0000
62.6100 443.0000 1.0000
62.6200 446.0000 1.0000
62.6300 442.0000 1.0000
62.6400 413.0000 1.0000
62.6500 428.0000 1.0000
62.6600 420.0000 1.0000
62.6700 406.0000 1.0000
62.6800 400.0000 1.0000
62.6900 404.0000 1.0000
62.7000 429.0000 1.0000
62.7100 377.0000 1.0000
62.7200 402.0000 1.0000
62.7300 398.0000 1.0000
62.7400 396.0000 1.0000
62.7500 358.0000 1.0000
62.7600 376.0000 1.0000
62.7700 317.0000 1.0000
62.7800 377.0000 1.0000
62.7900 316.0000 1.0000
62.8000 314.0000 1.0000
62.8100 373.0000 1.0000
62.8200 358.0000 1.0000
62.8300 349.0000 1.0000
62.8400 345.0000 1.0000
62.8500 340.0000 1.0000
62.8600 337.0000 1.0000
62.8700 375.0000 1.0000
62.8800 353.0000 1.0000
62.8900 319.0000 1.0000
62.9000 334.0000 1.0000
62.9100 334.0000 1.0000
62.9200 343.0000 1.0000
62.9300 354.0000 1.0000
62.9400 362.0000 1.0000
62.9500 346.0000 1.0000
62.9600 342.0000 1.0000
62.9700 333.0000 1.0000
62.9800 356.0000 1.0000
62.9900 326.0000 1.0000
63.0000 332.0000 1.0000
63.0100 313.0000 1.0000
63.0200 328.0000 1.0000
63.0300 336.0000 1.0000
63.0400 307.0000 1.0000
63.0500 295.0000 1.0000
63.0600 323.0000 1.0000
63.0700 326.0000 1.0000
63.0800 313.0000 1.0000
63.0900 341.0000 1.0000
63.1000 336.0000 1.0000
63.1100 334.0000 1.0000
63.1200 341.0000 1.0000
63.1300 334.0000 1.0000
63.1400 333.0000 1.0000
63.1500 330.0000 1.0000
63.1600 314.0000 1.0000
63.1700 338.0000 1.0000
63.1800 338.0000 1.0000
63.1900 295.0000 1.0000
63.2000 312.0000 1.0000
63.2100 300.0000 1.0000
63.2200 295.0000 1.0000
63.2300 308.0000 1.0000
63.2400 307.0000 1.0000
63.2500 302.0000 1.0000
63.2600 331.0000 1.0000
63.2700 316.0000 1.0000
63.2800 291.0000 1.0000
63.2900 302.0000 1.0000
63.3000 309.0000 1.0000
63.3100 312.0000 1.0000
63.3200 312.0000 1.0000
63.3300 314.0000 1.0000
63.3400 326.0000 1.0000
63.3500 317.0000 1.0000
63.3600 323.0000 1.0000
63.3700 336.0000 1.0000
63.3800 323.0000 1.0000
63.3900 318.0000 1.0000
63.4000 286.0000 1.0000
63.4100 297.0000 1.0000
63.4200 283.0000 1.0000
63.4300 298.0000 1.0000
63.4400 282.0000 1.0000
63.4500 296.0000 1.0000
63.4600 305.0000 1.0000
63.4700 325.0000 1.0000
63.4800 301.0000 1.0000
63.4900 273.0000 1.0000
63.5000 307.0000 1.0000
63.5100 310.0000 1.0000
63.5200 331.0000 1.0000
63.5300 318.0000 1.0000
63.5400 296.0000 1.0000
63.5500 304.0000 1.0000
63.5600 311.0000 1.0000
63.5700 302.0000 1.0000
63.5800 316.0000 1.0000
63.5900 313.0000 1.0000
63.6000 281.0000 1.0000
63.6100 301.0000 1.0000
63.6200 313.0000 1.0000
63.6300 309.0000 1.0000
63.6400 302.0000 1.0000
63.6500 315.0000 1.0000
63.6600 277.0000 1.0000
63.6700 274.0000 1.0000
63.6800 301.0000 1.0000
63.6900 305.0000 1.0000
63.7000 305.0000 1.0000
63.7100 279.0000 1.0000
63.7200 309.0000 1.0000
63.7300 318.0000 1.0000
63.7400 291.0000 1.0000
63.7500 275.0000 1.0000
63.7600 288.0000 1.0000
63.7700 311.0000 1.0000
63.7800 307.0000 1.0000
63.7900 287.0000 1.0000
63.8000 297.0000 1.0000
63.8100 294.0000 1.0000
63.8200 272.0000 1.0000
63.8300 265.0000 1.0000
63.8400 288.0000 1.0000
63.8500 307.0000 1.0000
63.8600 310.0000 1.0000
63.8700 316.0000 1.0000
63.8800 312.0000 1.0000
63.8900 318.0000 1.0000
63.9000 297.0000 1.0000
63.9100 303.0000 1.0000
63.9200 303.0000 1.0000
63.9300 285.0000 1.0000
63.9400 321.0000 1.0000
63.9500 344.0000 1.0000
63.9600 308.0000 1.0000
63.9700 316.0000 1.0000
63.9800 308.0000 1.0000
63.9900 304.0000 1.0000
64.0000 295.0000 1.0000
64.0100 318.0000 1.0000
64.0200 306.0000 1.0000
64.0300 325.0000 1.0000
64.0400 304.0000 1.0000
64.0500 301.0000 1.0000
64.0600 333.0000 1.0000
64.0700 296.0000 1.0000
64.0800 294.0000 1.0000
64.0900 309.0000 1.0000
64.1000 289.0000 1.0000
64.1100 324.0000 1.0000
64.1200 321.0000 1.0000
64.1300 311.0000 1.0000
64.1400 334.0000 1.0000
64.1500 318.0000 1.0000
64.1600 290.0000 1.0000
64.1700 301.0000 1.0000
64.1800 293.0000 1.0000
64.1900 327.0000 1.0000
64.2000 303.0000 1.0000
64.2100 294.0000 1.0000
64.2200 293.0000 1.0000
64.2300 291.0000 1.0000
64.2400 297.0000 1.0000
64.2500 314.0000 1.0000
64.2600 312.0000 1.0000
64.2700 331.0000 1.0000
64.2800 298.0000 1.0000
64.2900 310.0000 1.0000
64.3000 321.0000 1.0000
64.3100 323.0000 1.0000
64.3200 308.0000 1.0000
64.3300 341.0000 1.0000
64.3400 303.0000 1.0000
64.3500 312.0000 1.0000
64.3600 325.0000 1.0000
64.3700 291.0000 1.0000
64.3800 342.0000 1.0000
64.3900 312.0000 1.0000
64.4000 315.0000 1.0000
64.4100 307.0000 1.0000
64.4200 349.0000 1.0000
64.4300 332.0000 1.0000
64.4400 315.0000 1.0000
64.4500 344.0000 1.0000
64.4600 345.0000 1.0000
64.4700 364.0000 1.0000
64.4800 343.0000 1.0000
64.4900 358.0000 1.0000
64.5000 364.0000 1.0000
64.5100 372.0000 1.0000
64.5200 368.0000 1.0000
64.5300 343.0000 1.0000
64.5400 357.0000 1.0000
64.5500 336.0000 1.0000
64.5600 359.0000 1.0000
64.5700 376.0000 1.0000
64.5800 388.0000 1.0000
64.5900 355.0000 1.0000
64.6000 357.0000 1.0000
64.6100 405.0000 1.0000
64.6200 397.0000 1.0000
64.6300 369.0000 1.0000
64.6400 405.0000 1.0000
64.6500 373.0000 1.0000
64.6600 363.0000 1.0000
64.6700 392.0000 1.0000
64.6800 382.0000 1.0000
64.6900 402.0000 1.0000
64.7000 387.0000 1.0000
64.7100 371.0000 1.0000
64.7200 378.0000 1.0000
64.7300 401.0000 1.0000
64.7400 386.0000 1.0000
64.7500 398.0000 1.0000
64.7600 361.0000 1.0000
64.7700 357.0000 1.0000
64.7800 390.0000 1.0000
64.7900 388.0000 1.0000
64.8000 352.0000 1.0000
64.8100 399.0000 1.0000
64.8200 358.0000 1.0000
64.8300 376.0000 1.0000
64.8400 389.0000 1.0000
64.8500 370.0000 1.0000
64.8600 391.0000 1.0000
64.8700 406.0000 1.0000
64.8800 359.0000 1.0000
64.8900 367.0000 1.0000
64.9000 400.0000 1.0000
64.9100 381.0000 1.0000
64.9200 383.0000 1.0000
64.9300 351.0000 1.0000
64.9400 365.0000 1.0000
64.9500 357.0000 1.0000
64.9600 347.0000 1.0000
64.9700 347.0000 1.0000
64.9800 340.0000 1.0000
64.9900 348.0000 1.0000
65.0000 355.0000 1.0000
65.0100 359.0000 1.0000
65.0200 358.0000 1.0000
65.0300 346.0000 1.0000
65.0400 308.0000 1.0000
65.0500 333.0000 1.0000
65.0600 377.0000 1.0000
65.0700 329.0000 1.0000
65.0800 340.0000 1.0000
65.0900 303.0000 1.0000
65.1000 345.0000 1.0000
65.1100 372.0000 1.0000
65.1200 339.0000 1.0000
65.1300 334.0000 1.0000
65.1400 349.0000 1.0000
65.1500 335.0000 1.0000
65.1600 319.0000 1.0000
65.1700 319.0000 1.0000
65.1800 311.0000 1.0000
65.1900 337.0000 1.0000
65.2000 329.0000 1.0000
65.2100 337.0000 1.0000
65.2200 340.0000 1.0000
65.2300 335.0000 1.0000
65.2400 331.0000 1.0000
65.2500 344.0000 1.0000
65.2600 355.0000 1.0000
65.2700 305.0000 1.0000
65.2800 343.0000 1.0000
65.2900 359.0000 1.0000
65.3000 323.0000 1.0000
65.3100 302.0000 1.0000
65.3200 321.0000 1.0000
65.3300 319.0000 1.0000
65.3400 301.0000 1.0000
65.3500 301.0000 1.0000
65.3600 312.0000 1.0000
65.3700 315.0000 1.0000
65.3800 333.0000 1.0000
65.3900 304.0000 1.0000
65.4000 327.0000 1.0000
65.4100 320.0000 1.0000
65.4200 322.0000 1.0000
65.4300 309.0000 1.0000
65.4400 326.0000 1.0000
65.4500 355.0000 1.0000
65.4600 338.0000 1.0000
65.4700 336.0000 1.0000
65.4800 346.0000 1.0000
65.4900 337.0000 1.0000
65.5000 332.0000 1.0000
65.5100 338.0000 1.0000
65.5200 326.0000 1.0000
65.5300 318.0000 1.0000
65.5400 277.0000 1.0000
65.5500 322.0000 1.0000
65.5600 296.0000 1.0000
65.5700 317.0000 1.0000
65.5800 298.0000 1.0000
65.5900 330.0000 1.0000
65.6000 289.0000 1.0000
65.6100 326.0000 1.0000
65.6200 344.0000 1.0000
65.6300 304.0000 1.0000
65.6400 346.0000 1.0000
65.6500 345.0000 1.0000
65.6600 322.0000 1.0000
65.6700 299.0000 1.0000
65.6800 313.0000 1.0000
65.6900 305.0000 1.0000
65.7000 322.0000 1.0000
65.7100 326.0000 1.0000
65.7200 347.0000 1.0000
65.7300 345.0000 1.0000
65.7400 333.0000 1.0000
65.7500 329.0000 1.0000
65.7600 374.0000 1.0000
65.7700 352.0000 1.0000
65.7800 381.0000 1.0000
65.7900 349.0000 1.0000
65.8000 337.0000 1.0000
65.8100 341.0000 1.0000
65.8200 357.0000 1.0000
65.8300 365.0000 1.0000
65.8400 359.0000 1.0000
65.8500 325.0000 1.0000
65.8600 334.0000 1.0000
65.8700 346.0000 1.0000
65.8800 337.0000 1.0000
65.8900 360.0000 1.0000
65.9000 374.0000 1.0000
65.9100 399.0000 1.0000
65.9200 380.0000 1.0000
65.9300 410.0000 1.0000
65.9400 403.0000 1.0000
65.9500 394.0000 1.0000
65.9600 403.0000 1.0000
65.9700 414.0000 1.0000
65.9800 426.0000 1.0000
65.9900 450.0000 1.0000
66.0000 436.0000 1.0000
66.0100 431.0000 1.0000
66.0200 453.0000 1.0000
66.0300 456.0000 1.0000
66.0400 466.0000 1.0000
66.0500 475.0000 1.0000
66.0600 523.0000 1.0000
66.0700 539.0000 1.0000
66.0800 556.0000 1.0000
66.0900 592.0000 1.0000
66.1000 586.0000 1.0000
66.1100 570.0000 1.0000
66.1200 652.0000 1.0000
66.1300 676.0000 1.0000
66.1400 753.0000 1.0000
66.1500 751.0000 1.0000
66.1600 763.0000 1.0000
66.1700 849.0000 1.0000
66.1800 965.0000 1.0000
66.1900 934.0000 1.0000
66.2000 1003.0000 1.0000
66.2100 1055.0000 1.0000
66.2200 1112.0000 1.0000
66.2300 1170.0000 1.0000
66.2400 1188.0000 1.0000
66.2500 1212.0000 1.0000
66.2600 1234.0000 1.0000
66.2700 1172.0000 1.0000
66.2800 1172.0000 1.0000
66.2900 1202.0000 1.0000
66.3000 1175.0000 1.0000
66.3100 1205.0000 1.0000
66.3200 1131.0000 1.0000
66.3300 1100.0000 1.0000
66.3400 1133.0000 1.0000
66.3500 1112.0000 1.0000
66.3600 1112.0000 1.0000
66.3700 1077.0000 1.0000
66.3800 1038.0000 1.0000
66.3900 963.0000 1.0000
66.4000 1014.0000 1.0000
66.4100 1017.0000 1.0000
66.4200 1022.0000 1.0000
66.4300 1033.0000 1.0000
66.4400 985.0000 1.0000
66.4500 920.0000 1.0000
66.4600 923.0000 1.0000
66.4700 905.0000 1.0000
66.4800 910.0000 1.0000
66.4900 871.0000 1.0000
66.5000 810.0000 1.0000
66.5100 811.0000 1.0000
66.5200 780.0000 1.0000
66.5300 726.0000 1.0000
66.5400 706.0000 1.0000
66.5500 676.0000 1.0000
66.5600 654.0000 1.0000
66.5700 633.0000 1.0000
66.5800 595.0000 1.0000
66.5900 571.0000 1.0000
66.6000 559.0000 1.0000
66.6100 556.0000 1.0000
66.6200 535.0000 1.0000
66.6300 492.0000 1.0000
66.6400 482.0000 1.0000
66.6500 489.0000 1.0000
66.6600 477.0000 1.0000
66.6700 451.0000 1.0000
66.6800 422.0000 1.0000
66.6900 440.0000 1.0000
66.7000 402.0000 1.0000
66.7100 451.0000 1.0000
66.7200 404.0000 1.0000
66.7300 410.0000 1.0000
66.7400 395.0000 1.0000
66.7500 383.0000 1.0000
66.7600 379.0000 1.0000
66.7700 397.0000 1.0000
66.7800 383.0000 1.0000
66.7900 350.0000 1.0000
66.8000 369.0000 1.0000
66.8100 383.0000 1.0000
66.8200 362.0000 1.0000
66.8300 332.0000 1.0000
66.8400 336.0000 1.0000
66.8500 350.0000 1.0000
66.8600 328.0000 1.0000
66.8700 332.0000 1.0000
66.8800 317.0000 1.0000
66.8900 335.0000 1.0000
66.9000 312.0000 1.0000
66.9100 311.0000 1.0000
66.9200 329.0000 1.0000
66.9300 316.0000 1.0000
66.9400 333.0000 1.0000
66.9500 341.0000 1.0000
66.9600 330.0000 1.0000
66.9700 332.0000 1.0000
66.9800 326.0000 1.0000
66.9900 326.0000 1.0000
67.0000 322.0000 1.0000
67.0100 328.0000 1.0000
67.0200 286.0000 1.0000
67.0300 313.0000 1.0000
67.0400 297.0000 1.0000
67.0500 289.0000 1.0000
67.0600 319.0000 1.0000
67.0700 291.0000 1.0000
67.0800 304.0000 1.0000
67.0900 296.0000 1.0000
67.1000 291.0000 1.0000
67.1100 292.0000 1.0000
67.1200 305.0000 1.0000
67.1300 332.0000 1.0000
67.1400 290.0000 1.0000
67.1500 285.0000 1.0000
67.1600 306.0000 1.0000
67.1700 295.0000 1.0000
67.1800 278.0000 1.0000
67.1900 325.0000 1.0000
67.2000 299.0000 1.0000
67.2100 293.0000 1.0000
67.2200 302.0000 1.0000
67.2300 286.0000 1.0000
67.2400 276.0000 1.0000
67.2500 281.0000 1.0000
67.2600 270.0000 1.0000
67.2700 278.0000 1.0000
67.2800 308.0000 1.0000
67.2900 268.0000 1.0000
67.3000 287.0000 1.0000
67.3100 309.0000 1.0000
67.3200 326.0000 1.0000
67.3300 297.0000 1.0000
67.3400 269.0000 1.0000
67.3500 276.0000 1.0000
67.3600 273.0000 1.0000
67.3700 321.0000 1.0000
67.3800 296.0000 1.0000
67.3900 271.0000 1.0000
67.4000 292.0000 1.0000
67.4100 270.0000 1.0000
67.4200 285.0000 1.0000
67.4300 289.0000 1.0000
67.4400 277.0000 1.0000
67.4500 318.0000 1.0000
67.4600 302.0000 1.0000
67.4700 290.0000 1.0000
67.4800 304.0000 1.0000
67.4900 277.0000 1.0000
67.5000 274.0000 1.0000
67.5100 298.0000 1.0000
67.5200 316.0000 1.0000
67.5300 267.0000 1.0000
67.5400 316.0000 1.0000
67.5500 284.0000 1.0000
67.5600 264.0000 1.0000
67.5700 304.0000 1.0000
67.5800 294.0000 1.0000
67.5900 297.0000 1.0000
67.6000 281.0000 1.0000
67.6100 304.0000 1.0000
67.6200 276.0000 1.0000
67.6300 294.0000 1.0000
67.6400 270.0000 1.0000
67.6500 285.0000 1.0000
67.6600 294.0000 1.0000
67.6700 262.0000 1.0000
67.6800 266.0000 1.0000
67.6900 286.0000 1.0000
67.7000 278.0000 1.0000
67.7100 275.0000 1.0000
67.7200 282.0000 1.0000
67.7300 275.0000 1.0000
67.7400 282.0000 1.0000
67.7500 301.0000 1.0000
67.7600 284.0000 1.0000
67.7700 321.0000 1.0000
67.7800 273.0000 1.0000
67.7900 286.0000 1.0000
67.8000 268.0000 1.0000
67.8100 290.0000 1.0000
67.8200 282.0000 1.0000
67.8300 299.0000 1.0000
67.8400 287.0000 1.0000
67.8500 265.0000 1.0000
67.8600 258.0000 1.0000
67.8700 271.0000 1.0000
67.8800 284.0000 1.0000
67.8900 277.0000 1.0000
67.9000 278.0000 1.0000
67.9100 294.0000 1.0000
67.9200 276.0000 1.0000
67.9300 276.0000 1.0000
67.9400 275.0000 1.0000
67.9500 254.0000 1.0000
67.9600 263.0000 1.0000
67.9700 271.0000 1.0000
67.9800 283.0000 1.0000
67.9900 286.0000 1.0000
68.0000 276.0000 1.0000
68.0100 283.0000 1.0000
68.0200 274.0000 1.0000
68.0300 277.0000 1.0000
68.0400 289.0000 1.0000
68.0500 279.0000 1.0000
68.0600 275.0000 1.0000
68.0700 276.0000 1.0000
68.0800 285.0000 1.0000
68.0900 286.0000 1.0000
68.1000 271.0000 1.0000
68.1100 255.0000 1.0000
68.1200 285.0000 1.0000
68.1300 272.0000 1.0000
68.1400 272.0000 1.0000
68.1500 287.0000 1.0000
68.1600 265.0000 1.0000
68.1700 302.0000 1.0000
68.1800 257.0000 1.0000
68.1900 269.0000 1.0000
68.2000 289.0000 1.0000
68.2100 302.0000 1.0000
68.2200 275.0000 1.0000
68.2300 257.0000 1.0000
68.2400 293.0000 1.0000
68.2500 284.0000 1.0000
68.2600 258.0000 1.0000
68.2700 273.0000 1.0000
68.2800 278.0000 1.0000
68.2900 277.0000 1.0000
68.3000 269.0000 1.0000
68.3100 256.0000 1.0000
68.3200 289.0000 1.0000
68.3300 288.0000 1.0000
68.3400 289.0000 1.0000
68.3500 286.0000 1.0000
68.3600 292.0000 1.0000
68.3700 256.0000 1.0000
68.3800 278.0000 1.0000
68.3900 275.0000 1.0000
68.4000 260.0000 1.0000
68.4100 285.0000 1.0000
68.4200 267.0000 1.0000
68.4300 261.0000 1.0000
68.4400 282.0000 1.0000
68.4500 285.0000 1.0000
68.4600 291.0000 1.0000
68.4700 311.0000 1.0000
68.4800 321.0000 1.0000
68.4900 274.0000 1.0000
68.5000 251.0000 1.0000
68.5100 272.0000 1.0000
68.5200 288.0000 1.0000
68.5300 264.0000 1.0000
68.5400 275.0000 1.0000
68.5500 293.0000 1.0000
68.5600 256.0000 1.0000
68.5700 275.0000 1.0000
68.5800 274.0000 1.0000
68.5900 265.0000 1.0000
68.6000 282.0000 1.0000
68.6100 261.0000 1.0000
68.6200 255.0000 1.0000
68.6300 275.0000 1.0000
68.6400 272.0000 1.0000
68.6500 284.0000 1.0000
68.6600 301.0000 1.0000
68.6700 286.0000 1.0000
68.6800 253.0000 1.0000
68.6900 277.0000 1.0000
68.7000 262.0000 1.0000
68.7100 260.0000 1.0000
68.7200 289.0000 1.0000
68.7300 273.0000 1.0000
68.7400 269.0000 1.0000
68.7500 287.0000 1.0000
68.7600 265.0000 1.0000
68.7700 258.0000 1.0000
68.7800 269.0000 1.0000
68.7900 297.0000 1.0000
68.8000 282.0000 1.0000
68.8100 289.0000 1.0000
68.8200 269.0000 1.0000
68.8300 259.0000 1.0000
68.8400 253.0000 1.0000
68.8500 275.0000 1.0000
68.8600 268.0000 1.0000
68.8700 253.0000 1.0000
68.8800 285.0000 1.0000
68.8900 248.0000 1.0000
68.9000 254.0000 1.0000
68.9100 277.0000 1.0000
68.9200 262.0000 1.0000
68.9300 274.0000 1.0000
68.9400 281.0000 1.0000
68.9500 272.0000 1.0000
68.9600 304.0000 1.0000
68.9700 256.0000 1.0000
68.9800 278.0000 1.0000
68.9900 256.0000 1.0000
69.0000 263.0000 1.0000
69.0100 284.0000 1.0000
69.0200 250.0000 1.0000
69.0300 276.0000 1.0000
69.0400 295.0000 1.0000
69.0500 283.0000 1.0000
69.0600 268.0000 1.0000
69.0700 266.0000 1.0000
69.0800 263.0000 1.0000
69.0900 263.0000 1.0000
69.1000 276.0000 1.0000
69.1100 271.0000 1.0000
69.1200 271.0000 1.0000
69.1300 250.0000 1.0000
69.1400 273.0000 1.0000
69.1500 283.0000 1.0000
69.1600 268.0000 1.0000
69.1700 238.0000 1.0000
69.1800 296.0000 1.0000
69.1900 280.0000 1.0000
69.2000 287.0000 1.0000
69.2100 259.0000 1.0000
69.2200 241.0000 1.0000
69.2300 261.0000 1.0000
69.2400 265.0000 1.0000
69.2500 268.0000 1.0000
69.2600 255.0000 1.0000
69.2700 257.0000 1.0000
69.2800 265.0000 1.0000
69.2900 252.0000 1.0000
69.3000 259.0000 1.0000
69.3100 278.0000 1.0000
69.3200 254.0000 1.0000
69.3300 279.0000 1.0000
69.3400 269.0000 1.0000
69.3500 287.0000 1.0000
69.3600 257.0000 1.0000
69.3700 258.0000 1.0000
69.3800 255.0000 1.0000
69.3900 283.0000 1.0000
69.4000 276.0000 1.0000
69.4100 249.0000 1.0000
69.4200 272.0000 1.0000
69.4300 278.0000 1.0000
69.4400 293.0000 1.0000
69.4500 245.0000 1.0000
69.4600 274.0000 1.0000
69.4700 272.0000 1.0000
69.4800 279.0000 1.0000
69.4900 299.0000 1.0000
69.5000 270.0000 1.0000
69.5100 276.0000 1.0000
69.5200 298.0000 1.0000
69.5300 267.0000 1.0000
69.5400 293.0000 1.0000
69.5500 302.0000 1.0000
69.5600 278.0000 1.0000
69.5700 247.0000 1.0000
69.5800 256.0000 1.0000
69.5900 278.0000 1.0000
69.6000 256.0000 1.0000
69.6100 287.0000 1.0000
69.6200 309.0000 1.0000
69.6300 282.0000 1.0000
69.6400 259.0000 1.0000
69.6500 277.0000 1.0000
69.6600 281.0000 1.0000
69.6700 252.0000 1.0000
69.6800 267.0000 1.0000
69.6900 232.0000 1.0000
69.7000 256.0000 1.0000
69.7100 267.0000 1.0000
69.7200 284.0000 1.0000
69.7300 281.0000 1.0000
69.7400 250.0000 1.0000
69.7500 266.0000 1.0000
69.7600 281.0000 1.0000
69.7700 272.0000 1.0000
69.7800 268.0000 1.0000
69.7900 275.0000 1.0000
69.8000 265.0000 1.0000
69.8100 268.0000 1.0000
69.8200 277.0000 1.0000
69.8300 265.0000 1.0000
69.8400 226.0000 1.0000
69.8500 242.0000 1.0000
69.8600 269.0000 1.0000
69.8700 269.0000 1.0000
69.8800 264.0000 1.0000
69.8900 268.0000 1.0000
69.9000 259.0000 1.0000
69.9100 248.0000 1.0000
69.9200 268.0000 1.0000
69.9300 279.0000 1.0000
69.9400 259.0000 1.0000
69.9500 252.0000 1.0000
69.9600 265.0000 1.0000
69.9700 265.0000 1.0000
69.9800 244.0000 1.0000
69.9900 232.0000 1.0000
70.0000 276.0000 1.0000
*RAS_INT_END
*RAS_TEMPERATURE_START
*RAS_TEMPERATURE_END
*RAS_DATA_END
