*RAS_DATA_START
*RAS_HEADER_START
*DISP_FMT_X "%.2f"
*DISP_FMT_Y "%.0f"
*DISP_FULLSCALE "16364.0000000000"
*DISP_LINE_COLOR "255.0000000000"
*DISP_LINE_STYLE "0.0000000000"
*DISP_LINE_WIDTH "0.2500000000"
*DISP_NOTE "測定データ-1"
*DISP_OFFSET_Y "0.0000000000"
*DISP_PEAKSEARCH_UNIT_Y "cps"
*DISP_RANGE_BOTTOM "0.0000000000"
*DISP_RANGE_LEFT "20.0000000000"
*DISP_RANGE_LOGCUTOFF "0.0100000000"
*DISP_RANGE_RIGHT "70.0000000000"
*DISP_RANGE_TOP "16364.0000000000"
*DISP_SCALE_MODE_Y "0.0000000000"
*DISP_TAB_NAME "2θ/θ"
*DISP_TITLE_Y "強度"
*DISP_UNIT_Y "cps"
*DISP_WINDOW_NAME "MSG_MACROENGINE"
*FILE_COMMENT " "
*FILE_MD5 ""
*FILE_MEMO " "
*FILE_OPERATOR "Administrator"
*FILE_SAMPLE " "
*FILE_TYPE "RAS_RAW"
*FILE_USERGROUP "システムマネージャ"
*FILE_VERSION "1.0000000000"
*HW_ATTACHMENT_ID "ATT0025"
*HW_ATTACHMENT_NAME "標準|Standard"
*HW_COUNTER_ID-0 "CUT0025"
*HW_COUNTER_ID-1 "CUT0020"
*HW_COUNTER_ID-2 "CUT0020"
*HW_COUNTER_ID-3 "CSL0021"
*HW_COUNTER_ID-4 "CMC0021"
*HW_COUNTER_NAME-0 "D/teX Ultra|D/teX Ultra"
*HW_COUNTER_NAME-1 "None|None"
*HW_COUNTER_NAME-2 "None|None"
*HW_COUNTER_NAME-3 "BBM|BBM"
*HW_COUNTER_NAME-4 "検出器モノクロメータ|Detector monochromator"
*HW_COUNTER_SELECT_NAME "D/teX Ultra|D/teX Ultra"
*HW_GONIOMETER_ID "GON0023"
*HW_GONIOMETER_NAME "SmartLab|SmartLab"
*HW_GONIOMETER_RADIUS-0 "90.0"
*HW_GONIOMETER_RADIUS-1 "114.0"
*HW_GONIOMETER_RADIUS-2 "190.0"
*HW_GONIOMETER_RADIUS-3 "300.0"
*HW_GONIOMETER_RADIUS-4 "187.0"
*HW_GONIOMETER_RADIUS-5 "300.0"
*HW_GONIOMETER_RADIUS-6 "113.0"
*HW_GONIOMETER_RADIUS-7 "331.0"
*HW_I_OPT_ID-0 "CBO0021"
*HW_I_OPT_ID-1 "ICR0023"
*HW_I_OPT_ID-2 "ISL0021"
*HW_I_OPT_ID-3 "ISO0021"
*HW_I_OPT_ID-4 "IAD0021"
*HW_I_OPT_ID-5 "IPR0001"
*HW_I_OPT_NAME-0 "CBOユニット|CBO unit"
*HW_I_OPT_NAME-1 "標準入射光学ユニット|Standard incident optical unit"
*HW_I_OPT_NAME-2 "標準入射スリットボックス|Standard incident slit box"
*HW_I_OPT_NAME-3 "入射平行スリット|Incident parallel slit"
*HW_I_OPT_NAME-4 "長手制限スリット|Length limiting slit"
*HW_I_OPT_NAME-5 "None|None"
*HW_R_ATTENUATER_AUTOMODE "0"
*HW_R_OPT_ID-0 "RSS0021"
*HW_R_OPT_ID-1 "RCR0023"
*HW_R_OPT_ID-2 "RSO0021"
*HW_R_OPT_ID-3 "RRS0021"
*HW_R_OPT_ID-4 "ATN0021"
*HW_R_OPT_ID-5 "RFL0021"
*HW_R_OPT_ID-6 "RAD0021"
*HW_R_OPT_NAME-0 "標準受光スリットボックス1|Standard receiving slit box # 1"
*HW_R_OPT_NAME-1 "標準受光光学ユニット1|Standard receiving unit # 1"
*HW_R_OPT_NAME-2 "標準受光光学ユニット2|Standard receiving optical unit # 2"
*HW_R_OPT_NAME-3 "標準受光スリットボックス2|Standard receiving slit box # 2"
*HW_R_OPT_NAME-4 "標準アッテネータ|Standard Attenuator"
*HW_R_OPT_NAME-5 "Cu Kβ|Cu K-beta"
*HW_R_OPT_NAME-6 "調整用受光スリット|Alignment receiving slit"
*HW_SAMPLE_HOLDER_ID "SMP0023"
*HW_SAMPLE_HOLDER_NAME "標準Zステージ|Standard Z stage"
*HW_XG_CURRENT_MAX "50"
*HW_XG_CURRENT_MIN "2"
*HW_XG_CURRENT_RESOLUTION "1"
*HW_XG_CURRENT_UNIT "mA"
*HW_XG_FOCUS "1mm x 10mm"
*HW_XG_FOCUS_TYPE "Normal"
*HW_XG_ID ""
*HW_XG_NAME "3kW 封入管(ID:1200)|3kW Sealed tube(ID:1200)"
*HW_XG_TARGET_ATOMIC_NUMBER "29.0000000000"
*HW_XG_TARGET_NAME "Cu"
*HW_XG_TYPE "Hermetic"
*HW_XG_VOLTAGE_MAX "60"
*HW_XG_VOLTAGE_MIN "20"
*HW_XG_VOLTAGE_RESOLUTION "1"
*HW_XG_VOLTAGE_UNIT "kV"
*HW_XG_WATT_MAX "1.500"
*HW_XG_WATT_UNIT "kW"
*HW_XG_WAVE_LENGTH_ALPHA1 "1.540593"
*HW_XG_WAVE_LENGTH_ALPHA2 "1.544414"
*HW_XG_WAVE_LENGTH_BETA "1.392250"
*MEAS_COND_AXIS_NAME-0 "2θ/θ"
*MEAS_COND_AXIS_NAME-1 "2θ"
*MEAS_COND_AXIS_NAME-2 "ω"
*MEAS_COND_AXIS_NAME-3 "Z"
*MEAS_COND_AXIS_NAME-4 "2θ/ω"
*MEAS_COND_AXIS_NAME-5 "θs"
*MEAS_COND_AXIS_NAME-6 "θd"
*MEAS_COND_AXIS_NAME-7 "Ts"
*MEAS_COND_AXIS_NAME-8 "CBO選択スリット"
*MEAS_COND_AXIS_NAME-9 "M"
*MEAS_COND_AXIS_NAME-10 "入射平行スリット"
*MEAS_COND_AXIS_NAME-11 "入射スリット"
*MEAS_COND_AXIS_NAME-12 ""
*MEAS_COND_AXIS_NAME-13 "Zs"
*MEAS_COND_AXIS_NAME-14 "入射光学素子"
*MEAS_COND_AXIS_NAME-15 "長手制限スリット"
*MEAS_COND_AXIS_NAME-16 "センタースリット"
*MEAS_COND_AXIS_NAME-17 "フィルター"
*MEAS_COND_AXIS_NAME-18 "受光スリット1"
*MEAS_COND_AXIS_NAME-19 "受光スリット2"
*MEAS_COND_AXIS_NAME-20 "受光光学素子"
*MEAS_COND_AXIS_NAME-21 "受光平行スリット"
*MEAS_COND_AXIS_NAME-22 "調整用受光スリット"
*MEAS_COND_AXIS_NAME-23 ""
*MEAS_COND_AXIS_NAME-24 ""
*MEAS_COND_AXIS_NAME-25 "Zd"
*MEAS_COND_AXIS_NAME-26 "アッテネータ"
*MEAS_COND_AXIS_NAME-27 "検出器モノクロメータ"
*MEAS_COND_AXIS_NAME-28 "モノクロメータスリット"
*MEAS_COND_AXIS_NAME-29 "プライマリビーム"
*MEAS_COND_AXIS_NAME-30 "PHA"
*MEAS_COND_AXIS_NAME_INTERNAL-0 "TwoThetaTheta"
*MEAS_COND_AXIS_NAME_INTERNAL-1 "TwoTheta"
*MEAS_COND_AXIS_NAME_INTERNAL-2 "Omega"
*MEAS_COND_AXIS_NAME_INTERNAL-3 "Z"
*MEAS_COND_AXIS_NAME_INTERNAL-4 "TwoThetaOmega"
*MEAS_COND_AXIS_NAME_INTERNAL-5 "ThetaS"
*MEAS_COND_AXIS_NAME_INTERNAL-6 "ThetaD"
*MEAS_COND_AXIS_NAME_INTERNAL-7 "Ts"
*MEAS_COND_AXIS_NAME_INTERNAL-8 "CBO"
*MEAS_COND_AXIS_NAME_INTERNAL-9 "CBO-M"
*MEAS_COND_AXIS_NAME_INTERNAL-10 "IncidentSollerSlit"
*MEAS_COND_AXIS_NAME_INTERNAL-11 "IncidentSlitBox"
*MEAS_COND_AXIS_NAME_INTERNAL-12 "IncidentSlitBox-_Axis"
*MEAS_COND_AXIS_NAME_INTERNAL-13 "Zs"
*MEAS_COND_AXIS_NAME_INTERNAL-14 "IncidentMonochromator"
*MEAS_COND_AXIS_NAME_INTERNAL-15 "IncidentAxdSlit"
*MEAS_COND_AXIS_NAME_INTERNAL-16 "CenterSlit"
*MEAS_COND_AXIS_NAME_INTERNAL-17 "Filter"
*MEAS_COND_AXIS_NAME_INTERNAL-18 "ReceivingSlitBox1"
*MEAS_COND_AXIS_NAME_INTERNAL-19 "ReceivingSlitBox2"
*MEAS_COND_AXIS_NAME_INTERNAL-20 "ReceivingOptics"
*MEAS_COND_AXIS_NAME_INTERNAL-21 "ReceivingSollerSlit"
*MEAS_COND_AXIS_NAME_INTERNAL-22 "ReceivingAxdSlit"
*MEAS_COND_AXIS_NAME_INTERNAL-23 "ReceivingSlitBox1-_Axis"
*MEAS_COND_AXIS_NAME_INTERNAL-24 "ReceivingSlitBox2-_Axis"
*MEAS_COND_AXIS_NAME_INTERNAL-25 "ReceivingSlitBox2-Zd"
*MEAS_COND_AXIS_NAME_INTERNAL-26 "Attenuator"
*MEAS_COND_AXIS_NAME_INTERNAL-27 "CounterMonochromator"
*MEAS_COND_AXIS_NAME_INTERNAL-28 "CounterSlit"
*MEAS_COND_AXIS_NAME_INTERNAL-29 "IncidentPrimary"
*MEAS_COND_AXIS_NAME_INTERNAL-30 "PHA"
*MEAS_COND_AXIS_NAME_MAGICNO-0 "83951616.0000000000"
*MEAS_COND_AXIS_NAME_MAGICNO-1 "268632064.0000000000"
*MEAS_COND_AXIS_NAME_MAGICNO-2 "268500992.0000000000"
*MEAS_COND_AXIS_NAME_MAGICNO-3 "285278208.0000000000"
*MEAS_COND_AXIS_NAME_MAGICNO-4 "83951616.0000000000"
*MEAS_COND_AXIS_NAME_MAGICNO-5 "131072.0000000000"
*MEAS_COND_AXIS_NAME_MAGICNO-6 "131072.0000000000"
*MEAS_COND_AXIS_NAME_MAGICNO-7 "318898176.0000000000"
*MEAS_COND_AXIS_NAME_MAGICNO-8 "20971521.0000000000"
*MEAS_COND_AXIS_NAME_MAGICNO-9 "285343744.0000000000"
*MEAS_COND_AXIS_NAME_MAGICNO-10 "20971521.0000000000"
*MEAS_COND_AXIS_NAME_MAGICNO-11 "22020097.0000000000"
*MEAS_COND_AXIS_NAME_MAGICNO-12 "25165824.0000000000"
*MEAS_COND_AXIS_NAME_MAGICNO-13 "318898176.0000000000"
*MEAS_COND_AXIS_NAME_MAGICNO-14 "1.0000000000"
*MEAS_COND_AXIS_NAME_MAGICNO-15 "20971521.0000000000"
*MEAS_COND_AXIS_NAME_MAGICNO-16 "20971521.0000000000"
*MEAS_COND_AXIS_NAME_MAGICNO-17 "20971521.0000000000"
*MEAS_COND_AXIS_NAME_MAGICNO-18 "23068673.0000000000"
*MEAS_COND_AXIS_NAME_MAGICNO-19 "23068673.0000000000"
*MEAS_COND_AXIS_NAME_MAGICNO-20 "20971521.0000000000"
*MEAS_COND_AXIS_NAME_MAGICNO-21 "20971521.0000000000"
*MEAS_COND_AXIS_NAME_MAGICNO-22 "20971521.0000000000"
*MEAS_COND_AXIS_NAME_MAGICNO-23 "25165824.0000000000"
*MEAS_COND_AXIS_NAME_MAGICNO-24 "25165824.0000000000"
*MEAS_COND_AXIS_NAME_MAGICNO-25 "285343744.0000000000"
*MEAS_COND_AXIS_NAME_MAGICNO-26 "17301505.0000000000"
*MEAS_COND_AXIS_NAME_MAGICNO-27 "20971521.0000000000"
*MEAS_COND_AXIS_NAME_MAGICNO-28 "20971521.0000000000"
*MEAS_COND_AXIS_NAME_MAGICNO-29 "20971521.0000000000"
*MEAS_COND_AXIS_NAME_MAGICNO-30 "0.0000000000"
*MEAS_COND_AXIS_OFFSET-0 "-"
*MEAS_COND_AXIS_OFFSET-1 "-0.1081000000"
*MEAS_COND_AXIS_OFFSET-2 "0.3758000000"
*MEAS_COND_AXIS_OFFSET-3 "-"
*MEAS_COND_AXIS_OFFSET-4 "-"
*MEAS_COND_AXIS_OFFSET-5 "0.3758000000"
*MEAS_COND_AXIS_OFFSET-6 "-0.4839000000"
*MEAS_COND_AXIS_OFFSET-7 "-"
*MEAS_COND_AXIS_OFFSET-8 "-"
*MEAS_COND_AXIS_OFFSET-9 "-"
*MEAS_COND_AXIS_OFFSET-10 "-"
*MEAS_COND_AXIS_OFFSET-11 "-"
*MEAS_COND_AXIS_OFFSET-12 "-"
*MEAS_COND_AXIS_OFFSET-13 "-"
*MEAS_COND_AXIS_OFFSET-14 "-"
*MEAS_COND_AXIS_OFFSET-15 "-"
*MEAS_COND_AXIS_OFFSET-16 "-"
*MEAS_COND_AXIS_OFFSET-17 "-"
*MEAS_COND_AXIS_OFFSET-18 "-"
*MEAS_COND_AXIS_OFFSET-19 "-"
*MEAS_COND_AXIS_OFFSET-20 "-"
*MEAS_COND_AXIS_OFFSET-21 "-"
*MEAS_COND_AXIS_OFFSET-22 "-"
*MEAS_COND_AXIS_OFFSET-23 "-"
*MEAS_COND_AXIS_OFFSET-24 "-"
*MEAS_COND_AXIS_OFFSET-25 "-"
*MEAS_COND_AXIS_OFFSET-26 "-"
*MEAS_COND_AXIS_OFFSET-27 "-"
*MEAS_COND_AXIS_OFFSET-28 "-"
*MEAS_COND_AXIS_OFFSET-29 "-"
*MEAS_COND_AXIS_OFFSET-30 "-"
*MEAS_COND_AXIS_POSITION-0 "0.0000000000"
*MEAS_COND_AXIS_POSITION-1 "0.0000000000"
*MEAS_COND_AXIS_POSITION-2 "0.0000000000"
*MEAS_COND_AXIS_POSITION-3 "-0.5500000000"
*MEAS_COND_AXIS_POSITION-4 "0.0000000000"
*MEAS_COND_AXIS_POSITION-5 "0.0000000000"
*MEAS_COND_AXIS_POSITION-6 "0.0000000000"
*MEAS_COND_AXIS_POSITION-7 "-0.4278800000"
*MEAS_COND_AXIS_POSITION-8 "BB"
*MEAS_COND_AXIS_POSITION-9 "0.0000000000"
*MEAS_COND_AXIS_POSITION-10 "Soller_slit_5.0deg"
*MEAS_COND_AXIS_POSITION-11 "2/3deg"
*MEAS_COND_AXIS_POSITION-12 "2.2088000000"
*MEAS_COND_AXIS_POSITION-13 "-0.4140600000"
*MEAS_COND_AXIS_POSITION-14 "0.0000000000"
*MEAS_COND_AXIS_POSITION-15 "10.0mm"
*MEAS_COND_AXIS_POSITION-16 "None"
*MEAS_COND_AXIS_POSITION-17 "Cu_K-beta"
*MEAS_COND_AXIS_POSITION-18 "13.000mm"
*MEAS_COND_AXIS_POSITION-19 "13.000mm"
*MEAS_COND_AXIS_POSITION-20 "No_unit"
*MEAS_COND_AXIS_POSITION-21 "Soller_slit_5.0deg"
*MEAS_COND_AXIS_POSITION-22 "None"
*MEAS_COND_AXIS_POSITION-23 "13.0000000000"
*MEAS_COND_AXIS_POSITION-24 "13.0000000000"
*MEAS_COND_AXIS_POSITION-25 "0.0109400000"
*MEAS_COND_AXIS_POSITION-26 "Open"
*MEAS_COND_AXIS_POSITION-27 "None"
*MEAS_COND_AXIS_POSITION-28 "None"
*MEAS_COND_AXIS_POSITION-29 "None"
*MEAS_COND_AXIS_POSITION-30 "38.0000000000"
*MEAS_COND_AXIS_UNIT-0 "deg"
*MEAS_COND_AXIS_UNIT-1 "deg"
*MEAS_COND_AXIS_UNIT-2 "deg"
*MEAS_COND_AXIS_UNIT-3 "mm"
*MEAS_COND_AXIS_UNIT-4 "deg"
*MEAS_COND_AXIS_UNIT-5 "deg"
*MEAS_COND_AXIS_UNIT-6 "deg"
*MEAS_COND_AXIS_UNIT-7 "mm"
*MEAS_COND_AXIS_UNIT-8 ""
*MEAS_COND_AXIS_UNIT-9 "pulse"
*MEAS_COND_AXIS_UNIT-10 ""
*MEAS_COND_AXIS_UNIT-11 ""
*MEAS_COND_AXIS_UNIT-12 "mm"
*MEAS_COND_AXIS_UNIT-13 "mm"
*MEAS_COND_AXIS_UNIT-14 ""
*MEAS_COND_AXIS_UNIT-15 ""
*MEAS_COND_AXIS_UNIT-16 ""
*MEAS_COND_AXIS_UNIT-17 ""
*MEAS_COND_AXIS_UNIT-18 ""
*MEAS_COND_AXIS_UNIT-19 ""
*MEAS_COND_AXIS_UNIT-20 ""
*MEAS_COND_AXIS_UNIT-21 ""
*MEAS_COND_AXIS_UNIT-22 ""
*MEAS_COND_AXIS_UNIT-23 "mm"
*MEAS_COND_AXIS_UNIT-24 "mm"
*MEAS_COND_AXIS_UNIT-25 "mm"
*MEAS_COND_AXIS_UNIT-26 ""
*MEAS_COND_AXIS_UNIT-27 ""
*MEAS_COND_AXIS_UNIT-28 ""
*MEAS_COND_AXIS_UNIT-29 ""
*MEAS_COND_AXIS_UNIT-30 "div"
*MEAS_COND_COUNTER_CNTLOSS_CORR "0.0000000000"
*MEAS_COND_COUNTER_PHABASE "38.0000000000"
*MEAS_COND_COUNTER_PHAWINDOW "16.0000000000"
*MEAS_COND_COUNTER_PHA_UNIT "div"
*MEAS_COND_COUNTER_TAUDIFF "30.0000000000"
*MEAS_COND_COUNTER_TAUINT "0.0000000000"
*MEAS_COND_IRRADIATION_MODE "OFF"
*MEAS_COND_IRRADIATION_WIDTH ""
*MEAS_COND_OPT_ATTR "集中法"
*MEAS_COND_OPT_NAME "@集中法"
*MEAS_COND_UNSYMMETRIC_MODE "OFF"
*MEAS_COND_XG_CURRENT "30.0000000000"
*MEAS_COND_XG_VOLTAGE "40.0000000000"
*MEAS_COND_XG_WAVE_TYPE "Ka"
*MEAS_DATA_COUNT "5001.0000000000"
*MEAS_SCAN_AXIS_X "2θ/θ"
*MEAS_SCAN_AXIS_X_INTERNAL "TwoThetaTheta"
*MEAS_SCAN_END_TIME "07/06/21 12:18:31"
*MEAS_SCAN_MODE "CONTINUOUS"
*MEAS_SCAN_MONITOR "0"
*MEAS_SCAN_RESOLUTION_X "0.0002"
*MEAS_SCAN_SPEED "1.0"
*MEAS_SCAN_SPEED_UNIT "deg/min"
*MEAS_SCAN_START "20.0000000000"
*MEAS_SCAN_START_TIME "07/06/21 11:25:38"
*MEAS_SCAN_STEP "0.0100000000"
*MEAS_SCAN_STOP "70.0000000000"
*MEAS_SCAN_UNIT_X "deg"
*MEAS_SCAN_UNIT_Y "counts"
*RAS_HEADER_END
*RAS_INT_START
20.0000 1629.0000 1.0000
20.0100 1644.0000 1.0000
20.0200 1667.0000 1.0000
20.0300 1692.0000 1.0000
20.0400 1659.0000 1.0000
20.0500 1677.0000 1.0000
20.0600 1646.0000 1.0000
20.0700 1626.0000 1.0000
20.0800 1678.0000 1.0000
20.0900 1623.0000 1.0000
20.1000 1597.0000 1.0000
20.1100 1630.0000 1.0000
20.1200 1691.0000 1.0000
20.1300 1646.0000 1.0000
20.1400 1648.0000 1.0000
20.1500 1593.0000 1.0000
20.1600 1630.0000 1.0000
20.1700 1621.0000 1.0000
20.1800 1663.0000 1.0000
20.1900 1601.0000 1.0000
20.2000 1602.0000 1.0000
20.2100 1638.0000 1.0000
20.2200 1685.0000 1.0000
20.2300 1635.0000 1.0000
20.2400 1639.0000 1.0000
20.2500 1630.0000 1.0000
20.2600 1615.0000 1.0000
20.2700 1669.0000 1.0000
20.2800 1659.0000 1.0000
20.2900 1691.0000 1.0000
20.3000 1672.0000 1.0000
20.3100 1612.0000 1.0000
20.3200 1706.0000 1.0000
20.3300 1658.0000 1.0000
20.3400 1687.0000 1.0000
20.3500 1726.0000 1.0000
20.3600 1641.0000 1.0000
20.3700 1655.0000 1.0000
20.3800 1662.0000 1.0000
20.3900 1671.0000 1.0000
20.4000 1634.0000 1.0000
20.4100 1623.0000 1.0000
20.4200 1702.0000 1.0000
20.4300 1636.0000 1.0000
20.4400 1595.0000 1.0000
20.4500 1705.0000 1.0000
20.4600 1697.0000 1.0000
20.4700 1646.0000 1.0000
20.4800 1641.0000 1.0000
20.4900 1613.0000 1.0000
20.5000 1602.0000 1.0000
20.5100 1668.0000 1.0000
20.5200 1643.0000 1.0000
20.5300 1629.0000 1.0000
20.5400 1622.0000 1.0000
20.5500 1686.0000 1.0000
20.5600 1640.0000 1.0000
20.5700 1654.0000 1.0000
20.5800 1616.0000 1.0000
20.5900 1657.0000 1.0000
20.6000 1706.0000 1.0000
20.6100 1683.0000 1.0000
20.6200 1624.0000 1.0000
20.6300 1630.0000 1.0000
20.6400 1613.0000 1.0000
20.6500 1627.0000 1.0000
20.6600 1595.0000 1.0000
20.6700 1626.0000 1.0000
20.6800 1602.0000 1.0000
20.6900 1664.0000 1.0000
20.7000 1639.0000 1.0000
20.7100 1625.0000 1.0000
20.7200 1681.0000 1.0000
20.7300 1606.0000 1.0000
20.7400 1690.0000 1.0000
20.7500 1646.0000 1.0000
20.7600 1675.0000 1.0000
20.7700 1622.0000 1.0000
20.7800 1638.0000 1.0000
20.7900 1630.0000 1.0000
20.8000 1665.0000 1.0000
20.8100 1608.0000 1.0000
20.8200 1636.0000 1.0000
20.8300 1621.0000 1.0000
20.8400 1646.0000 1.0000
20.8500 1647.0000 1.0000
20.8600 1659.0000 1.0000
20.8700 1651.0000 1.0000
20.8800 1643.0000 1.0000
20.8900 1637.0000 1.0000
20.9000 1683.0000 1.0000
20.9100 1654.0000 1.0000
20.9200 1636.0000 1.0000
20.9300 1613.0000 1.0000
20.9400 1630.0000 1.0000
20.9500 1609.0000 1.0000
20.9600 1596.0000 1.0000
20.9700 1635.0000 1.0000
20.9800 1600.0000 1.0000
20.9900 1606.0000 1.0000
21.0000 1659.0000 1.0000
21.0100 1688.0000 1.0000
21.0200 1617.0000 1.0000
21.0300 1712.0000 1.0000
21.0400 1643.0000 1.0000
21.0500 1709.0000 1.0000
21.0600 1658.0000 1.0000
21.0700 1643.0000 1.0000
21.0800 1671.0000 1.0000
21.0900 1705.0000 1.0000
21.1000 1717.0000 1.0000
21.1100 1691.0000 1.0000
21.1200 1688.0000 1.0000
21.1300 1669.0000 1.0000
21.1400 1660.0000 1.0000
21.1500 1620.0000 1.0000
21.1600 1707.0000 1.0000
21.1700 1689.0000 1.0000
21.1800 1590.0000 1.0000
21.1900 1682.0000 1.0000
21.2000 1738.0000 1.0000
21.2100 1691.0000 1.0000
21.2200 1652.0000 1.0000
21.2300 1687.0000 1.0000
21.2400 1649.0000 1.0000
21.2500 1645.0000 1.0000
21.2600 1670.0000 1.0000
21.2700 1648.0000 1.0000
21.2800 1697.0000 1.0000
21.2900 1630.0000 1.0000
21.3000 1605.0000 1.0000
21.3100 1641.0000 1.0000
21.3200 1647.0000 1.0000
21.3300 1670.0000 1.0000
21.3400 1655.0000 1.0000
21.3500 1644.0000 1.0000
21.3600 1682.0000 1.0000
21.3700 1695.0000 1.0000
21.3800 1688.0000 1.0000
21.3900 1699.0000 1.0000
21.4000 1685.0000 1.0000
21.4100 1680.0000 1.0000
21.4200 1649.0000 1.0000
21.4300 1685.0000 1.0000
21.4400 1691.0000 1.0000
21.4500 1678.0000 1.0000
21.4600 1608.0000 1.0000
21.4700 1690.0000 1.0000
21.4800 1643.0000 1.0000
21.4900 1673.0000 1.0000
21.5000 1734.0000 1.0000
21.5100 1632.0000 1.0000
21.5200 1667.0000 1.0000
21.5300 1669.0000 1.0000
21.5400 1679.0000 1.0000
21.5500 1590.0000 1.0000
21.5600 1658.0000 1.0000
21.5700 1686.0000 1.0000
21.5800 1685.0000 1.0000
21.5900 1680.0000 1.0000
21.6000 1624.0000 1.0000
21.6100 1674.0000 1.0000
21.6200 1680.0000 1.0000
21.6300 1663.0000 1.0000
21.6400 1588.0000 1.0000
21.6500 1658.0000 1.0000
21.6600 1634.0000 1.0000
21.6700 1609.0000 1.0000
21.6800 1696.0000 1.0000
21.6900 1667.0000 1.0000
21.7000 1609.0000 1.0000
21.7100 1640.0000 1.0000
21.7200 1649.0000 1.0000
21.7300 1674.0000 1.0000
21.7400 1667.0000 1.0000
21.7500 1676.0000 1.0000
21.7600 1641.0000 1.0000
21.7700 1692.0000 1.0000
21.7800 1679.0000 1.0000
21.7900 1744.0000 1.0000
21.8000 1751.0000 1.0000
21.8100 1629.0000 1.0000
21.8200 1690.0000 1.0000
21.8300 1692.0000 1.0000
21.8400 1742.0000 1.0000
21.8500 1742.0000 1.0000
21.8600 1699.0000 1.0000
21.8700 1720.0000 1.0000
21.8800 1675.0000 1.0000
21.8900 1660.0000 1.0000
21.9000 1657.0000 1.0000
21.9100 1676.0000 1.0000
21.9200 1684.0000 1.0000
21.9300 1712.0000 1.0000
21.9400 1729.0000 1.0000
21.9500 1668.0000 1.0000
21.9600 1654.0000 1.0000
21.9700 1663.0000 1.0000
21.9800 1735.0000 1.0000
21.9900 1679.0000 1.0000
22.0000 1678.0000 1.0000
22.0100 1667.0000 1.0000
22.0200 1674.0000 1.0000
22.0300 1721.0000 1.0000
22.0400 1651.0000 1.0000
22.0500 1581.0000 1.0000
22.0600 1690.0000 1.0000
22.0700 1652.0000 1.0000
22.0800 1742.0000 1.0000
22.0900 1682.0000 1.0000
22.1000 1725.0000 1.0000
22.1100 1700.0000 1.0000
22.1200 1671.0000 1.0000
22.1300 1665.0000 1.0000
22.1400 1699.0000 1.0000
22.1500 1725.0000 1.0000
22.1600 1663.0000 1.0000
22.1700 1699.0000 1.0000
22.1800 1698.0000 1.0000
22.1900 1708.0000 1.0000
22.2000 1661.0000 1.0000
22.2100 1729.0000 1.0000
22.2200 1758.0000 1.0000
22.2300 1731.0000 1.0000
22.2400 1673.0000 1.0000
22.2500 1712.0000 1.0000
22.2600 1657.0000 1.0000
22.2700 1605.0000 1.0000
22.2800 1659.0000 1.0000
22.2900 1685.0000 1.0000
22.3000 1670.0000 1.0000
22.3100 1659.0000 1.0000
22.3200 1761.0000 1.0000
22.3300 1689.0000 1.0000
22.3400 1736.0000 1.0000
22.3500 1729.0000 1.0000
22.3600 1706.0000 1.0000
22.3700 1701.0000 1.0000
22.3800 1708.0000 1.0000
22.3900 1663.0000 1.0000
22.4000 1638.0000 1.0000
22.4100 1688.0000 1.0000
22.4200 1742.0000 1.0000
22.4300 1623.0000 1.0000
22.4400 1644.0000 1.0000
22.4500 1661.0000 1.0000
22.4600 1674.0000 1.0000
22.4700 1744.0000 1.0000
22.4800 1638.0000 1.0000
22.4900 1689.0000 1.0000
22.5000 1661.0000 1.0000
22.5100 1737.0000 1.0000
22.5200 1634.0000 1.0000
22.5300 1733.0000 1.0000
22.5400 1727.0000 1.0000
22.5500 1747.0000 1.0000
22.5600 1700.0000 1.0000
22.5700 1638.0000 1.0000
22.5800 1662.0000 1.0000
22.5900 1641.0000 1.0000
22.6000 1713.0000 1.0000
22.6100 1674.0000 1.0000
22.6200 1776.0000 1.0000
22.6300 1709.0000 1.0000
22.6400 1764.0000 1.0000
22.6500 1683.0000 1.0000
22.6600 1701.0000 1.0000
22.6700 1670.0000 1.0000
22.6800 1668.0000 1.0000
22.6900 1701.0000 1.0000
22.7000 1667.0000 1.0000
22.7100 1623.0000 1.0000
22.7200 1708.0000 1.0000
22.7300 1662.0000 1.0000
22.7400 1667.0000 1.0000
22.7500 1740.0000 1.0000
22.7600 1714.0000 1.0000
22.7700 1715.0000 1.0000
22.7800 1720.0000 1.0000
22.7900 1725.0000 1.0000
22.8000 1738.0000 1.0000
22.8100 1700.0000 1.0000
22.8200 1668.0000 1.0000
22.8300 1750.0000 1.0000
22.8400 1739.0000 1.0000
22.8500 1736.0000 1.0000
22.8600 1711.0000 1.0000
22.8700 1726.0000 1.0000
22.8800 1719.0000 1.0000
22.8900 1691.0000 1.0000
22.9000 1707.0000 1.0000
22.9100 1677.0000 1.0000
22.9200 1679.0000 1.0000
22.9300 1636.0000 1.0000
22.9400 1703.0000 1.0000
22.9500 1700.0000 1.0000
22.9600 1739.0000 1.0000
22.9700 1657.0000 1.0000
22.9800 1689.0000 1.0000
22.9900 1708.0000 1.0000
23.0000 1688.0000 1.0000
23.0100 1700.0000 1.0000
23.0200 1657.0000 1.0000
23.0300 1649.0000 1.0000
23.0400 1721.0000 1.0000
23.0500 1738.0000 1.0000
23.0600 1667.0000 1.0000
23.0700 1692.0000 1.0000
23.0800 1728.0000 1.0000
23.0900 1719.0000 1.0000
23.1000 1712.0000 1.0000
23.1100 1699.0000 1.0000
23.1200 1704.0000 1.0000
23.1300 1685.0000 1.0000
23.1400 1727.0000 1.0000
23.1500 1778.0000 1.0000
23.1600 1733.0000 1.0000
23.1700 1711.0000 1.0000
23.1800 1746.0000 1.0000
23.1900 1678.0000 1.0000
23.2000 1647.0000 1.0000
23.2100 1719.0000 1.0000
23.2200 1725.0000 1.0000
23.2300 1717.0000 1.0000
23.2400 1687.0000 1.0000
23.2500 1656.0000 1.0000
23.2600 1716.0000 1.0000
23.2700 1675.0000 1.0000
23.2800 1754.0000 1.0000
23.2900 1741.0000 1.0000
23.3000 1713.0000 1.0000
23.3100 1689.0000 1.0000
23.3200 1676.0000 1.0000
23.3300 1735.0000 1.0000
23.3400 1634.0000 1.0000
23.3500 1720.0000 1.0000
23.3600 1707.0000 1.0000
23.3700 1719.0000 1.0000
23.3800 1654.0000 1.0000
23.3900 1698.0000 1.0000
23.4000 1757.0000 1.0000
23.4100 1704.0000 1.0000
23.4200 1650.0000 1.0000
23.4300 1701.0000 1.0000
23.4400 1648.0000 1.0000
23.4500 1739.0000 1.0000
23.4600 1649.0000 1.0000
23.4700 1636.0000 1.0000
23.4800 1686.0000 1.0000
23.4900 1731.0000 1.0000
23.5000 1698.0000 1.0000
23.5100 1710.0000 1.0000
23.5200 1738.0000 1.0000
23.5300 1721.0000 1.0000
23.5400 1668.0000 1.0000
23.5500 1739.0000 1.0000
23.5600 1759.0000 1.0000
23.5700 1718.0000 1.0000
23.5800 1723.0000 1.0000
23.5900 1668.0000 1.0000
23.6000 1669.0000 1.0000
23.6100 1718.0000 1.0000
23.6200 1710.0000 1.0000
23.6300 1737.0000 1.0000
23.6400 1760.0000 1.0000
23.6500 1720.0000 1.0000
23.6600 1709.0000 1.0000
23.6700 1703.0000 1.0000
23.6800 1807.0000 1.0000
23.6900 1715.0000 1.0000
23.7000 1706.0000 1.0000
23.7100 1730.0000 1.0000
23.7200 1709.0000 1.0000
23.7300 1711.0000 1.0000
23.7400 1726.0000 1.0000
23.7500 1703.0000 1.0000
23.7600 1707.0000 1.0000
23.7700 1703.0000 1.0000
23.7800 1729.0000 1.0000
23.7900 1699.0000 1.0000
23.8000 1722.0000 1.0000
23.8100 1728.0000 1.0000
23.8200 1710.0000 1.0000
23.8300 1785.0000 1.0000
23.8400 1725.0000 1.0000
23.8500 1802.0000 1.0000
23.8600 1660.0000 1.0000
23.8700 1739.0000 1.0000
23.8800 1745.0000 1.0000
23.8900 1737.0000 1.0000
23.9000 1749.0000 1.0000
23.9100 1710.0000 1.0000
23.9200 1709.0000 1.0000
23.9300 1681.0000 1.0000
23.9400 1774.0000 1.0000
23.9500 1779.0000 1.0000
23.9600 1715.0000 1.0000
23.9700 1695.0000 1.0000
23.9800 1697.0000 1.0000
23.9900 1782.0000 1.0000
24.0000 1763.0000 1.0000
24.0100 1764.0000 1.0000
24.0200 1726.0000 1.0000
24.0300 1690.0000 1.0000
24.0400 1732.0000 1.0000
24.0500 1693.0000 1.0000
24.0600 1691.0000 1.0000
24.0700 1699.0000 1.0000
24.0800 1676.0000 1.0000
24.0900 1695.0000 1.0000
24.1000 1713.0000 1.0000
24.1100 1774.0000 1.0000
24.1200 1698.0000 1.0000
24.1300 1731.0000 1.0000
24.1400 1737.0000 1.0000
24.1500 1761.0000 1.0000
24.1600 1678.0000 1.0000
24.1700 1754.0000 1.0000
24.1800 1757.0000 1.0000
24.1900 1655.0000 1.0000
24.2000 1724.0000 1.0000
24.2100 1731.0000 1.0000
24.2200 1718.0000 1.0000
24.2300 1694.0000 1.0000
24.2400 1703.0000 1.0000
24.2500 1730.0000 1.0000
24.2600 1749.0000 1.0000
24.2700 1697.0000 1.0000
24.2800 1763.0000 1.0000
24.2900 1711.0000 1.0000
24.3000 1685.0000 1.0000
24.3100 1731.0000 1.0000
24.3200 1732.0000 1.0000
24.3300 1790.0000 1.0000
24.3400 1713.0000 1.0000
24.3500 1681.0000 1.0000
24.3600 1675.0000 1.0000
24.3700 1766.0000 1.0000
24.3800 1669.0000 1.0000
24.3900 1687.0000 1.0000
24.4000 1694.0000 1.0000
24.4100 1672.0000 1.0000
24.4200 1728.0000 1.0000
24.4300 1772.0000 1.0000
24.4400 1757.0000 1.0000
24.4500 1784.0000 1.0000
24.4600 1681.0000 1.0000
24.4700 1712.0000 1.0000
24.4800 1735.0000 1.0000
24.4900 1753.0000 1.0000
24.5000 1765.0000 1.0000
24.5100 1776.0000 1.0000
24.5200 1770.0000 1.0000
24.5300 1732.0000 1.0000
24.5400 1759.0000 1.0000
24.5500 1842.0000 1.0000
24.5600 1751.0000 1.0000
24.5700 1758.0000 1.0000
24.5800 1755.0000 1.0000
24.5900 1767.0000 1.0000
24.6000 1713.0000 1.0000
24.6100 1763.0000 1.0000
24.6200 1802.0000 1.0000
24.6300 1735.0000 1.0000
24.6400 1728.0000 1.0000
24.6500 1692.0000 1.0000
24.6600 1736.0000 1.0000
24.6700 1813.0000 1.0000
24.6800 1806.0000 1.0000
24.6900 1746.0000 1.0000
24.7000 1817.0000 1.0000
24.7100 1758.0000 1.0000
24.7200 1715.0000 1.0000
24.7300 1681.0000 1.0000
24.7400 1753.0000 1.0000
24.7500 1747.0000 1.0000
24.7600 1753.0000 1.0000
24.7700 1827.0000 1.0000
24.7800 1748.0000 1.0000
24.7900 1784.0000 1.0000
24.8000 1778.0000 1.0000
24.8100 1808.0000 1.0000
24.8200 1753.0000 1.0000
24.8300 1767.0000 1.0000
24.8400 1713.0000 1.0000
24.8500 1759.0000 1.0000
24.8600 1776.0000 1.0000
24.8700 1801.0000 1.0000
24.8800 1802.0000 1.0000
24.8900 1790.0000 1.0000
24.9000 1788.0000 1.0000
24.9100 1833.0000 1.0000
24.9200 1806.0000 1.0000
24.9300 1763.0000 1.0000
24.9400 1811.0000 1.0000
24.9500 1834.0000 1.0000
24.9600 1729.0000 1.0000
24.9700 1837.0000 1.0000
24.9800 1830.0000 1.0000
24.9900 1817.0000 1.0000
25.0000 1796.0000 1.0000
25.0100 1850.0000 1.0000
25.0200 1896.0000 1.0000
25.0300 1773.0000 1.0000
25.0400 1806.0000 1.0000
25.0500 1805.0000 1.0000
25.0600 1712.0000 1.0000
25.0700 1867.0000 1.0000
25.0800 1872.0000 1.0000
25.0900 1777.0000 1.0000
25.1000 1824.0000 1.0000
25.1100 1792.0000 1.0000
25.1200 1782.0000 1.0000
25.1300 1811.0000 1.0000
25.1400 1766.0000 1.0000
25.1500 1777.0000 1.0000
25.1600 1764.0000 1.0000
25.1700 1840.0000 1.0000
25.1800 1823.0000 1.0000
25.1900 1769.0000 1.0000
25.2000 1830.0000 1.0000
25.2100 1793.0000 1.0000
25.2200 1729.0000 1.0000
25.2300 1703.0000 1.0000
25.2400 1797.0000 1.0000
25.2500 1798.0000 1.0000
25.2600 1825.0000 1.0000
25.2700 1842.0000 1.0000
25.2800 1770.0000 1.0000
25.2900 1792.0000 1.0000
25.3000 1815.0000 1.0000
25.3100 1765.0000 1.0000
25.3200 1794.0000 1.0000
25.3300 1794.0000 1.0000
25.3400 1812.0000 1.0000
25.3500 1803.0000 1.0000
25.3600 1793.0000 1.0000
25.3700 1768.0000 1.0000
25.3800 1793.0000 1.0000
25.3900 1840.0000 1.0000
25.4000 1790.0000 1.0000
25.4100 1840.0000 1.0000
25.4200 1751.0000 1.0000
25.4300 1781.0000 1.0000
25.4400 1814.0000 1.0000
25.4500 1818.0000 1.0000
25.4600 1757.0000 1.0000
25.4700 1805.0000 1.0000
25.4800 1757.0000 1.0000
25.4900 1794.0000 1.0000
25.5000 1832.0000 1.0000
25.5100 1779.0000 1.0000
25.5200 1785.0000 1.0000
25.5300 1784.0000 1.0000
25.5400 1842.0000 1.0000
25.5500 1737.0000 1.0000
25.5600 1764.0000 1.0000
25.5700 1750.0000 1.0000
25.5800 1840.0000 1.0000
25.5900 1777.0000 1.0000
25.6000 1786.0000 1.0000
25.6100 1811.0000 1.0000
25.6200 1763.0000 1.0000
25.6300 1859.0000 1.0000
25.6400 1707.0000 1.0000
25.6500 1691.0000 1.0000
25.6600 1759.0000 1.0000
25.6700 1745.0000 1.0000
25.6800 1730.0000 1.0000
25.6900 1762.0000 1.0000
25.7000 1838.0000 1.0000
25.7100 1771.0000 1.0000
25.7200 1743.0000 1.0000
25.7300 1788.0000 1.0000
25.7400 1691.0000 1.0000
25.7500 1799.0000 1.0000
25.7600 1747.0000 1.0000
25.7700 1764.0000 1.0000
25.7800 1777.0000 1.0000
25.7900 1763.0000 1.0000
25.8000 1723.0000 1.0000
25.8100 1803.0000 1.0000
25.8200 1797.0000 1.0000
25.8300 1800.0000 1.0000
25.8400 1759.0000 1.0000
25.8500 1773.0000 1.0000
25.8600 1775.0000 1.0000
25.8700 1741.0000 1.0000
25.8800 1781.0000 1.0000
25.8900 1723.0000 1.0000
25.9000 1726.0000 1.0000
25.9100 1781.0000 1.0000
25.9200 1745.0000 1.0000
25.9300 1785.0000 1.0000
25.9400 1795.0000 1.0000
25.9500 1765.0000 1.0000
25.9600 1725.0000 1.0000
25.9700 1752.0000 1.0000
25.9800 1853.0000 1.0000
25.9900 1832.0000 1.0000
26.0000 1787.0000 1.0000
26.0100 1794.0000 1.0000
26.0200 1798.0000 1.0000
26.0300 1700.0000 1.0000
26.0400 1809.0000 1.0000
26.0500 1787.0000 1.0000
26.0600 1810.0000 1.0000
26.0700 1745.0000 1.0000
26.0800 1775.0000 1.0000
26.0900 1800.0000 1.0000
26.1000 1792.0000 1.0000
26.1100 1713.0000 1.0000
26.1200 1789.0000 1.0000
26.1300 1727.0000 1.0000
26.1400 1739.0000 1.0000
26.1500 1781.0000 1.0000
26.1600 1763.0000 1.0000
26.1700 1858.0000 1.0000
26.1800 1804.0000 1.0000
26.1900 1764.0000 1.0000
26.2000 1790.0000 1.0000
26.2100 1749.0000 1.0000
26.2200 1773.0000 1.0000
26.2300 1874.0000 1.0000
26.2400 1871.0000 1.0000
26.2500 1820.0000 1.0000
26.2600 1761.0000 1.0000
26.2700 1790.0000 1.0000
26.2800 1780.0000 1.0000
26.2900 1759.0000 1.0000
26.3000 1840.0000 1.0000
26.3100 1825.0000 1.0000
26.3200 1828.0000 1.0000
26.3300 1838.0000 1.0000
26.3400 1855.0000 1.0000
26.3500 1883.0000 1.0000
26.3600 1808.0000 1.0000
26.3700 1847.0000 1.0000
26.3800 1800.0000 1.0000
26.3900 1854.0000 1.0000
26.4000 1859.0000 1.0000
26.4100 1889.0000 1.0000
26.4200 1859.0000 1.0000
26.4300 1841.0000 1.0000
26.4400 1790.0000 1.0000
26.4500 1844.0000 1.0000
26.4600 1898.0000 1.0000
26.4700 1915.0000 1.0000
26.4800 1864.0000 1.0000
26.4900 1849.0000 1.0000
26.5000 1867.0000 1.0000
26.5100 1873.0000 1.0000
26.5200 1845.0000 1.0000
26.5300 1855.0000 1.0000
26.5400 1894.0000 1.0000
26.5500 1813.0000 1.0000
26.5600 1824.0000 1.0000
26.5700 1868.0000 1.0000
26.5800 1945.0000 1.0000
26.5900 1837.0000 1.0000
26.6000 1868.0000 1.0000
26.6100 1871.0000 1.0000
26.6200 1835.0000 1.0000
26.6300 1806.0000 1.0000
26.6400 1877.0000 1.0000
26.6500 1913.0000 1.0000
26.6600 1969.0000 1.0000
26.6700 1849.0000 1.0000
26.6800 1832.0000 1.0000
26.6900 1899.0000 1.0000
26.7000 1961.0000 1.0000
26.7100 1944.0000 1.0000
26.7200 1963.0000 1.0000
26.7300 1944.0000 1.0000
26.7400 1874.0000 1.0000
26.7500 1967.0000 1.0000
26.7600 1939.0000 1.0000
26.7700 1880.0000 1.0000
26.7800 1952.0000 1.0000
26.7900 2029.0000 1.0000
26.8000 1978.0000 1.0000
26.8100 2021.0000 1.0000
26.8200 2036.0000 1.0000
26.8300 1961.0000 1.0000
26.8400 1968.0000 1.0000
26.8500 2048.0000 1.0000
26.8600 2050.0000 1.0000
26.8700 2077.0000 1.0000
26.8800 2049.0000 1.0000
26.8900 2017.0000 1.0000
26.9000 2148.0000 1.0000
26.9100 2129.0000 1.0000
26.9200 2151.0000 1.0000
26.9300 2166.0000 1.0000
26.9400 2171.0000 1.0000
26.9500 2249.0000 1.0000
26.9600 2261.0000 1.0000
26.9700 2345.0000 1.0000
26.9800 2291.0000 1.0000
26.9900 2313.0000 1.0000
27.0000 2421.0000 1.0000
27.0100 2412.0000 1.0000
27.0200 2470.0000 1.0000
27.0300 2524.0000 1.0000
27.0400 2561.0000 1.0000
27.0500 2658.0000 1.0000
27.0600 2686.0000 1.0000
27.0700 2777.0000 1.0000
27.0800 2931.0000 1.0000
27.0900 2941.0000 1.0000
27.1000 3037.0000 1.0000
27.1100 3135.0000 1.0000
27.1200 3244.0000 1.0000
27.1300 3293.0000 1.0000
27.1400 3406.0000 1.0000
27.1500 3574.0000 1.0000
27.1600 3763.0000 1.0000
27.1700 3996.0000 1.0000
27.1800 4106.0000 1.0000
27.1900 4333.0000 1.0000
27.2000 4529.0000 1.0000
27.2100 4808.0000 1.0000
27.2200 5027.0000 1.0000
27.2300 5212.0000 1.0000
27.2400 5488.0000 1.0000
27.2500 5734.0000 1.0000
27.2600 5993.0000 1.0000
27.2700 6134.0000 1.0000
27.2800 6234.0000 1.0000
27.2900 6416.0000 1.0000
27.3000 6411.0000 1.0000
27.3100 6421.0000 1.0000
27.3200 6560.0000 1.0000
27.3300 6426.0000 1.0000
27.3400 6171.0000 1.0000
27.3500 6044.0000 1.0000
27.3600 5891.0000 1.0000
27.3700 5602.0000 1.0000
27.3800 5458.0000 1.0000
27.3900 5129.0000 1.0000
27.4000 4836.0000 1.0000
27.4100 4575.0000 1.0000
27.4200 4475.0000 1.0000
27.4300 4205.0000 1.0000
27.4400 3989.0000 1.0000
27.4500 3886.0000 1.0000
27.4600 3707.0000 1.0000
27.4700 3492.0000 1.0000
27.4800 3394.0000 1.0000
27.4900 3142.0000 1.0000
27.5000 3108.0000 1.0000
27.5100 2987.0000 1.0000
27.5200 2976.0000 1.0000
27.5300 2869.0000 1.0000
27.5400 2844.0000 1.0000
27.5500 2709.0000 1.0000
27.5600 2628.0000 1.0000
27.5700 2590.0000 1.0000
27.5800 2550.0000 1.0000
27.5900 2458.0000 1.0000
27.6000 2400.0000 1.0000
27.6100 2351.0000 1.0000
27.6200 2414.0000 1.0000
27.6300 2465.0000 1.0000
27.6400 2322.0000 1.0000
27.6500 2228.0000 1.0000
27.6600 2190.0000 1.0000
27.6700 2235.0000 1.0000
27.6800 2119.0000 1.0000
27.6900 2130.0000 1.0000
27.7000 2091.0000 1.0000
27.7100 2162.0000 1.0000
27.7200 2118.0000 1.0000
27.7300 2019.0000 1.0000
27.7400 2060.0000 1.0000
27.7500 2049.0000 1.0000
27.7600 2012.0000 1.0000
27.7700 1986.0000 1.0000
27.7800 2037.0000 1.0000
27.7900 1961.0000 1.0000
27.8000 2014.0000 1.0000
27.8100 1957.0000 1.0000
27.8200 2063.0000 1.0000
27.8300 1974.0000 1.0000
27.8400 1930.0000 1.0000
27.8500 1927.0000 1.0000
27.8600 1999.0000 1.0000
27.8700 1929.0000 1.0000
27.8800 1945.0000 1.0000
27.8900 1907.0000 1.0000
27.9000 1879.0000 1.0000
27.9100 1887.0000 1.0000
27.9200 1873.0000 1.0000
27.9300 1859.0000 1.0000
27.9400 1827.0000 1.0000
27.9500 1860.0000 1.0000
27.9600 1859.0000 1.0000
27.9700 1855.0000 1.0000
27.9800 1885.0000 1.0000
27.9900 1855.0000 1.0000
28.0000 1887.0000 1.0000
28.0100 1804.0000 1.0000
28.0200 1846.0000 1.0000
28.0300 1794.0000 1.0000
28.0400 1859.0000 1.0000
28.0500 1836.0000 1.0000
28.0600 1829.0000 1.0000
28.0700 1745.0000 1.0000
28.0800 1813.0000 1.0000
28.0900 1805.0000 1.0000
28.1000 1801.0000 1.0000
28.1100 1816.0000 1.0000
28.1200 1786.0000 1.0000
28.1300 1875.0000 1.0000
28.1400 1805.0000 1.0000
28.1500 1816.0000 1.0000
28.1600 1740.0000 1.0000
28.1700 1829.0000 1.0000
28.1800 1762.0000 1.0000
28.1900 1754.0000 1.0000
28.2000 1756.0000 1.0000
28.2100 1737.0000 1.0000
28.2200 1821.0000 1.0000
28.2300 1753.0000 1.0000
28.2400 1773.0000 1.0000
28.2500 1799.0000 1.0000
28.2600 1781.0000 1.0000
28.2700 1728.0000 1.0000
28.2800 1734.0000 1.0000
28.2900 1755.0000 1.0000
28.3000 1746.0000 1.0000
28.3100 1765.0000 1.0000
28.3200 1723.0000 1.0000
28.3300 1772.0000 1.0000
28.3400 1751.0000 1.0000
28.3500 1783.0000 1.0000
28.3600 1772.0000 1.0000
28.3700 1750.0000 1.0000
28.3800 1746.0000 1.0000
28.3900 1690.0000 1.0000
28.4000 1700.0000 1.0000
28.4100 1735.0000 1.0000
28.4200 1765.0000 1.0000
28.4300 1751.0000 1.0000
28.4400 1754.0000 1.0000
28.4500 1676.0000 1.0000
28.4600 1768.0000 1.0000
28.4700 1690.0000 1.0000
28.4800 1778.0000 1.0000
28.4900 1741.0000 1.0000
28.5000 1715.0000 1.0000
28.5100 1715.0000 1.0000
28.5200 1744.0000 1.0000
28.5300 1758.0000 1.0000
28.5400 1663.0000 1.0000
28.5500 1705.0000 1.0000
28.5600 1717.0000 1.0000
28.5700 1683.0000 1.0000
28.5800 1736.0000 1.0000
28.5900 1742.0000 1.0000
28.6000 1742.0000 1.0000
28.6100 1762.0000 1.0000
28.6200 1641.0000 1.0000
28.6300 1682.0000 1.0000
28.6400 1775.0000 1.0000
28.6500 1744.0000 1.0000
28.6600 1715.0000 1.0000
28.6700 1709.0000 1.0000
28.6800 1681.0000 1.0000
28.6900 1678.0000 1.0000
28.7000 1721.0000 1.0000
28.7100 1668.0000 1.0000
28.7200 1692.0000 1.0000
28.7300 1691.0000 1.0000
28.7400 1704.0000 1.0000
28.7500 1675.0000 1.0000
28.7600 1734.0000 1.0000
28.7700 1733.0000 1.0000
28.7800 1728.0000 1.0000
28.7900 1713.0000 1.0000
28.8000 1608.0000 1.0000
28.8100 1640.0000 1.0000
28.8200 1701.0000 1.0000
28.8300 1674.0000 1.0000
28.8400 1659.0000 1.0000
28.8500 1720.0000 1.0000
28.8600 1656.0000 1.0000
28.8700 1628.0000 1.0000
28.8800 1671.0000 1.0000
28.8900 1699.0000 1.0000
28.9000 1691.0000 1.0000
28.9100 1710.0000 1.0000
28.9200 1607.0000 1.0000
28.9300 1714.0000 1.0000
28.9400 1730.0000 1.0000
28.9500 1712.0000 1.0000
28.9600 1682.0000 1.0000
28.9700 1783.0000 1.0000
28.9800 1682.0000 1.0000
28.9900 1624.0000 1.0000
29.0000 1679.0000 1.0000
29.0100 1655.0000 1.0000
29.0200 1650.0000 1.0000
29.0300 1567.0000 1.0000
29.0400 1658.0000 1.0000
29.0500 1658.0000 1.0000
29.0600 1705.0000 1.0000
29.0700 1731.0000 1.0000
29.0800 1725.0000 1.0000
29.0900 1625.0000 1.0000
29.1000 1724.0000 1.0000
29.1100 1672.0000 1.0000
29.1200 1652.0000 1.0000
29.1300 1670.0000 1.0000
29.1400 1621.0000 1.0000
29.1500 1645.0000 1.0000
29.1600 1628.0000 1.0000
29.1700 1703.0000 1.0000
29.1800 1707.0000 1.0000
29.1900 1659.0000 1.0000
29.2000 1716.0000 1.0000
29.2100 1615.0000 1.0000
29.2200 1643.0000 1.0000
29.2300 1666.0000 1.0000
29.2400 1657.0000 1.0000
29.2500 1688.0000 1.0000
29.2600 1636.0000 1.0000
29.2700 1619.0000 1.0000
29.2800 1659.0000 1.0000
29.2900 1678.0000 1.0000
29.3000 1668.0000 1.0000
29.3100 1678.0000 1.0000
29.3200 1660.0000 1.0000
29.3300 1656.0000 1.0000
29.3400 1649.0000 1.0000
29.3500 1582.0000 1.0000
29.3600 1635.0000 1.0000
29.3700 1648.0000 1.0000
29.3800 1697.0000 1.0000
29.3900 1639.0000 1.0000
29.4000 1688.0000 1.0000
29.4100 1644.0000 1.0000
29.4200 1677.0000 1.0000
29.4300 1605.0000 1.0000
29.4400 1615.0000 1.0000
29.4500 1675.0000 1.0000
29.4600 1672.0000 1.0000
29.4700 1603.0000 1.0000
29.4800 1645.0000 1.0000
29.4900 1602.0000 1.0000
29.5000 1670.0000 1.0000
29.5100 1622.0000 1.0000
29.5200 1707.0000 1.0000
29.5300 1656.0000 1.0000
29.5400 1652.0000 1.0000
29.5500 1650.0000 1.0000
29.5600 1649.0000 1.0000
29.5700 1675.0000 1.0000
29.5800 1622.0000 1.0000
29.5900 1602.0000 1.0000
29.6000 1678.0000 1.0000
29.6100 1614.0000 1.0000
29.6200 1682.0000 1.0000
29.6300 1674.0000 1.0000
29.6400 1590.0000 1.0000
29.6500 1643.0000 1.0000
29.6600 1627.0000 1.0000
29.6700 1642.0000 1.0000
29.6800 1582.0000 1.0000
29.6900 1571.0000 1.0000
29.7000 1596.0000 1.0000
29.7100 1637.0000 1.0000
29.7200 1551.0000 1.0000
29.7300 1671.0000 1.0000
29.7400 1596.0000 1.0000
29.7500 1579.0000 1.0000
29.7600 1595.0000 1.0000
29.7700 1612.0000 1.0000
29.7800 1605.0000 1.0000
29.7900 1691.0000 1.0000
29.8000 1653.0000 1.0000
29.8100 1675.0000 1.0000
29.8200 1675.0000 1.0000
29.8300 1679.0000 1.0000
29.8400 1608.0000 1.0000
29.8500 1606.0000 1.0000
29.8600 1628.0000 1.0000
29.8700 1607.0000 1.0000
29.8800 1627.0000 1.0000
29.8900 1620.0000 1.0000
29.9000 1650.0000 1.0000
29.9100 1596.0000 1.0000
29.9200 1594.0000 1.0000
29.9300 1561.0000 1.0000
29.9400 1602.0000 1.0000
29.9500 1594.0000 1.0000
29.9600 1562.0000 1.0000
29.9700 1524.0000 1.0000
29.9800 1598.0000 1.0000
29.9900 1613.0000 1.0000
30.0000 1616.0000 1.0000
30.0100 1583.0000 1.0000
30.0200 1601.0000 1.0000
30.0300 1604.0000 1.0000
30.0400 1589.0000 1.0000
30.0500 1607.0000 1.0000
30.0600 1561.0000 1.0000
30.0700 1606.0000 1.0000
30.0800 1604.0000 1.0000
30.0900 1596.0000 1.0000
30.1000 1623.0000 1.0000
30.1100 1538.0000 1.0000
30.1200 1533.0000 1.0000
30.1300 1562.0000 1.0000
30.1400 1642.0000 1.0000
30.1500 1533.0000 1.0000
30.1600 1660.0000 1.0000
30.1700 1562.0000 1.0000
30.1800 1593.0000 1.0000
30.1900 1566.0000 1.0000
30.2000 1592.0000 1.0000
30.2100 1596.0000 1.0000
30.2200 1538.0000 1.0000
30.2300 1608.0000 1.0000
30.2400 1614.0000 1.0000
30.2500 1543.0000 1.0000
30.2600 1603.0000 1.0000
30.2700 1540.0000 1.0000
30.2800 1579.0000 1.0000
30.2900 1628.0000 1.0000
30.3000 1597.0000 1.0000
30.3100 1653.0000 1.0000
30.3200 1584.0000 1.0000
30.3300 1651.0000 1.0000
30.3400 1629.0000 1.0000
30.3500 1608.0000 1.0000
30.3600 1618.0000 1.0000
30.3700 1577.0000 1.0000
30.3800 1551.0000 1.0000
30.3900 1570.0000 1.0000
30.4000 1531.0000 1.0000
30.4100 1558.0000 1.0000
30.4200 1584.0000 1.0000
30.4300 1681.0000 1.0000
30.4400 1570.0000 1.0000
30.4500 1598.0000 1.0000
30.4600 1594.0000 1.0000
30.4700 1567.0000 1.0000
30.4800 1521.0000 1.0000
30.4900 1594.0000 1.0000
30.5000 1574.0000 1.0000
30.5100 1626.0000 1.0000
30.5200 1604.0000 1.0000
30.5300 1553.0000 1.0000
30.5400 1558.0000 1.0000
30.5500 1563.0000 1.0000
30.5600 1585.0000 1.0000
30.5700 1553.0000 1.0000
30.5800 1517.0000 1.0000
30.5900 1559.0000 1.0000
30.6000 1644.0000 1.0000
30.6100 1506.0000 1.0000
30.6200 1532.0000 1.0000
30.6300 1556.0000 1.0000
30.6400 1552.0000 1.0000
30.6500 1512.0000 1.0000
30.6600 1594.0000 1.0000
30.6700 1570.0000 1.0000
30.6800 1616.0000 1.0000
30.6900 1551.0000 1.0000
30.7000 1572.0000 1.0000
30.7100 1582.0000 1.0000
30.7200 1480.0000 1.0000
30.7300 1509.0000 1.0000
30.7400 1551.0000 1.0000
30.7500 1586.0000 1.0000
30.7600 1603.0000 1.0000
30.7700 1520.0000 1.0000
30.7800 1590.0000 1.0000
30.7900 1552.0000 1.0000
30.8000 1528.0000 1.0000
30.8100 1583.0000 1.0000
30.8200 1532.0000 1.0000
30.8300 1508.0000 1.0000
30.8400 1554.0000 1.0000
30.8500 1551.0000 1.0000
30.8600 1542.0000 1.0000
30.8700 1559.0000 1.0000
30.8800 1565.0000 1.0000
30.8900 1537.0000 1.0000
30.9000 1568.0000 1.0000
30.9100 1603.0000 1.0000
30.9200 1527.0000 1.0000
30.9300 1551.0000 1.0000
30.9400 1597.0000 1.0000
30.9500 1575.0000 1.0000
30.9600 1556.0000 1.0000
30.9700 1542.0000 1.0000
30.9800 1585.0000 1.0000
30.9900 1551.0000 1.0000
31.0000 1510.0000 1.0000
31.0100 1593.0000 1.0000
31.0200 1540.0000 1.0000
31.0300 1552.0000 1.0000
31.0400 1517.0000 1.0000
31.0500 1595.0000 1.0000
31.0600 1602.0000 1.0000
31.0700 1603.0000 1.0000
31.0800 1568.0000 1.0000
31.0900 1616.0000 1.0000
31.1000 1557.0000 1.0000
31.1100 1548.0000 1.0000
31.1200 1521.0000 1.0000
31.1300 1559.0000 1.0000
31.1400 1518.0000 1.0000
31.1500 1587.0000 1.0000
31.1600 1524.0000 1.0000
31.1700 1593.0000 1.0000
31.1800 1505.0000 1.0000
31.1900 1526.0000 1.0000
31.2000 1573.0000 1.0000
31.2100 1587.0000 1.0000
31.2200 1556.0000 1.0000
31.2300 1578.0000 1.0000
31.2400 1546.0000 1.0000
31.2500 1524.0000 1.0000
31.2600 1555.0000 1.0000
31.2700 1487.0000 1.0000
31.2800 1542.0000 1.0000
31.2900 1555.0000 1.0000
31.3000 1575.0000 1.0000
31.3100 1440.0000 1.0000
31.3200 1534.0000 1.0000
31.3300 1578.0000 1.0000
31.3400 1507.0000 1.0000
31.3500 1537.0000 1.0000
31.3600 1564.0000 1.0000
31.3700 1623.0000 1.0000
31.3800 1467.0000 1.0000
31.3900 1424.0000 1.0000
31.4000 1533.0000 1.0000
31.4100 1461.0000 1.0000
31.4200 1576.0000 1.0000
31.4300 1511.0000 1.0000
31.4400 1442.0000 1.0000
31.4500 1480.0000 1.0000
31.4600 1479.0000 1.0000
31.4700 1498.0000 1.0000
31.4800 1472.0000 1.0000
31.4900 1499.0000 1.0000
31.5000 1556.0000 1.0000
31.5100 1508.0000 1.0000
31.5200 1467.0000 1.0000
31.5300 1493.0000 1.0000
31.5400 1546.0000 1.0000
31.5500 1539.0000 1.0000
31.5600 1514.0000 1.0000
31.5700 1505.0000 1.0000
31.5800 1492.0000 1.0000
31.5900 1447.0000 1.0000
31.6000 1526.0000 1.0000
31.6100 1529.0000 1.0000
31.6200 1541.0000 1.0000
31.6300 1473.0000 1.0000
31.6400 1509.0000 1.0000
31.6500 1478.0000 1.0000
31.6600 1533.0000 1.0000
31.6700 1528.0000 1.0000
31.6800 1475.0000 1.0000
31.6900 1501.0000 1.0000
31.7000 1511.0000 1.0000
31.7100 1505.0000 1.0000
31.7200 1495.0000 1.0000
31.7300 1496.0000 1.0000
31.7400 1479.0000 1.0000
31.7500 1445.0000 1.0000
31.7600 1514.0000 1.0000
31.7700 1610.0000 1.0000
31.7800 1566.0000 1.0000
31.7900 1463.0000 1.0000
31.8000 1534.0000 1.0000
31.8100 1469.0000 1.0000
31.8200 1543.0000 1.0000
31.8300 1487.0000 1.0000
31.8400 1480.0000 1.0000
31.8500 1536.0000 1.0000
31.8600 1469.0000 1.0000
31.8700 1510.0000 1.0000
31.8800 1503.0000 1.0000
31.8900 1518.0000 1.0000
31.9000 1530.0000 1.0000
31.9100 1564.0000 1.0000
31.9200 1487.0000 1.0000
31.9300 1536.0000 1.0000
31.9400 1608.0000 1.0000
31.9500 1536.0000 1.0000
31.9600 1536.0000 1.0000
31.9700 1581.0000 1.0000
31.9800 1542.0000 1.0000
31.9900 1561.0000 1.0000
32.0000 1534.0000 1.0000
32.0100 1549.0000 1.0000
32.0200 1542.0000 1.0000
32.0300 1602.0000 1.0000
32.0400 1554.0000 1.0000
32.0500 1498.0000 1.0000
32.0600 1549.0000 1.0000
32.0700 1494.0000 1.0000
32.0800 1491.0000 1.0000
32.0900 1470.0000 1.0000
32.1000 1545.0000 1.0000
32.1100 1508.0000 1.0000
32.1200 1515.0000 1.0000
32.1300 1551.0000 1.0000
32.1400 1423.0000 1.0000
32.1500 1428.0000 1.0000
32.1600 1474.0000 1.0000
32.1700 1462.0000 1.0000
32.1800 1505.0000 1.0000
32.1900 1506.0000 1.0000
32.2000 1574.0000 1.0000
32.2100 1471.0000 1.0000
32.2200 1503.0000 1.0000
32.2300 1420.0000 1.0000
32.2400 1475.0000 1.0000
32.2500 1445.0000 1.0000
32.2600 1519.0000 1.0000
32.2700 1508.0000 1.0000
32.2800 1526.0000 1.0000
32.2900 1547.0000 1.0000
32.3000 1495.0000 1.0000
32.3100 1451.0000 1.0000
32.3200 1475.0000 1.0000
32.3300 1456.0000 1.0000
32.3400 1487.0000 1.0000
32.3500 1496.0000 1.0000
32.3600 1512.0000 1.0000
32.3700 1457.0000 1.0000
32.3800 1425.0000 1.0000
32.3900 1480.0000 1.0000
32.4000 1461.0000 1.0000
32.4100 1504.0000 1.0000
32.4200 1498.0000 1.0000
32.4300 1463.0000 1.0000
32.4400 1509.0000 1.0000
32.4500 1460.0000 1.0000
32.4600 1478.0000 1.0000
32.4700 1485.0000 1.0000
32.4800 1439.0000 1.0000
32.4900 1464.0000 1.0000
32.5000 1446.0000 1.0000
32.5100 1521.0000 1.0000
32.5200 1436.0000 1.0000
32.5300 1475.0000 1.0000
32.5400 1455.0000 1.0000
32.5500 1429.0000 1.0000
32.5600 1468.0000 1.0000
32.5700 1472.0000 1.0000
32.5800 1458.0000 1.0000
32.5900 1426.0000 1.0000
32.6000 1388.0000 1.0000
32.6100 1435.0000 1.0000
32.6200 1438.0000 1.0000
32.6300 1467.0000 1.0000
32.6400 1416.0000 1.0000
32.6500 1452.0000 1.0000
32.6600 1455.0000 1.0000
32.6700 1454.0000 1.0000
32.6800 1460.0000 1.0000
32.6900 1374.0000 1.0000
32.7000 1409.0000 1.0000
32.7100 1413.0000 1.0000
32.7200 1501.0000 1.0000
32.7300 1467.0000 1.0000
32.7400 1406.0000 1.0000
32.7500 1396.0000 1.0000
32.7600 1416.0000 1.0000
32.7700 1424.0000 1.0000
32.7800 1395.0000 1.0000
32.7900 1411.0000 1.0000
32.8000 1405.0000 1.0000
32.8100 1420.0000 1.0000
32.8200 1411.0000 1.0000
32.8300 1445.0000 1.0000
32.8400 1410.0000 1.0000
32.8500 1437.0000 1.0000
32.8600 1467.0000 1.0000
32.8700 1460.0000 1.0000
32.8800 1456.0000 1.0000
32.8900 1372.0000 1.0000
32.9000 1426.0000 1.0000
32.9100 1454.0000 1.0000
32.9200 1443.0000 1.0000
32.9300 1437.0000 1.0000
32.9400 1419.0000 1.0000
32.9500 1501.0000 1.0000
32.9600 1470.0000 1.0000
32.9700 1440.0000 1.0000
32.9800 1453.0000 1.0000
32.9900 1473.0000 1.0000
33.0000 1394.0000 1.0000
33.0100 1429.0000 1.0000
33.0200 1404.0000 1.0000
33.0300 1397.0000 1.0000
33.0400 1421.0000 1.0000
33.0500 1363.0000 1.0000
33.0600 1434.0000 1.0000
33.0700 1422.0000 1.0000
33.0800 1431.0000 1.0000
33.0900 1481.0000 1.0000
33.1000 1415.0000 1.0000
33.1100 1421.0000 1.0000
33.1200 1383.0000 1.0000
33.1300 1436.0000 1.0000
33.1400 1418.0000 1.0000
33.1500 1420.0000 1.0000
33.1600 1445.0000 1.0000
33.1700 1419.0000 1.0000
33.1800 1447.0000 1.0000
33.1900 1432.0000 1.0000
33.2000 1433.0000 1.0000
33.2100 1457.0000 1.0000
33.2200 1488.0000 1.0000
33.2300 1405.0000 1.0000
33.2400 1376.0000 1.0000
33.2500 1410.0000 1.0000
33.2600 1422.0000 1.0000
33.2700 1356.0000 1.0000
33.2800 1364.0000 1.0000
33.2900 1381.0000 1.0000
33.3000 1421.0000 1.0000
33.3100 1455.0000 1.0000
33.3200 1397.0000 1.0000
33.3300 1332.0000 1.0000
33.3400 1446.0000 1.0000
33.3500 1377.0000 1.0000
33.3600 1435.0000 1.0000
33.3700 1384.0000 1.0000
33.3800 1398.0000 1.0000
33.3900 1460.0000 1.0000
33.4000 1438.0000 1.0000
33.4100 1370.0000 1.0000
33.4200 1414.0000 1.0000
33.4300 1398.0000 1.0000
33.4400 1450.0000 1.0000
33.4500 1440.0000 1.0000
33.4600 1430.0000 1.0000
33.4700 1442.0000 1.0000
33.4800 1412.0000 1.0000
33.4900 1458.0000 1.0000
33.5000 1425.0000 1.0000
33.5100 1428.0000 1.0000
33.5200 1423.0000 1.0000
33.5300 1403.0000 1.0000
33.5400 1469.0000 1.0000
33.5500 1406.0000 1.0000
33.5600 1394.0000 1.0000
33.5700 1432.0000 1.0000
33.5800 1471.0000 1.0000
33.5900 1419.0000 1.0000
33.6000 1423.0000 1.0000
33.6100 1426.0000 1.0000
33.6200 1448.0000 1.0000
33.6300 1415.0000 1.0000
33.6400 1420.0000 1.0000
33.6500 1438.0000 1.0000
33.6600 1458.0000 1.0000
33.6700 1449.0000 1.0000
33.6800 1409.0000 1.0000
33.6900 1455.0000 1.0000
33.7000 1484.0000 1.0000
33.7100 1443.0000 1.0000
33.7200 1413.0000 1.0000
33.7300 1421.0000 1.0000
33.7400 1449.0000 1.0000
33.7500 1457.0000 1.0000
33.7600 1462.0000 1.0000
33.7700 1479.0000 1.0000
33.7800 1492.0000 1.0000
33.7900 1502.0000 1.0000
33.8000 1511.0000 1.0000
33.8100 1491.0000 1.0000
33.8200 1508.0000 1.0000
33.8300 1539.0000 1.0000
33.8400 1561.0000 1.0000
33.8500 1554.0000 1.0000
33.8600 1575.0000 1.0000
33.8700 1594.0000 1.0000
33.8800 1547.0000 1.0000
33.8900 1579.0000 1.0000
33.9000 1692.0000 1.0000
33.9100 1634.0000 1.0000
33.9200 1598.0000 1.0000
33.9300 1573.0000 1.0000
33.9400 1661.0000 1.0000
33.9500 1703.0000 1.0000
33.9600 1640.0000 1.0000
33.9700 1671.0000 1.0000
33.9800 1635.0000 1.0000
33.9900 1608.0000 1.0000
34.0000 1636.0000 1.0000
34.0100 1623.0000 1.0000
34.0200 1623.0000 1.0000
34.0300 1661.0000 1.0000
34.0400 1673.0000 1.0000
34.0500 1582.0000 1.0000
34.0600 1606.0000 1.0000
34.0700 1548.0000 1.0000
34.0800 1545.0000 1.0000
34.0900 1570.0000 1.0000
34.1000 1605.0000 1.0000
34.1100 1546.0000 1.0000
34.1200 1529.0000 1.0000
34.1300 1532.0000 1.0000
34.1400 1556.0000 1.0000
34.1500 1569.0000 1.0000
34.1600 1599.0000 1.0000
34.1700 1595.0000 1.0000
34.1800 1618.0000 1.0000
34.1900 1606.0000 1.0000
34.2000 1672.0000 1.0000
34.2100 1656.0000 1.0000
34.2200 1653.0000 1.0000
34.2300 1667.0000 1.0000
34.2400 1666.0000 1.0000
34.2500 1720.0000 1.0000
34.2600 1745.0000 1.0000
34.2700 1824.0000 1.0000
34.2800 1850.0000 1.0000
34.2900 1868.0000 1.0000
34.3000 1879.0000 1.0000
34.3100 1937.0000 1.0000
34.3200 1970.0000 1.0000
34.3300 1957.0000 1.0000
34.3400 2050.0000 1.0000
34.3500 2025.0000 1.0000
34.3600 2115.0000 1.0000
34.3700 2247.0000 1.0000
34.3800 2239.0000 1.0000
34.3900 2352.0000 1.0000
34.4000 2465.0000 1.0000
34.4100 2442.0000 1.0000
34.4200 2575.0000 1.0000
34.4300 2656.0000 1.0000
34.4400 2780.0000 1.0000
34.4500 2825.0000 1.0000
34.4600 2906.0000 1.0000
34.4700 3056.0000 1.0000
34.4800 3063.0000 1.0000
34.4900 3017.0000 1.0000
34.5000 3073.0000 1.0000
34.5100 3078.0000 1.0000
34.5200 3086.0000 1.0000
34.5300 3030.0000 1.0000
34.5400 3012.0000 1.0000
34.5500 2987.0000 1.0000
34.5600 2811.0000 1.0000
34.5700 2876.0000 1.0000
34.5800 2850.0000 1.0000
34.5900 2720.0000 1.0000
34.6000 2674.0000 1.0000
34.6100 2620.0000 1.0000
34.6200 2438.0000 1.0000
34.6300 2399.0000 1.0000
34.6400 2229.0000 1.0000
34.6500 2176.0000 1.0000
34.6600 2135.0000 1.0000
34.6700 2146.0000 1.0000
34.6800 2031.0000 1.0000
34.6900 1961.0000 1.0000
34.7000 1965.0000 1.0000
34.7100 1886.0000 1.0000
34.7200 1856.0000 1.0000
34.7300 1912.0000 1.0000
34.7400 1743.0000 1.0000
34.7500 1737.0000 1.0000
34.7600 1696.0000 1.0000
34.7700 1775.0000 1.0000
34.7800 1627.0000 1.0000
34.7900 1647.0000 1.0000
34.8000 1593.0000 1.0000
34.8100 1645.0000 1.0000
34.8200 1632.0000 1.0000
34.8300 1642.0000 1.0000
34.8400 1606.0000 1.0000
34.8500 1599.0000 1.0000
34.8600 1509.0000 1.0000
34.8700 1567.0000 1.0000
34.8800 1441.0000 1.0000
34.8900 1410.0000 1.0000
34.9000 1464.0000 1.0000
34.9100 1511.0000 1.0000
34.9200 1437.0000 1.0000
34.9300 1486.0000 1.0000
34.9400 1434.0000 1.0000
34.9500 1409.0000 1.0000
34.9600 1452.0000 1.0000
34.9700 1462.0000 1.0000
34.9800 1365.0000 1.0000
34.9900 1388.0000 1.0000
35.0000 1460.0000 1.0000
35.0100 1346.0000 1.0000
35.0200 1360.0000 1.0000
35.0300 1333.0000 1.0000
35.0400 1333.0000 1.0000
35.0500 1350.0000 1.0000
35.0600 1405.0000 1.0000
35.0700 1329.0000 1.0000
35.0800 1267.0000 1.0000
35.0900 1377.0000 1.0000
35.1000 1386.0000 1.0000
35.1100 1373.0000 1.0000
35.1200 1372.0000 1.0000
35.1300 1346.0000 1.0000
35.1400 1353.0000 1.0000
35.1500 1354.0000 1.0000
35.1600 1297.0000 1.0000
35.1700 1319.0000 1.0000
35.1800 1313.0000 1.0000
35.1900 1284.0000 1.0000
35.2000 1261.0000 1.0000
35.2100 1341.0000 1.0000
35.2200 1240.0000 1.0000
35.2300 1278.0000 1.0000
35.2400 1314.0000 1.0000
35.2500 1236.0000 1.0000
35.2600 1280.0000 1.0000
35.2700 1301.0000 1.0000
35.2800 1304.0000 1.0000
35.2900 1291.0000 1.0000
35.3000 1268.0000 1.0000
35.3100 1290.0000 1.0000
35.3200 1351.0000 1.0000
35.3300 1338.0000 1.0000
35.3400 1238.0000 1.0000
35.3500 1314.0000 1.0000
35.3600 1288.0000 1.0000
35.3700 1267.0000 1.0000
35.3800 1333.0000 1.0000
35.3900 1231.0000 1.0000
35.4000 1278.0000 1.0000
35.4100 1268.0000 1.0000
35.4200 1276.0000 1.0000
35.4300 1301.0000 1.0000
35.4400 1246.0000 1.0000
35.4500 1306.0000 1.0000
35.4600 1314.0000 1.0000
35.4700 1315.0000 1.0000
35.4800 1282.0000 1.0000
35.4900 1266.0000 1.0000
35.5000 1292.0000 1.0000
35.5100 1234.0000 1.0000
35.5200 1283.0000 1.0000
35.5300 1294.0000 1.0000
35.5400 1300.0000 1.0000
35.5500 1249.0000 1.0000
35.5600 1217.0000 1.0000
35.5700 1239.0000 1.0000
35.5800 1244.0000 1.0000
35.5900 1280.0000 1.0000
35.6000 1277.0000 1.0000
35.6100 1248.0000 1.0000
35.6200 1294.0000 1.0000
35.6300 1288.0000 1.0000
35.6400 1236.0000 1.0000
35.6500 1156.0000 1.0000
35.6600 1245.0000 1.0000
35.6700 1258.0000 1.0000
35.6800 1218.0000 1.0000
35.6900 1241.0000 1.0000
35.7000 1250.0000 1.0000
35.7100 1233.0000 1.0000
35.7200 1228.0000 1.0000
35.7300 1222.0000 1.0000
35.7400 1266.0000 1.0000
35.7500 1213.0000 1.0000
35.7600 1256.0000 1.0000
35.7700 1213.0000 1.0000
35.7800 1198.0000 1.0000
35.7900 1185.0000 1.0000
35.8000 1186.0000 1.0000
35.8100 1241.0000 1.0000
35.8200 1216.0000 1.0000
35.8300 1205.0000 1.0000
35.8400 1265.0000 1.0000
35.8500 1225.0000 1.0000
35.8600 1213.0000 1.0000
35.8700 1233.0000 1.0000
35.8800 1171.0000 1.0000
35.8900 1209.0000 1.0000
35.9000 1245.0000 1.0000
35.9100 1255.0000 1.0000
35.9200 1231.0000 1.0000
35.9300 1213.0000 1.0000
35.9400 1223.0000 1.0000
35.9500 1287.0000 1.0000
35.9600 1177.0000 1.0000
35.9700 1235.0000 1.0000
35.9800 1222.0000 1.0000
35.9900 1230.0000 1.0000
36.0000 1229.0000 1.0000
36.0100 1264.0000 1.0000
36.0200 1245.0000 1.0000
36.0300 1200.0000 1.0000
36.0400 1188.0000 1.0000
36.0500 1184.0000 1.0000
36.0600 1282.0000 1.0000
36.0700 1263.0000 1.0000
36.0800 1302.0000 1.0000
36.0900 1283.0000 1.0000
36.1000 1280.0000 1.0000
36.1100 1251.0000 1.0000
36.1200 1253.0000 1.0000
36.1300 1261.0000 1.0000
36.1400 1281.0000 1.0000
36.1500 1267.0000 1.0000
36.1600 1310.0000 1.0000
36.1700 1298.0000 1.0000
36.1800 1313.0000 1.0000
36.1900 1361.0000 1.0000
36.2000 1385.0000 1.0000
36.2100 1351.0000 1.0000
36.2200 1367.0000 1.0000
36.2300 1425.0000 1.0000
36.2400 1418.0000 1.0000
36.2500 1415.0000 1.0000
36.2600 1421.0000 1.0000
36.2700 1474.0000 1.0000
36.2800 1524.0000 1.0000
36.2900 1597.0000 1.0000
36.3000 1629.0000 1.0000
36.3100 1657.0000 1.0000
36.3200 1716.0000 1.0000
36.3300 1784.0000 1.0000
36.3400 1860.0000 1.0000
36.3500 1872.0000 1.0000
36.3600 1969.0000 1.0000
36.3700 2078.0000 1.0000
36.3800 2089.0000 1.0000
36.3900 2186.0000 1.0000
36.4000 2276.0000 1.0000
36.4100 2215.0000 1.0000
36.4200 2284.0000 1.0000
36.4300 2210.0000 1.0000
36.4400 2228.0000 1.0000
36.4500 2134.0000 1.0000
36.4600 2078.0000 1.0000
36.4700 2097.0000 1.0000
36.4800 2073.0000 1.0000
36.4900 1951.0000 1.0000
36.5000 1917.0000 1.0000
36.5100 1811.0000 1.0000
36.5200 1781.0000 1.0000
36.5300 1722.0000 1.0000
36.5400 1701.0000 1.0000
36.5500 1640.0000 1.0000
36.5600 1560.0000 1.0000
36.5700 1450.0000 1.0000
36.5800 1455.0000 1.0000
36.5900 1420.0000 1.0000
36.6000 1376.0000 1.0000
36.6100 1354.0000 1.0000
36.6200 1281.0000 1.0000
36.6300 1278.0000 1.0000
36.6400 1257.0000 1.0000
36.6500 1250.0000 1.0000
36.6600 1242.0000 1.0000
36.6700 1284.0000 1.0000
36.6800 1248.0000 1.0000
36.6900 1208.0000 1.0000
36.7000 1207.0000 1.0000
36.7100 1099.0000 1.0000
36.7200 1190.0000 1.0000
36.7300 1160.0000 1.0000
36.7400 1208.0000 1.0000
36.7500 1194.0000 1.0000
36.7600 1189.0000 1.0000
36.7700 1167.0000 1.0000
36.7800 1194.0000 1.0000
36.7900 1211.0000 1.0000
36.8000 1135.0000 1.0000
36.8100 1174.0000 1.0000
36.8200 1125.0000 1.0000
36.8300 1133.0000 1.0000
36.8400 1127.0000 1.0000
36.8500 1085.0000 1.0000
36.8600 1151.0000 1.0000
36.8700 1150.0000 1.0000
36.8800 1113.0000 1.0000
36.8900 1135.0000 1.0000
36.9000 1151.0000 1.0000
36.9100 1107.0000 1.0000
36.9200 1075.0000 1.0000
36.9300 1146.0000 1.0000
36.9400 1131.0000 1.0000
36.9500 1171.0000 1.0000
36.9600 1099.0000 1.0000
36.9700 1129.0000 1.0000
36.9800 1140.0000 1.0000
36.9900 1168.0000 1.0000
37.0000 1193.0000 1.0000
37.0100 1139.0000 1.0000
37.0200 1145.0000 1.0000
37.0300 1105.0000 1.0000
37.0400 1117.0000 1.0000
37.0500 1135.0000 1.0000
37.0600 1125.0000 1.0000
37.0700 1145.0000 1.0000
37.0800 1126.0000 1.0000
37.0900 1130.0000 1.0000
37.1000 1084.0000 1.0000
37.1100 1159.0000 1.0000
37.1200 1107.0000 1.0000
37.1300 1126.0000 1.0000
37.1400 1104.0000 1.0000
37.1500 1115.0000 1.0000
37.1600 1129.0000 1.0000
37.1700 1125.0000 1.0000
37.1800 1154.0000 1.0000
37.1900 1140.0000 1.0000
37.2000 1149.0000 1.0000
37.2100 1154.0000 1.0000
37.2200 1123.0000 1.0000
37.2300 1073.0000 1.0000
37.2400 1147.0000 1.0000
37.2500 1142.0000 1.0000
37.2600 1110.0000 1.0000
37.2700 1087.0000 1.0000
37.2800 1094.0000 1.0000
37.2900 1143.0000 1.0000
37.3000 1140.0000 1.0000
37.3100 1137.0000 1.0000
37.3200 1164.0000 1.0000
37.3300 1138.0000 1.0000
37.3400 1167.0000 1.0000
37.3500 1075.0000 1.0000
37.3600 1162.0000 1.0000
37.3700 1160.0000 1.0000
37.3800 1131.0000 1.0000
37.3900 1113.0000 1.0000
37.4000 1110.0000 1.0000
37.4100 1127.0000 1.0000
37.4200 1089.0000 1.0000
37.4300 1157.0000 1.0000
37.4400 1146.0000 1.0000
37.4500 1104.0000 1.0000
37.4600 1134.0000 1.0000
37.4700 1177.0000 1.0000
37.4800 1161.0000 1.0000
37.4900 1161.0000 1.0000
37.5000 1163.0000 1.0000
37.5100 1088.0000 1.0000
37.5200 1166.0000 1.0000
37.5300 1191.0000 1.0000
37.5400 1202.0000 1.0000
37.5500 1170.0000 1.0000
37.5600 1166.0000 1.0000
37.5700 1124.0000 1.0000
37.5800 1142.0000 1.0000
37.5900 1101.0000 1.0000
37.6000 1126.0000 1.0000
37.6100 1137.0000 1.0000
37.6200 1175.0000 1.0000
37.6300 1146.0000 1.0000
37.6400 1166.0000 1.0000
37.6500 1122.0000 1.0000
37.6600 1132.0000 1.0000
37.6700 1113.0000 1.0000
37.6800 1141.0000 1.0000
37.6900 1173.0000 1.0000
37.7000 1151.0000 1.0000
37.7100 1110.0000 1.0000
37.7200 1129.0000 1.0000
37.7300 1112.0000 1.0000
37.7400 1080.0000 1.0000
37.7500 1137.0000 1.0000
37.7600 1169.0000 1.0000
37.7700 1189.0000 1.0000
37.7800 1179.0000 1.0000
37.7900 1128.0000 1.0000
37.8000 1127.0000 1.0000
37.8100 1151.0000 1.0000
37.8200 1238.0000 1.0000
37.8300 1183.0000 1.0000
37.8400 1149.0000 1.0000
37.8500 1158.0000 1.0000
37.8600 1141.0000 1.0000
37.8700 1117.0000 1.0000
37.8800 1088.0000 1.0000
37.8900 1122.0000 1.0000
37.9000 1140.0000 1.0000
37.9100 1108.0000 1.0000
37.9200 1134.0000 1.0000
37.9300 1139.0000 1.0000
37.9400 1156.0000 1.0000
37.9500 1182.0000 1.0000
37.9600 1147.0000 1.0000
37.9700 1182.0000 1.0000
37.9800 1231.0000 1.0000
37.9900 1143.0000 1.0000
38.0000 1228.0000 1.0000
38.0100 1235.0000 1.0000
38.0200 1208.0000 1.0000
38.0300 1213.0000 1.0000
38.0400 1195.0000 1.0000
38.0500 1215.0000 1.0000
38.0600 1183.0000 1.0000
38.0700 1279.0000 1.0000
38.0800 1239.0000 1.0000
38.0900 1331.0000 1.0000
38.1000 1320.0000 1.0000
38.1100 1287.0000 1.0000
38.1200 1345.0000 1.0000
38.1300 1367.0000 1.0000
38.1400 1378.0000 1.0000
38.1500 1461.0000 1.0000
38.1600 1430.0000 1.0000
38.1700 1424.0000 1.0000
38.1800 1434.0000 1.0000
38.1900 1457.0000 1.0000
38.2000 1503.0000 1.0000
38.2100 1561.0000 1.0000
38.2200 1626.0000 1.0000
38.2300 1656.0000 1.0000
38.2400 1730.0000 1.0000
38.2500 1743.0000 1.0000
38.2600 1787.0000 1.0000
38.2700 1874.0000 1.0000
38.2800 1942.0000 1.0000
38.2900 2008.0000 1.0000
38.3000 2127.0000 1.0000
38.3100 2238.0000 1.0000
38.3200 2231.0000 1.0000
38.3300 2485.0000 1.0000
38.3400 2564.0000 1.0000
38.3500 2733.0000 1.0000
38.3600 2761.0000 1.0000
38.3700 2970.0000 1.0000
38.3800 3168.0000 1.0000
38.3900 3428.0000 1.0000
38.4000 3589.0000 1.0000
38.4100 3851.0000 1.0000
38.4200 4177.0000 1.0000
38.4300 4506.0000 1.0000
38.4400 4676.0000 1.0000
38.4500 5066.0000 1.0000
38.4600 5389.0000 1.0000
38.4700 5910.0000 1.0000
38.4800 6225.0000 1.0000
38.4900 6490.0000 1.0000
38.5000 6934.0000 1.0000
38.5100 7177.0000 1.0000
38.5200 7670.0000 1.0000
38.5300 7801.0000 1.0000
38.5400 8031.0000 1.0000
38.5500 8110.0000 1.0000
38.5600 8182.0000 1.0000
38.5700 8050.0000 1.0000
38.5800 8022.0000 1.0000
38.5900 7916.0000 1.0000
38.6000 7778.0000 1.0000
38.6100 7561.0000 1.0000
38.6200 7192.0000 1.0000
38.6300 7027.0000 1.0000
38.6400 6676.0000 1.0000
38.6500 6259.0000 1.0000
38.6600 5994.0000 1.0000
38.6700 5789.0000 1.0000
38.6800 5494.0000 1.0000
38.6900 5067.0000 1.0000
38.7000 4736.0000 1.0000
38.7100 4444.0000 1.0000
38.7200 4154.0000 1.0000
38.7300 3884.0000 1.0000
38.7400 3486.0000 1.0000
38.7500 3323.0000 1.0000
38.7600 3137.0000 1.0000
38.7700 2935.0000 1.0000
38.7800 2809.0000 1.0000
38.7900 2541.0000 1.0000
38.8000 2474.0000 1.0000
38.8100 2261.0000 1.0000
38.8200 2127.0000 1.0000
38.8300 2090.0000 1.0000
38.8400 1961.0000 1.0000
38.8500 1886.0000 1.0000
38.8600 1806.0000 1.0000
38.8700 1701.0000 1.0000
38.8800 1688.0000 1.0000
38.8900 1607.0000 1.0000
38.9000 1584.0000 1.0000
38.9100 1496.0000 1.0000
38.9200 1545.0000 1.0000
38.9300 1470.0000 1.0000
38.9400 1420.0000 1.0000
38.9500 1362.0000 1.0000
38.9600 1379.0000 1.0000
38.9700 1372.0000 1.0000
38.9800 1305.0000 1.0000
38.9900 1275.0000 1.0000
39.0000 1240.0000 1.0000
39.0100 1271.0000 1.0000
39.0200 1234.0000 1.0000
39.0300 1238.0000 1.0000
39.0400 1225.0000 1.0000
39.0500 1193.0000 1.0000
39.0600 1183.0000 1.0000
39.0700 1217.0000 1.0000
39.0800 1208.0000 1.0000
39.0900 1229.0000 1.0000
39.1000 1161.0000 1.0000
39.1100 1153.0000 1.0000
39.1200 1191.0000 1.0000
39.1300 1100.0000 1.0000
39.1400 1138.0000 1.0000
39.1500 1130.0000 1.0000
39.1600 1122.0000 1.0000
39.1700 1129.0000 1.0000
39.1800 1067.0000 1.0000
39.1900 1090.0000 1.0000
39.2000 1091.0000 1.0000
39.2100 1051.0000 1.0000
39.2200 1092.0000 1.0000
39.2300 1047.0000 1.0000
39.2400 1067.0000 1.0000
39.2500 1073.0000 1.0000
39.2600 1078.0000 1.0000
39.2700 1079.0000 1.0000
39.2800 1062.0000 1.0000
39.2900 1014.0000 1.0000
39.3000 1063.0000 1.0000
39.3100 1063.0000 1.0000
39.3200 1058.0000 1.0000
39.3300 1044.0000 1.0000
39.3400 1027.0000 1.0000
39.3500 1038.0000 1.0000
39.3600 1097.0000 1.0000
39.3700 1037.0000 1.0000
39.3800 1045.0000 1.0000
39.3900 1030.0000 1.0000
39.4000 1010.0000 1.0000
39.4100 1054.0000 1.0000
39.4200 1047.0000 1.0000
39.4300 1067.0000 1.0000
39.4400 1071.0000 1.0000
39.4500 1023.0000 1.0000
39.4600 1035.0000 1.0000
39.4700 1093.0000 1.0000
39.4800 1052.0000 1.0000
39.4900 1072.0000 1.0000
39.5000 1018.0000 1.0000
39.5100 1076.0000 1.0000
39.5200 1083.0000 1.0000
39.5300 1049.0000 1.0000
39.5400 1051.0000 1.0000
39.5500 1025.0000 1.0000
39.5600 1005.0000 1.0000
39.5700 1078.0000 1.0000
39.5800 1046.0000 1.0000
39.5900 1046.0000 1.0000
39.6000 1043.0000 1.0000
39.6100 1088.0000 1.0000
39.6200 1104.0000 1.0000
39.6300 1059.0000 1.0000
39.6400 1069.0000 1.0000
39.6500 1065.0000 1.0000
39.6600 1080.0000 1.0000
39.6700 1047.0000 1.0000
39.6800 1031.0000 1.0000
39.6900 1086.0000 1.0000
39.7000 1073.0000 1.0000
39.7100 1033.0000 1.0000
39.7200 1056.0000 1.0000
39.7300 1029.0000 1.0000
39.7400 1043.0000 1.0000
39.7500 1056.0000 1.0000
39.7600 1052.0000 1.0000
39.7700 1017.0000 1.0000
39.7800 1011.0000 1.0000
39.7900 1011.0000 1.0000
39.8000 1014.0000 1.0000
39.8100 1027.0000 1.0000
39.8200 965.0000 1.0000
39.8300 1027.0000 1.0000
39.8400 972.0000 1.0000
39.8500 1028.0000 1.0000
39.8600 974.0000 1.0000
39.8700 1000.0000 1.0000
39.8800 1026.0000 1.0000
39.8900 984.0000 1.0000
39.9000 992.0000 1.0000
39.9100 937.0000 1.0000
39.9200 972.0000 1.0000
39.9300 927.0000 1.0000
39.9400 1000.0000 1.0000
39.9500 964.0000 1.0000
39.9600 976.0000 1.0000
39.9700 1051.0000 1.0000
39.9800 994.0000 1.0000
39.9900 989.0000 1.0000
40.0000 957.0000 1.0000
40.0100 928.0000 1.0000
40.0200 916.0000 1.0000
40.0300 930.0000 1.0000
40.0400 984.0000 1.0000
40.0500 964.0000 1.0000
40.0600 947.0000 1.0000
40.0700 936.0000 1.0000
40.0800 958.0000 1.0000
40.0900 980.0000 1.0000
40.1000 1016.0000 1.0000
40.1100 990.0000 1.0000
40.1200 1023.0000 1.0000
40.1300 1025.0000 1.0000
40.1400 1014.0000 1.0000
40.1500 992.0000 1.0000
40.1600 959.0000 1.0000
40.1700 925.0000 1.0000
40.1800 947.0000 1.0000
40.1900 942.0000 1.0000
40.2000 957.0000 1.0000
40.2100 945.0000 1.0000
40.2200 943.0000 1.0000
40.2300 916.0000 1.0000
40.2400 971.0000 1.0000
40.2500 960.0000 1.0000
40.2600 972.0000 1.0000
40.2700 970.0000 1.0000
40.2800 956.0000 1.0000
40.2900 958.0000 1.0000
40.3000 911.0000 1.0000
40.3100 917.0000 1.0000
40.3200 951.0000 1.0000
40.3300 983.0000 1.0000
40.3400 933.0000 1.0000
40.3500 920.0000 1.0000
40.3600 910.0000 1.0000
40.3700 960.0000 1.0000
40.3800 958.0000 1.0000
40.3900 961.0000 1.0000
40.4000 981.0000 1.0000
40.4100 938.0000 1.0000
40.4200 936.0000 1.0000
40.4300 941.0000 1.0000
40.4400 975.0000 1.0000
40.4500 974.0000 1.0000
40.4600 944.0000 1.0000
40.4700 951.0000 1.0000
40.4800 934.0000 1.0000
40.4900 933.0000 1.0000
40.5000 910.0000 1.0000
40.5100 934.0000 1.0000
40.5200 958.0000 1.0000
40.5300 942.0000 1.0000
40.5400 933.0000 1.0000
40.5500 927.0000 1.0000
40.5600 922.0000 1.0000
40.5700 922.0000 1.0000
40.5800 912.0000 1.0000
40.5900 911.0000 1.0000
40.6000 891.0000 1.0000
40.6100 965.0000 1.0000
40.6200 936.0000 1.0000
40.6300 910.0000 1.0000
40.6400 946.0000 1.0000
40.6500 895.0000 1.0000
40.6600 964.0000 1.0000
40.6700 948.0000 1.0000
40.6800 934.0000 1.0000
40.6900 925.0000 1.0000
40.7000 993.0000 1.0000
40.7100 942.0000 1.0000
40.7200 954.0000 1.0000
40.7300 951.0000 1.0000
40.7400 932.0000 1.0000
40.7500 926.0000 1.0000
40.7600 946.0000 1.0000
40.7700 937.0000 1.0000
40.7800 938.0000 1.0000
40.7900 898.0000 1.0000
40.8000 964.0000 1.0000
40.8100 922.0000 1.0000
40.8200 969.0000 1.0000
40.8300 965.0000 1.0000
40.8400 946.0000 1.0000
40.8500 975.0000 1.0000
40.8600 904.0000 1.0000
40.8700 942.0000 1.0000
40.8800 936.0000 1.0000
40.8900 915.0000 1.0000
40.9000 932.0000 1.0000
40.9100 947.0000 1.0000
40.9200 930.0000 1.0000
40.9300 980.0000 1.0000
40.9400 962.0000 1.0000
40.9500 946.0000 1.0000
40.9600 976.0000 1.0000
40.9700 992.0000 1.0000
40.9800 919.0000 1.0000
40.9900 885.0000 1.0000
41.0000 933.0000 1.0000
41.0100 929.0000 1.0000
41.0200 961.0000 1.0000
41.0300 885.0000 1.0000
41.0400 916.0000 1.0000
41.0500 940.0000 1.0000
41.0600 1001.0000 1.0000
41.0700 900.0000 1.0000
41.0800 859.0000 1.0000
41.0900 932.0000 1.0000
41.1000 884.0000 1.0000
41.1100 899.0000 1.0000
41.1200 950.0000 1.0000
41.1300 940.0000 1.0000
41.1400 877.0000 1.0000
41.1500 937.0000 1.0000
41.1600 940.0000 1.0000
41.1700 915.0000 1.0000
41.1800 911.0000 1.0000
41.1900 848.0000 1.0000
41.2000 871.0000 1.0000
41.2100 940.0000 1.0000
41.2200 904.0000 1.0000
41.2300 926.0000 1.0000
41.2400 910.0000 1.0000
41.2500 928.0000 1.0000
41.2600 948.0000 1.0000
41.2700 912.0000 1.0000
41.2800 929.0000 1.0000
41.2900 921.0000 1.0000
41.3000 971.0000 1.0000
41.3100 916.0000 1.0000
41.3200 925.0000 1.0000
41.3300 937.0000 1.0000
41.3400 948.0000 1.0000
41.3500 959.0000 1.0000
41.3600 965.0000 1.0000
41.3700 927.0000 1.0000
41.3800 924.0000 1.0000
41.3900 896.0000 1.0000
41.4000 924.0000 1.0000
41.4100 938.0000 1.0000
41.4200 969.0000 1.0000
41.4300 920.0000 1.0000
41.4400 940.0000 1.0000
41.4500 916.0000 1.0000
41.4600 970.0000 1.0000
41.4700 989.0000 1.0000
41.4800 956.0000 1.0000
41.4900 952.0000 1.0000
41.5000 913.0000 1.0000
41.5100 917.0000 1.0000
41.5200 952.0000 1.0000
41.5300 893.0000 1.0000
41.5400 948.0000 1.0000
41.5500 899.0000 1.0000
41.5600 901.0000 1.0000
41.5700 914.0000 1.0000
41.5800 958.0000 1.0000
41.5900 925.0000 1.0000
41.6000 915.0000 1.0000
41.6100 965.0000 1.0000
41.6200 913.0000 1.0000
41.6300 893.0000 1.0000
41.6400 944.0000 1.0000
41.6500 953.0000 1.0000
41.6600 888.0000 1.0000
41.6700 919.0000 1.0000
41.6800 979.0000 1.0000
41.6900 982.0000 1.0000
41.7000 928.0000 1.0000
41.7100 913.0000 1.0000
41.7200 893.0000 1.0000
41.7300 970.0000 1.0000
41.7400 967.0000 1.0000
41.7500 906.0000 1.0000
41.7600 965.0000 1.0000
41.7700 912.0000 1.0000
41.7800 929.0000 1.0000
41.7900 893.0000 1.0000
41.8000 881.0000 1.0000
41.8100 918.0000 1.0000
41.8200 890.0000 1.0000
41.8300 959.0000 1.0000
41.8400 901.0000 1.0000
41.8500 892.0000 1.0000
41.8600 869.0000 1.0000
41.8700 936.0000 1.0000
41.8800 947.0000 1.0000
41.8900 907.0000 1.0000
41.9000 925.0000 1.0000
41.9100 892.0000 1.0000
41.9200 949.0000 1.0000
41.9300 946.0000 1.0000
41.9400 888.0000 1.0000
41.9500 897.0000 1.0000
41.9600 882.0000 1.0000
41.9700 965.0000 1.0000
41.9800 924.0000 1.0000
41.9900 876.0000 1.0000
42.0000 903.0000 1.0000
42.0100 914.0000 1.0000
42.0200 903.0000 1.0000
42.0300 915.0000 1.0000
42.0400 946.0000 1.0000
42.0500 950.0000 1.0000
42.0600 921.0000 1.0000
42.0700 921.0000 1.0000
42.0800 893.0000 1.0000
42.0900 888.0000 1.0000
42.1000 950.0000 1.0000
42.1100 940.0000 1.0000
42.1200 910.0000 1.0000
42.1300 893.0000 1.0000
42.1400 944.0000 1.0000
42.1500 906.0000 1.0000
42.1600 917.0000 1.0000
42.1700 953.0000 1.0000
42.1800 925.0000 1.0000
42.1900 914.0000 1.0000
42.2000 885.0000 1.0000
42.2100 871.0000 1.0000
42.2200 912.0000 1.0000
42.2300 895.0000 1.0000
42.2400 912.0000 1.0000
42.2500 907.0000 1.0000
42.2600 914.0000 1.0000
42.2700 896.0000 1.0000
42.2800 904.0000 1.0000
42.2900 899.0000 1.0000
42.3000 922.0000 1.0000
42.3100 891.0000 1.0000
42.3200 920.0000 1.0000
42.3300 885.0000 1.0000
42.3400 879.0000 1.0000
42.3500 881.0000 1.0000
42.3600 916.0000 1.0000
42.3700 909.0000 1.0000
42.3800 913.0000 1.0000
42.3900 937.0000 1.0000
42.4000 924.0000 1.0000
42.4100 899.0000 1.0000
42.4200 865.0000 1.0000
42.4300 920.0000 1.0000
42.4400 879.0000 1.0000
42.4500 903.0000 1.0000
42.4600 851.0000 1.0000
42.4700 891.0000 1.0000
42.4800 903.0000 1.0000
42.4900 914.0000 1.0000
42.5000 926.0000 1.0000
42.5100 884.0000 1.0000
42.5200 911.0000 1.0000
42.5300 920.0000 1.0000
42.5400 858.0000 1.0000
42.5500 917.0000 1.0000
42.5600 938.0000 1.0000
42.5700 905.0000 1.0000
42.5800 917.0000 1.0000
42.5900 880.0000 1.0000
42.6000 938.0000 1.0000
42.6100 900.0000 1.0000
42.6200 928.0000 1.0000
42.6300 913.0000 1.0000
42.6400 924.0000 1.0000
42.6500 876.0000 1.0000
42.6600 893.0000 1.0000
42.6700 925.0000 1.0000
42.6800 889.0000 1.0000
42.6900 913.0000 1.0000
42.7000 926.0000 1.0000
42.7100 897.0000 1.0000
42.7200 905.0000 1.0000
42.7300 882.0000 1.0000
42.7400 914.0000 1.0000
42.7500 905.0000 1.0000
42.7600 918.0000 1.0000
42.7700 919.0000 1.0000
42.7800 914.0000 1.0000
42.7900 924.0000 1.0000
42.8000 865.0000 1.0000
42.8100 922.0000 1.0000
42.8200 926.0000 1.0000
42.8300 878.0000 1.0000
42.8400 877.0000 1.0000
42.8500 925.0000 1.0000
42.8600 943.0000 1.0000
42.8700 931.0000 1.0000
42.8800 941.0000 1.0000
42.8900 847.0000 1.0000
42.9000 917.0000 1.0000
42.9100 917.0000 1.0000
42.9200 925.0000 1.0000
42.9300 885.0000 1.0000
42.9400 864.0000 1.0000
42.9500 937.0000 1.0000
42.9600 928.0000 1.0000
42.9700 898.0000 1.0000
42.9800 909.0000 1.0000
42.9900 915.0000 1.0000
43.0000 839.0000 1.0000
43.0100 859.0000 1.0000
43.0200 930.0000 1.0000
43.0300 942.0000 1.0000
43.0400 934.0000 1.0000
43.0500 931.0000 1.0000
43.0600 916.0000 1.0000
43.0700 940.0000 1.0000
43.0800 937.0000 1.0000
43.0900 950.0000 1.0000
43.1000 930.0000 1.0000
43.1100 935.0000 1.0000
43.1200 978.0000 1.0000
43.1300 974.0000 1.0000
43.1400 925.0000 1.0000
43.1500 988.0000 1.0000
43.1600 973.0000 1.0000
43.1700 962.0000 1.0000
43.1800 969.0000 1.0000
43.1900 955.0000 1.0000
43.2000 984.0000 1.0000
43.2100 984.0000 1.0000
43.2200 1031.0000 1.0000
43.2300 1045.0000 1.0000
43.2400 1010.0000 1.0000
43.2500 991.0000 1.0000
43.2600 966.0000 1.0000
43.2700 1000.0000 1.0000
43.2800 999.0000 1.0000
43.2900 988.0000 1.0000
43.3000 995.0000 1.0000
43.3100 1011.0000 1.0000
43.3200 1006.0000 1.0000
43.3300 981.0000 1.0000
43.3400 990.0000 1.0000
43.3500 901.0000 1.0000
43.3600 995.0000 1.0000
43.3700 994.0000 1.0000
43.3800 879.0000 1.0000
43.3900 932.0000 1.0000
43.4000 907.0000 1.0000
43.4100 979.0000 1.0000
43.4200 955.0000 1.0000
43.4300 915.0000 1.0000
43.4400 937.0000 1.0000
43.4500 958.0000 1.0000
43.4600 941.0000 1.0000
43.4700 941.0000 1.0000
43.4800 928.0000 1.0000
43.4900 901.0000 1.0000
43.5000 926.0000 1.0000
43.5100 931.0000 1.0000
43.5200 908.0000 1.0000
43.5300 907.0000 1.0000
43.5400 941.0000 1.0000
43.5500 961.0000 1.0000
43.5600 897.0000 1.0000
43.5700 869.0000 1.0000
43.5800 862.0000 1.0000
43.5900 848.0000 1.0000
43.6000 877.0000 1.0000
43.6100 891.0000 1.0000
43.6200 895.0000 1.0000
43.6300 906.0000 1.0000
43.6400 869.0000 1.0000
43.6500 864.0000 1.0000
43.6600 926.0000 1.0000
43.6700 914.0000 1.0000
43.6800 923.0000 1.0000
43.6900 914.0000 1.0000
43.7000 959.0000 1.0000
43.7100 906.0000 1.0000
43.7200 862.0000 1.0000
43.7300 919.0000 1.0000
43.7400 875.0000 1.0000
43.7500 855.0000 1.0000
43.7600 861.0000 1.0000
43.7700 858.0000 1.0000
43.7800 901.0000 1.0000
43.7900 887.0000 1.0000
43.8000 881.0000 1.0000
43.8100 870.0000 1.0000
43.8200 899.0000 1.0000
43.8300 875.0000 1.0000
43.8400 876.0000 1.0000
43.8500 908.0000 1.0000
43.8600 910.0000 1.0000
43.8700 856.0000 1.0000
43.8800 907.0000 1.0000
43.8900 881.0000 1.0000
43.9000 820.0000 1.0000
43.9100 874.0000 1.0000
43.9200 858.0000 1.0000
43.9300 873.0000 1.0000
43.9400 951.0000 1.0000
43.9500 894.0000 1.0000
43.9600 870.0000 1.0000
43.9700 912.0000 1.0000
43.9800 915.0000 1.0000
43.9900 876.0000 1.0000
44.0000 836.0000 1.0000
44.0100 863.0000 1.0000
44.0200 872.0000 1.0000
44.0300 897.0000 1.0000
44.0400 902.0000 1.0000
44.0500 839.0000 1.0000
44.0600 886.0000 1.0000
44.0700 897.0000 1.0000
44.0800 895.0000 1.0000
44.0900 876.0000 1.0000
44.1000 870.0000 1.0000
44.1100 842.0000 1.0000
44.1200 881.0000 1.0000
44.1300 890.0000 1.0000
44.1400 870.0000 1.0000
44.1500 876.0000 1.0000
44.1600 840.0000 1.0000
44.1700 840.0000 1.0000
44.1800 800.0000 1.0000
44.1900 824.0000 1.0000
44.2000 841.0000 1.0000
44.2100 873.0000 1.0000
44.2200 886.0000 1.0000
44.2300 893.0000 1.0000
44.2400 868.0000 1.0000
44.2500 826.0000 1.0000
44.2600 871.0000 1.0000
44.2700 931.0000 1.0000
44.2800 924.0000 1.0000
44.2900 880.0000 1.0000
44.3000 925.0000 1.0000
44.3100 865.0000 1.0000
44.3200 880.0000 1.0000
44.3300 890.0000 1.0000
44.3400 870.0000 1.0000
44.3500 891.0000 1.0000
44.3600 899.0000 1.0000
44.3700 884.0000 1.0000
44.3800 905.0000 1.0000
44.3900 907.0000 1.0000
44.4000 926.0000 1.0000
44.4100 905.0000 1.0000
44.4200 867.0000 1.0000
44.4300 886.0000 1.0000
44.4400 882.0000 1.0000
44.4500 899.0000 1.0000
44.4600 887.0000 1.0000
44.4700 853.0000 1.0000
44.4800 891.0000 1.0000
44.4900 882.0000 1.0000
44.5000 889.0000 1.0000
44.5100 826.0000 1.0000
44.5200 830.0000 1.0000
44.5300 864.0000 1.0000
44.5400 896.0000 1.0000
44.5500 885.0000 1.0000
44.5600 879.0000 1.0000
44.5700 890.0000 1.0000
44.5800 863.0000 1.0000
44.5900 899.0000 1.0000
44.6000 902.0000 1.0000
44.6100 865.0000 1.0000
44.6200 883.0000 1.0000
44.6300 864.0000 1.0000
44.6400 858.0000 1.0000
44.6500 874.0000 1.0000
44.6600 877.0000 1.0000
44.6700 864.0000 1.0000
44.6800 880.0000 1.0000
44.6900 842.0000 1.0000
44.7000 863.0000 1.0000
44.7100 889.0000 1.0000
44.7200 880.0000 1.0000
44.7300 855.0000 1.0000
44.7400 856.0000 1.0000
44.7500 870.0000 1.0000
44.7600 855.0000 1.0000
44.7700 856.0000 1.0000
44.7800 800.0000 1.0000
44.7900 840.0000 1.0000
44.8000 812.0000 1.0000
44.8100 877.0000 1.0000
44.8200 826.0000 1.0000
44.8300 860.0000 1.0000
44.8400 845.0000 1.0000
44.8500 868.0000 1.0000
44.8600 839.0000 1.0000
44.8700 868.0000 1.0000
44.8800 880.0000 1.0000
44.8900 863.0000 1.0000
44.9000 858.0000 1.0000
44.9100 838.0000 1.0000
44.9200 898.0000 1.0000
44.9300 847.0000 1.0000
44.9400 837.0000 1.0000
44.9500 810.0000 1.0000
44.9600 849.0000 1.0000
44.9700 877.0000 1.0000
44.9800 828.0000 1.0000
44.9900 874.0000 1.0000
45.0000 884.0000 1.0000
45.0100 839.0000 1.0000
45.0200 846.0000 1.0000
45.0300 894.0000 1.0000
45.0400 849.0000 1.0000
45.0500 856.0000 1.0000
45.0600 828.0000 1.0000
45.0700 815.0000 1.0000
45.0800 904.0000 1.0000
45.0900 833.0000 1.0000
45.1000 815.0000 1.0000
45.1100 819.0000 1.0000
45.1200 862.0000 1.0000
45.1300 804.0000 1.0000
45.1400 826.0000 1.0000
45.1500 885.0000 1.0000
45.1600 835.0000 1.0000
45.1700 854.0000 1.0000
45.1800 835.0000 1.0000
45.1900 859.0000 1.0000
45.2000 827.0000 1.0000
45.2100 830.0000 1.0000
45.2200 890.0000 1.0000
45.2300 843.0000 1.0000
45.2400 827.0000 1.0000
45.2500 818.0000 1.0000
45.2600 855.0000 1.0000
45.2700 795.0000 1.0000
45.2800 826.0000 1.0000
45.2900 887.0000 1.0000
45.3000 926.0000 1.0000
45.3100 839.0000 1.0000
45.3200 833.0000 1.0000
45.3300 865.0000 1.0000
45.3400 853.0000 1.0000
45.3500 863.0000 1.0000
45.3600 823.0000 1.0000
45.3700 822.0000 1.0000
45.3800 869.0000 1.0000
45.3900 847.0000 1.0000
45.4000 840.0000 1.0000
45.4100 850.0000 1.0000
45.4200 842.0000 1.0000
45.4300 808.0000 1.0000
45.4400 824.0000 1.0000
45.4500 824.0000 1.0000
45.4600 883.0000 1.0000
45.4700 880.0000 1.0000
45.4800 836.0000 1.0000
45.4900 829.0000 1.0000
45.5000 827.0000 1.0000
45.5100 853.0000 1.0000
45.5200 824.0000 1.0000
45.5300 802.0000 1.0000
45.5400 871.0000 1.0000
45.5500 818.0000 1.0000
45.5600 834.0000 1.0000
45.5700 851.0000 1.0000
45.5800 878.0000 1.0000
45.5900 820.0000 1.0000
45.6000 834.0000 1.0000
45.6100 856.0000 1.0000
45.6200 831.0000 1.0000
45.6300 872.0000 1.0000
45.6400 798.0000 1.0000
45.6500 874.0000 1.0000
45.6600 878.0000 1.0000
45.6700 858.0000 1.0000
45.6800 879.0000 1.0000
45.6900 829.0000 1.0000
45.7000 839.0000 1.0000
45.7100 829.0000 1.0000
45.7200 855.0000 1.0000
45.7300 812.0000 1.0000
45.7400 823.0000 1.0000
45.7500 841.0000 1.0000
45.7600 873.0000 1.0000
45.7700 815.0000 1.0000
45.7800 838.0000 1.0000
45.7900 817.0000 1.0000
45.8000 808.0000 1.0000
45.8100 852.0000 1.0000
45.8200 839.0000 1.0000
45.8300 841.0000 1.0000
45.8400 805.0000 1.0000
45.8500 828.0000 1.0000
45.8600 824.0000 1.0000
45.8700 849.0000 1.0000
45.8800 865.0000 1.0000
45.8900 848.0000 1.0000
45.9000 820.0000 1.0000
45.9100 853.0000 1.0000
45.9200 809.0000 1.0000
45.9300 834.0000 1.0000
45.9400 846.0000 1.0000
45.9500 833.0000 1.0000
45.9600 801.0000 1.0000
45.9700 819.0000 1.0000
45.9800 847.0000 1.0000
45.9900 853.0000 1.0000
46.0000 806.0000 1.0000
46.0100 813.0000 1.0000
46.0200 856.0000 1.0000
46.0300 807.0000 1.0000
46.0400 829.0000 1.0000
46.0500 830.0000 1.0000
46.0600 837.0000 1.0000
46.0700 813.0000 1.0000
46.0800 835.0000 1.0000
46.0900 839.0000 1.0000
46.1000 875.0000 1.0000
46.1100 831.0000 1.0000
46.1200 812.0000 1.0000
46.1300 845.0000 1.0000
46.1400 825.0000 1.0000
46.1500 798.0000 1.0000
46.1600 836.0000 1.0000
46.1700 813.0000 1.0000
46.1800 803.0000 1.0000
46.1900 834.0000 1.0000
46.2000 838.0000 1.0000
46.2100 858.0000 1.0000
46.2200 858.0000 1.0000
46.2300 851.0000 1.0000
46.2400 853.0000 1.0000
46.2500 871.0000 1.0000
46.2600 793.0000 1.0000
46.2700 838.0000 1.0000
46.2800 863.0000 1.0000
46.2900 811.0000 1.0000
46.3000 876.0000 1.0000
46.3100 836.0000 1.0000
46.3200 813.0000 1.0000
46.3300 807.0000 1.0000
46.3400 778.0000 1.0000
46.3500 766.0000 1.0000
46.3600 785.0000 1.0000
46.3700 786.0000 1.0000
46.3800 812.0000 1.0000
46.3900 841.0000 1.0000
46.4000 801.0000 1.0000
46.4100 806.0000 1.0000
46.4200 883.0000 1.0000
46.4300 860.0000 1.0000
46.4400 825.0000 1.0000
46.4500 870.0000 1.0000
46.4600 819.0000 1.0000
46.4700 824.0000 1.0000
46.4800 866.0000 1.0000
46.4900 844.0000 1.0000
46.5000 784.0000 1.0000
46.5100 816.0000 1.0000
46.5200 844.0000 1.0000
46.5300 861.0000 1.0000
46.5400 840.0000 1.0000
46.5500 851.0000 1.0000
46.5600 825.0000 1.0000
46.5700 864.0000 1.0000
46.5800 865.0000 1.0000
46.5900 844.0000 1.0000
46.6000 817.0000 1.0000
46.6100 793.0000 1.0000
46.6200 798.0000 1.0000
46.6300 817.0000 1.0000
46.6400 801.0000 1.0000
46.6500 807.0000 1.0000
46.6600 815.0000 1.0000
46.6700 823.0000 1.0000
46.6800 832.0000 1.0000
46.6900 816.0000 1.0000
46.7000 807.0000 1.0000
46.7100 800.0000 1.0000
46.7200 785.0000 1.0000
46.7300 819.0000 1.0000
46.7400 837.0000 1.0000
46.7500 819.0000 1.0000
46.7600 789.0000 1.0000
46.7700 835.0000 1.0000
46.7800 806.0000 1.0000
46.7900 826.0000 1.0000
46.8000 869.0000 1.0000
46.8100 782.0000 1.0000
46.8200 826.0000 1.0000
46.8300 847.0000 1.0000
46.8400 810.0000 1.0000
46.8500 849.0000 1.0000
46.8600 824.0000 1.0000
46.8700 837.0000 1.0000
46.8800 839.0000 1.0000
46.8900 821.0000 1.0000
46.9000 841.0000 1.0000
46.9100 810.0000 1.0000
46.9200 801.0000 1.0000
46.9300 818.0000 1.0000
46.9400 832.0000 1.0000
46.9500 803.0000 1.0000
46.9600 798.0000 1.0000
46.9700 843.0000 1.0000
46.9800 857.0000 1.0000
46.9900 871.0000 1.0000
47.0000 866.0000 1.0000
47.0100 862.0000 1.0000
47.0200 851.0000 1.0000
47.0300 819.0000 1.0000
47.0400 816.0000 1.0000
47.0500 844.0000 1.0000
47.0600 843.0000 1.0000
47.0700 810.0000 1.0000
47.0800 827.0000 1.0000
47.0900 837.0000 1.0000
47.1000 856.0000 1.0000
47.1100 867.0000 1.0000
47.1200 859.0000 1.0000
47.1300 827.0000 1.0000
47.1400 859.0000 1.0000
47.1500 830.0000 1.0000
47.1600 843.0000 1.0000
47.1700 783.0000 1.0000
47.1800 813.0000 1.0000
47.1900 827.0000 1.0000
47.2000 832.0000 1.0000
47.2100 797.0000 1.0000
47.2200 784.0000 1.0000
47.2300 810.0000 1.0000
47.2400 758.0000 1.0000
47.2500 832.0000 1.0000
47.2600 781.0000 1.0000
47.2700 805.0000 1.0000
47.2800 766.0000 1.0000
47.2900 806.0000 1.0000
47.3000 813.0000 1.0000
47.3100 805.0000 1.0000
47.3200 806.0000 1.0000
47.3300 816.0000 1.0000
47.3400 841.0000 1.0000
47.3500 817.0000 1.0000
47.3600 864.0000 1.0000
47.3700 836.0000 1.0000
47.3800 827.0000 1.0000
47.3900 811.0000 1.0000
47.4000 804.0000 1.0000
47.4100 761.0000 1.0000
47.4200 777.0000 1.0000
47.4300 811.0000 1.0000
47.4400 848.0000 1.0000
47.4500 784.0000 1.0000
47.4600 821.0000 1.0000
47.4700 801.0000 1.0000
47.4800 787.0000 1.0000
47.4900 780.0000 1.0000
47.5000 806.0000 1.0000
47.5100 813.0000 1.0000
47.5200 830.0000 1.0000
47.5300 775.0000 1.0000
47.5400 812.0000 1.0000
47.5500 818.0000 1.0000
47.5600 786.0000 1.0000
47.5700 782.0000 1.0000
47.5800 806.0000 1.0000
47.5900 795.0000 1.0000
47.6000 794.0000 1.0000
47.6100 812.0000 1.0000
47.6200 819.0000 1.0000
47.6300 819.0000 1.0000
47.6400 782.0000 1.0000
47.6500 781.0000 1.0000
47.6600 816.0000 1.0000
47.6700 804.0000 1.0000
47.6800 795.0000 1.0000
47.6900 796.0000 1.0000
47.7000 834.0000 1.0000
47.7100 774.0000 1.0000
47.7200 824.0000 1.0000
47.7300 834.0000 1.0000
47.7400 839.0000 1.0000
47.7500 789.0000 1.0000
47.7600 761.0000 1.0000
47.7700 724.0000 1.0000
47.7800 798.0000 1.0000
47.7900 772.0000 1.0000
47.8000 793.0000 1.0000
47.8100 837.0000 1.0000
47.8200 790.0000 1.0000
47.8300 774.0000 1.0000
47.8400 808.0000 1.0000
47.8500 832.0000 1.0000
47.8600 784.0000 1.0000
47.8700 784.0000 1.0000
47.8800 811.0000 1.0000
47.8900 798.0000 1.0000
47.9000 785.0000 1.0000
47.9100 771.0000 1.0000
47.9200 820.0000 1.0000
47.9300 770.0000 1.0000
47.9400 814.0000 1.0000
47.9500 790.0000 1.0000
47.9600 815.0000 1.0000
47.9700 759.0000 1.0000
47.9800 783.0000 1.0000
47.9900 816.0000 1.0000
48.0000 796.0000 1.0000
48.0100 792.0000 1.0000
48.0200 849.0000 1.0000
48.0300 796.0000 1.0000
48.0400 781.0000 1.0000
48.0500 828.0000 1.0000
48.0600 838.0000 1.0000
48.0700 804.0000 1.0000
48.0800 771.0000 1.0000
48.0900 821.0000 1.0000
48.1000 815.0000 1.0000
48.1100 798.0000 1.0000
48.1200 789.0000 1.0000
48.1300 799.0000 1.0000
48.1400 800.0000 1.0000
48.1500 797.0000 1.0000
48.1600 808.0000 1.0000
48.1700 843.0000 1.0000
48.1800 754.0000 1.0000
48.1900 834.0000 1.0000
48.2000 811.0000 1.0000
48.2100 764.0000 1.0000
48.2200 785.0000 1.0000
48.2300 783.0000 1.0000
48.2400 729.0000 1.0000
48.2500 779.0000 1.0000
48.2600 759.0000 1.0000
48.2700 793.0000 1.0000
48.2800 754.0000 1.0000
48.2900 733.0000 1.0000
48.3000 812.0000 1.0000
48.3100 809.0000 1.0000
48.3200 747.0000 1.0000
48.3300 804.0000 1.0000
48.3400 828.0000 1.0000
48.3500 817.0000 1.0000
48.3600 801.0000 1.0000
48.3700 778.0000 1.0000
48.3800 774.0000 1.0000
48.3900 814.0000 1.0000
48.4000 799.0000 1.0000
48.4100 760.0000 1.0000
48.4200 767.0000 1.0000
48.4300 816.0000 1.0000
48.4400 797.0000 1.0000
48.4500 800.0000 1.0000
48.4600 799.0000 1.0000
48.4700 782.0000 1.0000
48.4800 793.0000 1.0000
48.4900 816.0000 1.0000
48.5000 789.0000 1.0000
48.5100 783.0000 1.0000
48.5200 778.0000 1.0000
48.5300 747.0000 1.0000
48.5400 791.0000 1.0000
48.5500 750.0000 1.0000
48.5600 784.0000 1.0000
48.5700 782.0000 1.0000
48.5800 799.0000 1.0000
48.5900 844.0000 1.0000
48.6000 809.0000 1.0000
48.6100 791.0000 1.0000
48.6200 784.0000 1.0000
48.6300 735.0000 1.0000
48.6400 714.0000 1.0000
48.6500 781.0000 1.0000
48.6600 759.0000 1.0000
48.6700 791.0000 1.0000
48.6800 840.0000 1.0000
48.6900 776.0000 1.0000
48.7000 783.0000 1.0000
48.7100 783.0000 1.0000
48.7200 802.0000 1.0000
48.7300 770.0000 1.0000
48.7400 759.0000 1.0000
48.7500 785.0000 1.0000
48.7600 790.0000 1.0000
48.7700 706.0000 1.0000
48.7800 759.0000 1.0000
48.7900 748.0000 1.0000
48.8000 783.0000 1.0000
48.8100 789.0000 1.0000
48.8200 774.0000 1.0000
48.8300 780.0000 1.0000
48.8400 772.0000 1.0000
48.8500 724.0000 1.0000
48.8600 753.0000 1.0000
48.8700 821.0000 1.0000
48.8800 744.0000 1.0000
48.8900 763.0000 1.0000
48.9000 785.0000 1.0000
48.9100 747.0000 1.0000
48.9200 779.0000 1.0000
48.9300 780.0000 1.0000
48.9400 822.0000 1.0000
48.9500 788.0000 1.0000
48.9600 805.0000 1.0000
48.9700 852.0000 1.0000
48.9800 778.0000 1.0000
48.9900 755.0000 1.0000
49.0000 756.0000 1.0000
49.0100 781.0000 1.0000
49.0200 767.0000 1.0000
49.0300 779.0000 1.0000
49.0400 790.0000 1.0000
49.0500 761.0000 1.0000
49.0600 806.0000 1.0000
49.0700 731.0000 1.0000
49.0800 783.0000 1.0000
49.0900 716.0000 1.0000
49.1000 741.0000 1.0000
49.1100 780.0000 1.0000
49.1200 786.0000 1.0000
49.1300 746.0000 1.0000
49.1400 780.0000 1.0000
49.1500 747.0000 1.0000
49.1600 788.0000 1.0000
49.1700 828.0000 1.0000
49.1800 801.0000 1.0000
49.1900 785.0000 1.0000
49.2000 770.0000 1.0000
49.2100 762.0000 1.0000
49.2200 751.0000 1.0000
49.2300 805.0000 1.0000
49.2400 773.0000 1.0000
49.2500 788.0000 1.0000
49.2600 786.0000 1.0000
49.2700 789.0000 1.0000
49.2800 764.0000 1.0000
49.2900 753.0000 1.0000
49.3000 732.0000 1.0000
49.3100 772.0000 1.0000
49.3200 726.0000 1.0000
49.3300 751.0000 1.0000
49.3400 765.0000 1.0000
49.3500 813.0000 1.0000
49.3600 791.0000 1.0000
49.3700 747.0000 1.0000
49.3800 731.0000 1.0000
49.3900 785.0000 1.0000
49.4000 759.0000 1.0000
49.4100 762.0000 1.0000
49.4200 780.0000 1.0000
49.4300 725.0000 1.0000
49.4400 778.0000 1.0000
49.4500 783.0000 1.0000
49.4600 764.0000 1.0000
49.4700 777.0000 1.0000
49.4800 753.0000 1.0000
49.4900 816.0000 1.0000
49.5000 767.0000 1.0000
49.5100 770.0000 1.0000
49.5200 727.0000 1.0000
49.5300 748.0000 1.0000
49.5400 766.0000 1.0000
49.5500 767.0000 1.0000
49.5600 841.0000 1.0000
49.5700 763.0000 1.0000
49.5800 734.0000 1.0000
49.5900 732.0000 1.0000
49.6000 730.0000 1.0000
49.6100 770.0000 1.0000
49.6200 747.0000 1.0000
49.6300 750.0000 1.0000
49.6400 758.0000 1.0000
49.6500 806.0000 1.0000
49.6600 778.0000 1.0000
49.6700 778.0000 1.0000
49.6800 776.0000 1.0000
49.6900 730.0000 1.0000
49.7000 770.0000 1.0000
49.7100 739.0000 1.0000
49.7200 784.0000 1.0000
49.7300 757.0000 1.0000
49.7400 821.0000 1.0000
49.7500 779.0000 1.0000
49.7600 771.0000 1.0000
49.7700 770.0000 1.0000
49.7800 797.0000 1.0000
49.7900 763.0000 1.0000
49.8000 789.0000 1.0000
49.8100 796.0000 1.0000
49.8200 792.0000 1.0000
49.8300 823.0000 1.0000
49.8400 779.0000 1.0000
49.8500 741.0000 1.0000
49.8600 725.0000 1.0000
49.8700 775.0000 1.0000
49.8800 773.0000 1.0000
49.8900 752.0000 1.0000
49.9000 754.0000 1.0000
49.9100 769.0000 1.0000
49.9200 786.0000 1.0000
49.9300 750.0000 1.0000
49.9400 779.0000 1.0000
49.9500 743.0000 1.0000
49.9600 790.0000 1.0000
49.9700 770.0000 1.0000
49.9800 725.0000 1.0000
49.9900 808.0000 1.0000
50.0000 810.0000 1.0000
50.0100 761.0000 1.0000
50.0200 775.0000 1.0000
50.0300 741.0000 1.0000
50.0400 775.0000 1.0000
50.0500 810.0000 1.0000
50.0600 809.0000 1.0000
50.0700 769.0000 1.0000
50.0800 785.0000 1.0000
50.0900 801.0000 1.0000
50.1000 741.0000 1.0000
50.1100 790.0000 1.0000
50.1200 827.0000 1.0000
50.1300 775.0000 1.0000
50.1400 808.0000 1.0000
50.1500 757.0000 1.0000
50.1600 837.0000 1.0000
50.1700 814.0000 1.0000
50.1800 816.0000 1.0000
50.1900 785.0000 1.0000
50.2000 787.0000 1.0000
50.2100 801.0000 1.0000
50.2200 823.0000 1.0000
50.2300 805.0000 1.0000
50.2400 840.0000 1.0000
50.2500 861.0000 1.0000
50.2600 816.0000 1.0000
50.2700 828.0000 1.0000
50.2800 833.0000 1.0000
50.2900 784.0000 1.0000
50.3000 832.0000 1.0000
50.3100 826.0000 1.0000
50.3200 810.0000 1.0000
50.3300 800.0000 1.0000
50.3400 821.0000 1.0000
50.3500 823.0000 1.0000
50.3600 790.0000 1.0000
50.3700 800.0000 1.0000
50.3800 814.0000 1.0000
50.3900 776.0000 1.0000
50.4000 728.0000 1.0000
50.4100 805.0000 1.0000
50.4200 796.0000 1.0000
50.4300 816.0000 1.0000
50.4400 800.0000 1.0000
50.4500 742.0000 1.0000
50.4600 793.0000 1.0000
50.4700 779.0000 1.0000
50.4800 814.0000 1.0000
50.4900 771.0000 1.0000
50.5000 776.0000 1.0000
50.5100 792.0000 1.0000
50.5200 762.0000 1.0000
50.5300 773.0000 1.0000
50.5400 818.0000 1.0000
50.5500 772.0000 1.0000
50.5600 779.0000 1.0000
50.5700 746.0000 1.0000
50.5800 753.0000 1.0000
50.5900 801.0000 1.0000
50.6000 742.0000 1.0000
50.6100 802.0000 1.0000
50.6200 763.0000 1.0000
50.6300 808.0000 1.0000
50.6400 797.0000 1.0000
50.6500 733.0000 1.0000
50.6600 771.0000 1.0000
50.6700 799.0000 1.0000
50.6800 814.0000 1.0000
50.6900 754.0000 1.0000
50.7000 758.0000 1.0000
50.7100 788.0000 1.0000
50.7200 767.0000 1.0000
50.7300 771.0000 1.0000
50.7400 796.0000 1.0000
50.7500 757.0000 1.0000
50.7600 740.0000 1.0000
50.7700 752.0000 1.0000
50.7800 771.0000 1.0000
50.7900 782.0000 1.0000
50.8000 811.0000 1.0000
50.8100 788.0000 1.0000
50.8200 735.0000 1.0000
50.8300 781.0000 1.0000
50.8400 799.0000 1.0000
50.8500 800.0000 1.0000
50.8600 777.0000 1.0000
50.8700 757.0000 1.0000
50.8800 777.0000 1.0000
50.8900 775.0000 1.0000
50.9000 789.0000 1.0000
50.9100 775.0000 1.0000
50.9200 791.0000 1.0000
50.9300 777.0000 1.0000
50.9400 774.0000 1.0000
50.9500 801.0000 1.0000
50.9600 813.0000 1.0000
50.9700 743.0000 1.0000
50.9800 753.0000 1.0000
50.9900 809.0000 1.0000
51.0000 810.0000 1.0000
51.0100 797.0000 1.0000
51.0200 741.0000 1.0000
51.0300 776.0000 1.0000
51.0400 770.0000 1.0000
51.0500 806.0000 1.0000
51.0600 750.0000 1.0000
51.0700 782.0000 1.0000
51.0800 784.0000 1.0000
51.0900 777.0000 1.0000
51.1000 761.0000 1.0000
51.1100 757.0000 1.0000
51.1200 782.0000 1.0000
51.1300 817.0000 1.0000
51.1400 809.0000 1.0000
51.1500 752.0000 1.0000
51.1600 779.0000 1.0000
51.1700 772.0000 1.0000
51.1800 769.0000 1.0000
51.1900 791.0000 1.0000
51.2000 740.0000 1.0000
51.2100 795.0000 1.0000
51.2200 748.0000 1.0000
51.2300 767.0000 1.0000
51.2400 813.0000 1.0000
51.2500 786.0000 1.0000
51.2600 773.0000 1.0000
51.2700 772.0000 1.0000
51.2800 774.0000 1.0000
51.2900 769.0000 1.0000
51.3000 760.0000 1.0000
51.3100 786.0000 1.0000
51.3200 802.0000 1.0000
51.3300 857.0000 1.0000
51.3400 801.0000 1.0000
51.3500 779.0000 1.0000
51.3600 761.0000 1.0000
51.3700 753.0000 1.0000
51.3800 785.0000 1.0000
51.3900 803.0000 1.0000
51.4000 792.0000 1.0000
51.4100 750.0000 1.0000
51.4200 758.0000 1.0000
51.4300 803.0000 1.0000
51.4400 728.0000 1.0000
51.4500 747.0000 1.0000
51.4600 756.0000 1.0000
51.4700 762.0000 1.0000
51.4800 791.0000 1.0000
51.4900 810.0000 1.0000
51.5000 810.0000 1.0000
51.5100 783.0000 1.0000
51.5200 815.0000 1.0000
51.5300 883.0000 1.0000
51.5400 816.0000 1.0000
51.5500 815.0000 1.0000
51.5600 810.0000 1.0000
51.5700 823.0000 1.0000
51.5800 792.0000 1.0000
51.5900 774.0000 1.0000
51.6000 773.0000 1.0000
51.6100 759.0000 1.0000
51.6200 842.0000 1.0000
51.6300 832.0000 1.0000
51.6400 829.0000 1.0000
51.6500 813.0000 1.0000
51.6600 826.0000 1.0000
51.6700 833.0000 1.0000
51.6800 786.0000 1.0000
51.6900 792.0000 1.0000
51.7000 804.0000 1.0000
51.7100 782.0000 1.0000
51.7200 791.0000 1.0000
51.7300 830.0000 1.0000
51.7400 810.0000 1.0000
51.7500 843.0000 1.0000
51.7600 876.0000 1.0000
51.7700 843.0000 1.0000
51.7800 895.0000 1.0000
51.7900 837.0000 1.0000
51.8000 857.0000 1.0000
51.8100 845.0000 1.0000
51.8200 857.0000 1.0000
51.8300 854.0000 1.0000
51.8400 905.0000 1.0000
51.8500 899.0000 1.0000
51.8600 908.0000 1.0000
51.8700 932.0000 1.0000
51.8800 923.0000 1.0000
51.8900 934.0000 1.0000
51.9000 978.0000 1.0000
51.9100 976.0000 1.0000
51.9200 1008.0000 1.0000
51.9300 1013.0000 1.0000
51.9400 1032.0000 1.0000
51.9500 1056.0000 1.0000
51.9600 1046.0000 1.0000
51.9700 1044.0000 1.0000
51.9800 1090.0000 1.0000
51.9900 1136.0000 1.0000
52.0000 1209.0000 1.0000
52.0100 1238.0000 1.0000
52.0200 1322.0000 1.0000
52.0300 1315.0000 1.0000
52.0400 1364.0000 1.0000
52.0500 1390.0000 1.0000
52.0600 1406.0000 1.0000
52.0700 1506.0000 1.0000
52.0800 1561.0000 1.0000
52.0900 1627.0000 1.0000
52.1000 1728.0000 1.0000
52.1100 1817.0000 1.0000
52.1200 1880.0000 1.0000
52.1300 2109.0000 1.0000
52.1400 2253.0000 1.0000
52.1500 2391.0000 1.0000
52.1600 2523.0000 1.0000
52.1700 2731.0000 1.0000
52.1800 2878.0000 1.0000
52.1900 3145.0000 1.0000
52.2000 3496.0000 1.0000
52.2100 3863.0000 1.0000
52.2200 3943.0000 1.0000
52.2300 4358.0000 1.0000
52.2400 4632.0000 1.0000
52.2500 4703.0000 1.0000
52.2600 4919.0000 1.0000
52.2700 5161.0000 1.0000
52.2800 5269.0000 1.0000
52.2900 5088.0000 1.0000
52.3000 5118.0000 1.0000
52.3100 4911.0000 1.0000
52.3200 4755.0000 1.0000
52.3300 4720.0000 1.0000
52.3400 4600.0000 1.0000
52.3500 4498.0000 1.0000
52.3600 4226.0000 1.0000
52.3700 4173.0000 1.0000
52.3800 4053.0000 1.0000
52.3900 4021.0000 1.0000
52.4000 3918.0000 1.0000
52.4100 3808.0000 1.0000
52.4200 3688.0000 1.0000
52.4300 3517.0000 1.0000
52.4400 3385.0000 1.0000
52.4500 3154.0000 1.0000
52.4600 2893.0000 1.0000
52.4700 2700.0000 1.0000
52.4800 2547.0000 1.0000
52.4900 2475.0000 1.0000
52.5000 2257.0000 1.0000
52.5100 2081.0000 1.0000
52.5200 1952.0000 1.0000
52.5300 1789.0000 1.0000
52.5400 1745.0000 1.0000
52.5500 1713.0000 1.0000
52.5600 1548.0000 1.0000
52.5700 1481.0000 1.0000
52.5800 1510.0000 1.0000
52.5900 1322.0000 1.0000
52.6000 1280.0000 1.0000
52.6100 1340.0000 1.0000
52.6200 1237.0000 1.0000
52.6300 1262.0000 1.0000
52.6400 1182.0000 1.0000
52.6500 1094.0000 1.0000
52.6600 1143.0000 1.0000
52.6700 1064.0000 1.0000
52.6800 1047.0000 1.0000
52.6900 1021.0000 1.0000
52.7000 1029.0000 1.0000
52.7100 969.0000 1.0000
52.7200 1023.0000 1.0000
52.7300 995.0000 1.0000
52.7400 962.0000 1.0000
52.7500 926.0000 1.0000
52.7600 974.0000 1.0000
52.7700 947.0000 1.0000
52.7800 912.0000 1.0000
52.7900 913.0000 1.0000
52.8000 927.0000 1.0000
52.8100 923.0000 1.0000
52.8200 883.0000 1.0000
52.8300 879.0000 1.0000
52.8400 835.0000 1.0000
52.8500 888.0000 1.0000
52.8600 867.0000 1.0000
52.8700 842.0000 1.0000
52.8800 804.0000 1.0000
52.8900 878.0000 1.0000
52.9000 905.0000 1.0000
52.9100 890.0000 1.0000
52.9200 830.0000 1.0000
52.9300 801.0000 1.0000
52.9400 842.0000 1.0000
52.9500 842.0000 1.0000
52.9600 827.0000 1.0000
52.9700 808.0000 1.0000
52.9800 834.0000 1.0000
52.9900 829.0000 1.0000
53.0000 833.0000 1.0000
53.0100 807.0000 1.0000
53.0200 819.0000 1.0000
53.0300 789.0000 1.0000
53.0400 765.0000 1.0000
53.0500 794.0000 1.0000
53.0600 813.0000 1.0000
53.0700 780.0000 1.0000
53.0800 758.0000 1.0000
53.0900 855.0000 1.0000
53.1000 797.0000 1.0000
53.1100 750.0000 1.0000
53.1200 765.0000 1.0000
53.1300 774.0000 1.0000
53.1400 803.0000 1.0000
53.1500 769.0000 1.0000
53.1600 787.0000 1.0000
53.1700 760.0000 1.0000
53.1800 765.0000 1.0000
53.1900 726.0000 1.0000
53.2000 803.0000 1.0000
53.2100 786.0000 1.0000
53.2200 800.0000 1.0000
53.2300 760.0000 1.0000
53.2400 772.0000 1.0000
53.2500 775.0000 1.0000
53.2600 775.0000 1.0000
53.2700 777.0000 1.0000
53.2800 750.0000 1.0000
53.2900 784.0000 1.0000
53.3000 821.0000 1.0000
53.3100 793.0000 1.0000
53.3200 767.0000 1.0000
53.3300 766.0000 1.0000
53.3400 727.0000 1.0000
53.3500 786.0000 1.0000
53.3600 793.0000 1.0000
53.3700 772.0000 1.0000
53.3800 777.0000 1.0000
53.3900 810.0000 1.0000
53.4000 798.0000 1.0000
53.4100 771.0000 1.0000
53.4200 773.0000 1.0000
53.4300 777.0000 1.0000
53.4400 752.0000 1.0000
53.4500 791.0000 1.0000
53.4600 750.0000 1.0000
53.4700 753.0000 1.0000
53.4800 753.0000 1.0000
53.4900 748.0000 1.0000
53.5000 743.0000 1.0000
53.5100 770.0000 1.0000
53.5200 764.0000 1.0000
53.5300 771.0000 1.0000
53.5400 767.0000 1.0000
53.5500 738.0000 1.0000
53.5600 739.0000 1.0000
53.5700 757.0000 1.0000
53.5800 744.0000 1.0000
53.5900 771.0000 1.0000
53.6000 775.0000 1.0000
53.6100 732.0000 1.0000
53.6200 747.0000 1.0000
53.6300 769.0000 1.0000
53.6400 774.0000 1.0000
53.6500 770.0000 1.0000
53.6600 725.0000 1.0000
53.6700 743.0000 1.0000
53.6800 730.0000 1.0000
53.6900 748.0000 1.0000
53.7000 730.0000 1.0000
53.7100 739.0000 1.0000
53.7200 746.0000 1.0000
53.7300 721.0000 1.0000
53.7400 747.0000 1.0000
53.7500 782.0000 1.0000
53.7600 745.0000 1.0000
53.7700 728.0000 1.0000
53.7800 696.0000 1.0000
53.7900 743.0000 1.0000
53.8000 716.0000 1.0000
53.8100 748.0000 1.0000
53.8200 718.0000 1.0000
53.8300 776.0000 1.0000
53.8400 730.0000 1.0000
53.8500 773.0000 1.0000
53.8600 723.0000 1.0000
53.8700 702.0000 1.0000
53.8800 739.0000 1.0000
53.8900 752.0000 1.0000
53.9000 763.0000 1.0000
53.9100 767.0000 1.0000
53.9200 777.0000 1.0000
53.9300 713.0000 1.0000
53.9400 741.0000 1.0000
53.9500 763.0000 1.0000
53.9600 751.0000 1.0000
53.9700 737.0000 1.0000
53.9800 733.0000 1.0000
53.9900 704.0000 1.0000
54.0000 714.0000 1.0000
54.0100 767.0000 1.0000
54.0200 760.0000 1.0000
54.0300 761.0000 1.0000
54.0400 744.0000 1.0000
54.0500 770.0000 1.0000
54.0600 787.0000 1.0000
54.0700 749.0000 1.0000
54.0800 763.0000 1.0000
54.0900 757.0000 1.0000
54.1000 757.0000 1.0000
54.1100 746.0000 1.0000
54.1200 756.0000 1.0000
54.1300 752.0000 1.0000
54.1400 763.0000 1.0000
54.1500 742.0000 1.0000
54.1600 732.0000 1.0000
54.1700 791.0000 1.0000
54.1800 730.0000 1.0000
54.1900 705.0000 1.0000
54.2000 756.0000 1.0000
54.2100 739.0000 1.0000
54.2200 745.0000 1.0000
54.2300 740.0000 1.0000
54.2400 729.0000 1.0000
54.2500 795.0000 1.0000
54.2600 772.0000 1.0000
54.2700 752.0000 1.0000
54.2800 763.0000 1.0000
54.2900 721.0000 1.0000
54.3000 765.0000 1.0000
54.3100 736.0000 1.0000
54.3200 749.0000 1.0000
54.3300 713.0000 1.0000
54.3400 727.0000 1.0000
54.3500 779.0000 1.0000
54.3600 752.0000 1.0000
54.3700 733.0000 1.0000
54.3800 696.0000 1.0000
54.3900 757.0000 1.0000
54.4000 733.0000 1.0000
54.4100 753.0000 1.0000
54.4200 731.0000 1.0000
54.4300 736.0000 1.0000
54.4400 716.0000 1.0000
54.4500 736.0000 1.0000
54.4600 732.0000 1.0000
54.4700 726.0000 1.0000
54.4800 720.0000 1.0000
54.4900 779.0000 1.0000
54.5000 762.0000 1.0000
54.5100 771.0000 1.0000
54.5200 799.0000 1.0000
54.5300 759.0000 1.0000
54.5400 770.0000 1.0000
54.5500 784.0000 1.0000
54.5600 737.0000 1.0000
54.5700 769.0000 1.0000
54.5800 786.0000 1.0000
54.5900 762.0000 1.0000
54.6000 739.0000 1.0000
54.6100 805.0000 1.0000
54.6200 749.0000 1.0000
54.6300 763.0000 1.0000
54.6400 721.0000 1.0000
54.6500 746.0000 1.0000
54.6600 714.0000 1.0000
54.6700 736.0000 1.0000
54.6800 795.0000 1.0000
54.6900 746.0000 1.0000
54.7000 783.0000 1.0000
54.7100 805.0000 1.0000
54.7200 778.0000 1.0000
54.7300 813.0000 1.0000
54.7400 784.0000 1.0000
54.7500 777.0000 1.0000
54.7600 776.0000 1.0000
54.7700 799.0000 1.0000
54.7800 838.0000 1.0000
54.7900 864.0000 1.0000
54.8000 839.0000 1.0000
54.8100 835.0000 1.0000
54.8200 824.0000 1.0000
54.8300 749.0000 1.0000
54.8400 795.0000 1.0000
54.8500 813.0000 1.0000
54.8600 796.0000 1.0000
54.8700 861.0000 1.0000
54.8800 799.0000 1.0000
54.8900 780.0000 1.0000
54.9000 806.0000 1.0000
54.9100 795.0000 1.0000
54.9200 814.0000 1.0000
54.9300 851.0000 1.0000
54.9400 822.0000 1.0000
54.9500 830.0000 1.0000
54.9600 779.0000 1.0000
54.9700 816.0000 1.0000
54.9800 832.0000 1.0000
54.9900 830.0000 1.0000
55.0000 838.0000 1.0000
55.0100 810.0000 1.0000
55.0200 828.0000 1.0000
55.0300 860.0000 1.0000
55.0400 870.0000 1.0000
55.0500 806.0000 1.0000
55.0600 871.0000 1.0000
55.0700 834.0000 1.0000
55.0800 925.0000 1.0000
55.0900 897.0000 1.0000
55.1000 813.0000 1.0000
55.1100 920.0000 1.0000
55.1200 885.0000 1.0000
55.1300 889.0000 1.0000
55.1400 873.0000 1.0000
55.1500 963.0000 1.0000
55.1600 942.0000 1.0000
55.1700 916.0000 1.0000
55.1800 981.0000 1.0000
55.1900 1007.0000 1.0000
55.2000 1032.0000 1.0000
55.2100 1006.0000 1.0000
55.2200 1026.0000 1.0000
55.2300 1056.0000 1.0000
55.2400 1039.0000 1.0000
55.2500 1112.0000 1.0000
55.2600 1129.0000 1.0000
55.2700 1071.0000 1.0000
55.2800 1106.0000 1.0000
55.2900 1137.0000 1.0000
55.3000 1103.0000 1.0000
55.3100 1147.0000 1.0000
55.3200 1024.0000 1.0000
55.3300 1086.0000 1.0000
55.3400 1097.0000 1.0000
55.3500 1096.0000 1.0000
55.3600 1054.0000 1.0000
55.3700 1065.0000 1.0000
55.3800 1037.0000 1.0000
55.3900 1057.0000 1.0000
55.4000 1053.0000 1.0000
55.4100 1060.0000 1.0000
55.4200 1042.0000 1.0000
55.4300 1069.0000 1.0000
55.4400 1017.0000 1.0000
55.4500 1004.0000 1.0000
55.4600 1023.0000 1.0000
55.4700 977.0000 1.0000
55.4800 982.0000 1.0000
55.4900 975.0000 1.0000
55.5000 925.0000 1.0000
55.5100 960.0000 1.0000
55.5200 888.0000 1.0000
55.5300 914.0000 1.0000
55.5400 877.0000 1.0000
55.5500 926.0000 1.0000
55.5600 895.0000 1.0000
55.5700 849.0000 1.0000
55.5800 830.0000 1.0000
55.5900 816.0000 1.0000
55.6000 829.0000 1.0000
55.6100 856.0000 1.0000
55.6200 794.0000 1.0000
55.6300 838.0000 1.0000
55.6400 796.0000 1.0000
55.6500 827.0000 1.0000
55.6600 828.0000 1.0000
55.6700 786.0000 1.0000
55.6800 835.0000 1.0000
55.6900 796.0000 1.0000
55.7000 798.0000 1.0000
55.7100 812.0000 1.0000
55.7200 762.0000 1.0000
55.7300 796.0000 1.0000
55.7400 783.0000 1.0000
55.7500 716.0000 1.0000
55.7600 693.0000 1.0000
55.7700 711.0000 1.0000
55.7800 796.0000 1.0000
55.7900 813.0000 1.0000
55.8000 751.0000 1.0000
55.8100 766.0000 1.0000
55.8200 771.0000 1.0000
55.8300 774.0000 1.0000
55.8400 751.0000 1.0000
55.8500 745.0000 1.0000
55.8600 757.0000 1.0000
55.8700 742.0000 1.0000
55.8800 759.0000 1.0000
55.8900 761.0000 1.0000
55.9000 737.0000 1.0000
55.9100 729.0000 1.0000
55.9200 703.0000 1.0000
55.9300 752.0000 1.0000
55.9400 771.0000 1.0000
55.9500 758.0000 1.0000
55.9600 774.0000 1.0000
55.9700 738.0000 1.0000
55.9800 739.0000 1.0000
55.9900 774.0000 1.0000
56.0000 753.0000 1.0000
56.0100 761.0000 1.0000
56.0200 726.0000 1.0000
56.0300 746.0000 1.0000
56.0400 730.0000 1.0000
56.0500 757.0000 1.0000
56.0600 687.0000 1.0000
56.0700 739.0000 1.0000
56.0800 730.0000 1.0000
56.0900 725.0000 1.0000
56.1000 705.0000 1.0000
56.1100 716.0000 1.0000
56.1200 702.0000 1.0000
56.1300 751.0000 1.0000
56.1400 724.0000 1.0000
56.1500 693.0000 1.0000
56.1600 724.0000 1.0000
56.1700 752.0000 1.0000
56.1800 769.0000 1.0000
56.1900 752.0000 1.0000
56.2000 737.0000 1.0000
56.2100 737.0000 1.0000
56.2200 715.0000 1.0000
56.2300 747.0000 1.0000
56.2400 689.0000 1.0000
56.2500 715.0000 1.0000
56.2600 755.0000 1.0000
56.2700 751.0000 1.0000
56.2800 725.0000 1.0000
56.2900 706.0000 1.0000
56.3000 710.0000 1.0000
56.3100 715.0000 1.0000
56.3200 744.0000 1.0000
56.3300 702.0000 1.0000
56.3400 689.0000 1.0000
56.3500 704.0000 1.0000
56.3600 738.0000 1.0000
56.3700 764.0000 1.0000
56.3800 708.0000 1.0000
56.3900 710.0000 1.0000
56.4000 731.0000 1.0000
56.4100 679.0000 1.0000
56.4200 709.0000 1.0000
56.4300 715.0000 1.0000
56.4400 742.0000 1.0000
56.4500 715.0000 1.0000
56.4600 709.0000 1.0000
56.4700 703.0000 1.0000
56.4800 708.0000 1.0000
56.4900 713.0000 1.0000
56.5000 697.0000 1.0000
56.5100 737.0000 1.0000
56.5200 731.0000 1.0000
56.5300 716.0000 1.0000
56.5400 708.0000 1.0000
56.5500 747.0000 1.0000
56.5600 699.0000 1.0000
56.5700 737.0000 1.0000
56.5800 759.0000 1.0000
56.5900 738.0000 1.0000
56.6000 685.0000 1.0000
56.6100 694.0000 1.0000
56.6200 721.0000 1.0000
56.6300 713.0000 1.0000
56.6400 692.0000 1.0000
56.6500 737.0000 1.0000
56.6600 723.0000 1.0000
56.6700 718.0000 1.0000
56.6800 753.0000 1.0000
56.6900 717.0000 1.0000
56.7000 708.0000 1.0000
56.7100 746.0000 1.0000
56.7200 737.0000 1.0000
56.7300 729.0000 1.0000
56.7400 695.0000 1.0000
56.7500 746.0000 1.0000
56.7600 740.0000 1.0000
56.7700 724.0000 1.0000
56.7800 701.0000 1.0000
56.7900 742.0000 1.0000
56.8000 736.0000 1.0000
56.8100 692.0000 1.0000
56.8200 683.0000 1.0000
56.8300 688.0000 1.0000
56.8400 734.0000 1.0000
56.8500 731.0000 1.0000
56.8600 705.0000 1.0000
56.8700 724.0000 1.0000
56.8800 697.0000 1.0000
56.8900 729.0000 1.0000
56.9000 711.0000 1.0000
56.9100 680.0000 1.0000
56.9200 725.0000 1.0000
56.9300 730.0000 1.0000
56.9400 762.0000 1.0000
56.9500 712.0000 1.0000
56.9600 702.0000 1.0000
56.9700 710.0000 1.0000
56.9800 649.0000 1.0000
56.9900 714.0000 1.0000
57.0000 682.0000 1.0000
57.0100 757.0000 1.0000
57.0200 743.0000 1.0000
57.0300 743.0000 1.0000
57.0400 708.0000 1.0000
57.0500 726.0000 1.0000
57.0600 726.0000 1.0000
57.0700 748.0000 1.0000
57.0800 729.0000 1.0000
57.0900 707.0000 1.0000
57.1000 737.0000 1.0000
57.1100 717.0000 1.0000
57.1200 706.0000 1.0000
57.1300 741.0000 1.0000
57.1400 732.0000 1.0000
57.1500 719.0000 1.0000
57.1600 744.0000 1.0000
57.1700 717.0000 1.0000
57.1800 704.0000 1.0000
57.1900 706.0000 1.0000
57.2000 714.0000 1.0000
57.2100 722.0000 1.0000
57.2200 710.0000 1.0000
57.2300 713.0000 1.0000
57.2400 748.0000 1.0000
57.2500 663.0000 1.0000
57.2600 724.0000 1.0000
57.2700 769.0000 1.0000
57.2800 728.0000 1.0000
57.2900 703.0000 1.0000
57.3000 738.0000 1.0000
57.3100 690.0000 1.0000
57.3200 703.0000 1.0000
57.3300 684.0000 1.0000
57.3400 746.0000 1.0000
57.3500 718.0000 1.0000
57.3600 680.0000 1.0000
57.3700 702.0000 1.0000
57.3800 718.0000 1.0000
57.3900 716.0000 1.0000
57.4000 748.0000 1.0000
57.4100 731.0000 1.0000
57.4200 742.0000 1.0000
57.4300 705.0000 1.0000
57.4400 710.0000 1.0000
57.4500 724.0000 1.0000
57.4600 711.0000 1.0000
57.4700 723.0000 1.0000
57.4800 740.0000 1.0000
57.4900 707.0000 1.0000
57.5000 669.0000 1.0000
57.5100 756.0000 1.0000
57.5200 717.0000 1.0000
57.5300 725.0000 1.0000
57.5400 731.0000 1.0000
57.5500 721.0000 1.0000
57.5600 657.0000 1.0000
57.5700 682.0000 1.0000
57.5800 704.0000 1.0000
57.5900 749.0000 1.0000
57.6000 718.0000 1.0000
57.6100 720.0000 1.0000
57.6200 755.0000 1.0000
57.6300 707.0000 1.0000
57.6400 693.0000 1.0000
57.6500 700.0000 1.0000
57.6600 705.0000 1.0000
57.6700 704.0000 1.0000
57.6800 715.0000 1.0000
57.6900 749.0000 1.0000
57.7000 726.0000 1.0000
57.7100 726.0000 1.0000
57.7200 689.0000 1.0000
57.7300 706.0000 1.0000
57.7400 696.0000 1.0000
57.7500 671.0000 1.0000
57.7600 698.0000 1.0000
57.7700 716.0000 1.0000
57.7800 675.0000 1.0000
57.7900 656.0000 1.0000
57.8000 686.0000 1.0000
57.8100 716.0000 1.0000
57.8200 701.0000 1.0000
57.8300 708.0000 1.0000
57.8400 699.0000 1.0000
57.8500 699.0000 1.0000
57.8600 660.0000 1.0000
57.8700 710.0000 1.0000
57.8800 729.0000 1.0000
57.8900 752.0000 1.0000
57.9000 671.0000 1.0000
57.9100 708.0000 1.0000
57.9200 737.0000 1.0000
57.9300 719.0000 1.0000
57.9400 708.0000 1.0000
57.9500 713.0000 1.0000
57.9600 698.0000 1.0000
57.9700 760.0000 1.0000
57.9800 722.0000 1.0000
57.9900 687.0000 1.0000
58.0000 717.0000 1.0000
58.0100 712.0000 1.0000
58.0200 715.0000 1.0000
58.0300 707.0000 1.0000
58.0400 705.0000 1.0000
58.0500 721.0000 1.0000
58.0600 712.0000 1.0000
58.0700 736.0000 1.0000
58.0800 703.0000 1.0000
58.0900 725.0000 1.0000
58.1000 699.0000 1.0000
58.1100 706.0000 1.0000
58.1200 709.0000 1.0000
58.1300 708.0000 1.0000
58.1400 675.0000 1.0000
58.1500 729.0000 1.0000
58.1600 741.0000 1.0000
58.1700 681.0000 1.0000
58.1800 751.0000 1.0000
58.1900 701.0000 1.0000
58.2000 708.0000 1.0000
58.2100 719.0000 1.0000
58.2200 728.0000 1.0000
58.2300 715.0000 1.0000
58.2400 712.0000 1.0000
58.2500 691.0000 1.0000
58.2600 707.0000 1.0000
58.2700 703.0000 1.0000
58.2800 675.0000 1.0000
58.2900 742.0000 1.0000
58.3000 744.0000 1.0000
58.3100 735.0000 1.0000
58.3200 740.0000 1.0000
58.3300 702.0000 1.0000
58.3400 721.0000 1.0000
58.3500 729.0000 1.0000
58.3600 762.0000 1.0000
58.3700 704.0000 1.0000
58.3800 727.0000 1.0000
58.3900 685.0000 1.0000
58.4000 719.0000 1.0000
58.4100 696.0000 1.0000
58.4200 720.0000 1.0000
58.4300 728.0000 1.0000
58.4400 714.0000 1.0000
58.4500 703.0000 1.0000
58.4600 705.0000 1.0000
58.4700 723.0000 1.0000
58.4800 692.0000 1.0000
58.4900 732.0000 1.0000
58.5000 686.0000 1.0000
58.5100 705.0000 1.0000
58.5200 728.0000 1.0000
58.5300 690.0000 1.0000
58.5400 676.0000 1.0000
58.5500 735.0000 1.0000
58.5600 667.0000 1.0000
58.5700 681.0000 1.0000
58.5800 750.0000 1.0000
58.5900 717.0000 1.0000
58.6000 734.0000 1.0000
58.6100 711.0000 1.0000
58.6200 730.0000 1.0000
58.6300 720.0000 1.0000
58.6400 764.0000 1.0000
58.6500 711.0000 1.0000
58.6600 632.0000 1.0000
58.6700 717.0000 1.0000
58.6800 706.0000 1.0000
58.6900 721.0000 1.0000
58.7000 669.0000 1.0000
58.7100 738.0000 1.0000
58.7200 714.0000 1.0000
58.7300 699.0000 1.0000
58.7400 751.0000 1.0000
58.7500 737.0000 1.0000
58.7600 727.0000 1.0000
58.7700 684.0000 1.0000
58.7800 712.0000 1.0000
58.7900 720.0000 1.0000
58.8000 711.0000 1.0000
58.8100 745.0000 1.0000
58.8200 713.0000 1.0000
58.8300 697.0000 1.0000
58.8400 697.0000 1.0000
58.8500 738.0000 1.0000
58.8600 708.0000 1.0000
58.8700 740.0000 1.0000
58.8800 707.0000 1.0000
58.8900 691.0000 1.0000
58.9000 678.0000 1.0000
58.9100 740.0000 1.0000
58.9200 705.0000 1.0000
58.9300 739.0000 1.0000
58.9400 738.0000 1.0000
58.9500 721.0000 1.0000
58.9600 711.0000 1.0000
58.9700 728.0000 1.0000
58.9800 711.0000 1.0000
58.9900 727.0000 1.0000
59.0000 723.0000 1.0000
59.0100 695.0000 1.0000
59.0200 693.0000 1.0000
59.0300 665.0000 1.0000
59.0400 705.0000 1.0000
59.0500 745.0000 1.0000
59.0600 707.0000 1.0000
59.0700 689.0000 1.0000
59.0800 688.0000 1.0000
59.0900 686.0000 1.0000
59.1000 718.0000 1.0000
59.1100 689.0000 1.0000
59.1200 683.0000 1.0000
59.1300 699.0000 1.0000
59.1400 721.0000 1.0000
59.1500 737.0000 1.0000
59.1600 719.0000 1.0000
59.1700 690.0000 1.0000
59.1800 695.0000 1.0000
59.1900 694.0000 1.0000
59.2000 704.0000 1.0000
59.2100 698.0000 1.0000
59.2200 732.0000 1.0000
59.2300 714.0000 1.0000
59.2400 717.0000 1.0000
59.2500 702.0000 1.0000
59.2600 692.0000 1.0000
59.2700 717.0000 1.0000
59.2800 737.0000 1.0000
59.2900 745.0000 1.0000
59.3000 746.0000 1.0000
59.3100 734.0000 1.0000
59.3200 712.0000 1.0000
59.3300 728.0000 1.0000
59.3400 704.0000 1.0000
59.3500 745.0000 1.0000
59.3600 730.0000 1.0000
59.3700 700.0000 1.0000
59.3800 750.0000 1.0000
59.3900 725.0000 1.0000
59.4000 754.0000 1.0000
59.4100 739.0000 1.0000
59.4200 679.0000 1.0000
59.4300 664.0000 1.0000
59.4400 687.0000 1.0000
59.4500 728.0000 1.0000
59.4600 733.0000 1.0000
59.4700 703.0000 1.0000
59.4800 694.0000 1.0000
59.4900 663.0000 1.0000
59.5000 694.0000 1.0000
59.5100 697.0000 1.0000
59.5200 763.0000 1.0000
59.5300 686.0000 1.0000
59.5400 661.0000 1.0000
59.5500 708.0000 1.0000
59.5600 737.0000 1.0000
59.5700 742.0000 1.0000
59.5800 689.0000 1.0000
59.5900 713.0000 1.0000
59.6000 699.0000 1.0000
59.6100 727.0000 1.0000
59.6200 746.0000 1.0000
59.6300 741.0000 1.0000
59.6400 669.0000 1.0000
59.6500 703.0000 1.0000
59.6600 735.0000 1.0000
59.6700 716.0000 1.0000
59.6800 726.0000 1.0000
59.6900 686.0000 1.0000
59.7000 665.0000 1.0000
59.7100 688.0000 1.0000
59.7200 691.0000 1.0000
59.7300 673.0000 1.0000
59.7400 738.0000 1.0000
59.7500 712.0000 1.0000
59.7600 703.0000 1.0000
59.7700 703.0000 1.0000
59.7800 685.0000 1.0000
59.7900 761.0000 1.0000
59.8000 708.0000 1.0000
59.8100 703.0000 1.0000
59.8200 715.0000 1.0000
59.8300 687.0000 1.0000
59.8400 712.0000 1.0000
59.8500 718.0000 1.0000
59.8600 700.0000 1.0000
59.8700 690.0000 1.0000
59.8800 759.0000 1.0000
59.8900 678.0000 1.0000
59.9000 731.0000 1.0000
59.9100 731.0000 1.0000
59.9200 709.0000 1.0000
59.9300 716.0000 1.0000
59.9400 748.0000 1.0000
59.9500 686.0000 1.0000
59.9600 695.0000 1.0000
59.9700 709.0000 1.0000
59.9800 738.0000 1.0000
59.9900 735.0000 1.0000
60.0000 718.0000 1.0000
60.0100 646.0000 1.0000
60.0200 656.0000 1.0000
60.0300 709.0000 1.0000
60.0400 718.0000 1.0000
60.0500 700.0000 1.0000
60.0600 739.0000 1.0000
60.0700 708.0000 1.0000
60.0800 694.0000 1.0000
60.0900 676.0000 1.0000
60.1000 716.0000 1.0000
60.1100 717.0000 1.0000
60.1200 716.0000 1.0000
60.1300 721.0000 1.0000
60.1400 699.0000 1.0000
60.1500 702.0000 1.0000
60.1600 702.0000 1.0000
60.1700 724.0000 1.0000
60.1800 720.0000 1.0000
60.1900 734.0000 1.0000
60.2000 709.0000 1.0000
60.2100 676.0000 1.0000
60.2200 718.0000 1.0000
60.2300 714.0000 1.0000
60.2400 705.0000 1.0000
60.2500 688.0000 1.0000
60.2600 666.0000 1.0000
60.2700 693.0000 1.0000
60.2800 718.0000 1.0000
60.2900 675.0000 1.0000
60.3000 713.0000 1.0000
60.3100 724.0000 1.0000
60.3200 725.0000 1.0000
60.3300 723.0000 1.0000
60.3400 694.0000 1.0000
60.3500 706.0000 1.0000
60.3600 677.0000 1.0000
60.3700 703.0000 1.0000
60.3800 703.0000 1.0000
60.3900 721.0000 1.0000
60.4000 722.0000 1.0000
60.4100 665.0000 1.0000
60.4200 694.0000 1.0000
60.4300 710.0000 1.0000
60.4400 694.0000 1.0000
60.4500 697.0000 1.0000
60.4600 685.0000 1.0000
60.4700 669.0000 1.0000
60.4800 703.0000 1.0000
60.4900 750.0000 1.0000
60.5000 672.0000 1.0000
60.5100 734.0000 1.0000
60.5200 753.0000 1.0000
60.5300 689.0000 1.0000
60.5400 717.0000 1.0000
60.5500 690.0000 1.0000
60.5600 692.0000 1.0000
60.5700 697.0000 1.0000
60.5800 680.0000 1.0000
60.5900 708.0000 1.0000
60.6000 767.0000 1.0000
60.6100 705.0000 1.0000
60.6200 705.0000 1.0000
60.6300 727.0000 1.0000
60.6400 724.0000 1.0000
60.6500 713.0000 1.0000
60.6600 687.0000 1.0000
60.6700 713.0000 1.0000
60.6800 733.0000 1.0000
60.6900 685.0000 1.0000
60.7000 656.0000 1.0000
60.7100 741.0000 1.0000
60.7200 712.0000 1.0000
60.7300 722.0000 1.0000
60.7400 693.0000 1.0000
60.7500 720.0000 1.0000
60.7600 728.0000 1.0000
60.7700 710.0000 1.0000
60.7800 702.0000 1.0000
60.7900 707.0000 1.0000
60.8000 714.0000 1.0000
60.8100 770.0000 1.0000
60.8200 707.0000 1.0000
60.8300 711.0000 1.0000
60.8400 715.0000 1.0000
60.8500 701.0000 1.0000
60.8600 727.0000 1.0000
60.8700 746.0000 1.0000
60.8800 712.0000 1.0000
60.8900 686.0000 1.0000
60.9000 728.0000 1.0000
60.9100 692.0000 1.0000
60.9200 683.0000 1.0000
60.9300 675.0000 1.0000
60.9400 716.0000 1.0000
60.9500 754.0000 1.0000
60.9600 716.0000 1.0000
60.9700 732.0000 1.0000
60.9800 669.0000 1.0000
60.9900 706.0000 1.0000
61.0000 716.0000 1.0000
61.0100 687.0000 1.0000
61.0200 691.0000 1.0000
61.0300 670.0000 1.0000
61.0400 723.0000 1.0000
61.0500 705.0000 1.0000
61.0600 709.0000 1.0000
61.0700 712.0000 1.0000
61.0800 705.0000 1.0000
61.0900 722.0000 1.0000
61.1000 675.0000 1.0000
61.1100 712.0000 1.0000
61.1200 705.0000 1.0000
61.1300 693.0000 1.0000
61.1400 699.0000 1.0000
61.1500 679.0000 1.0000
61.1600 689.0000 1.0000
61.1700 715.0000 1.0000
61.1800 717.0000 1.0000
61.1900 724.0000 1.0000
61.2000 689.0000 1.0000
61.2100 718.0000 1.0000
61.2200 726.0000 1.0000
61.2300 760.0000 1.0000
61.2400 763.0000 1.0000
61.2500 701.0000 1.0000
61.2600 677.0000 1.0000
61.2700 693.0000 1.0000
61.2800 708.0000 1.0000
61.2900 722.0000 1.0000
61.3000 721.0000 1.0000
61.3100 741.0000 1.0000
61.3200 756.0000 1.0000
61.3300 714.0000 1.0000
61.3400 713.0000 1.0000
61.3500 756.0000 1.0000
61.3600 763.0000 1.0000
61.3700 712.0000 1.0000
61.3800 718.0000 1.0000
61.3900 754.0000 1.0000
61.4000 740.0000 1.0000
61.4100 733.0000 1.0000
61.4200 722.0000 1.0000
61.4300 720.0000 1.0000
61.4400 736.0000 1.0000
61.4500 711.0000 1.0000
61.4600 797.0000 1.0000
61.4700 758.0000 1.0000
61.4800 736.0000 1.0000
61.4900 741.0000 1.0000
61.5000 718.0000 1.0000
61.5100 693.0000 1.0000
61.5200 764.0000 1.0000
61.5300 755.0000 1.0000
61.5400 737.0000 1.0000
61.5500 727.0000 1.0000
61.5600 738.0000 1.0000
61.5700 718.0000 1.0000
61.5800 694.0000 1.0000
61.5900 742.0000 1.0000
61.6000 745.0000 1.0000
61.6100 673.0000 1.0000
61.6200 701.0000 1.0000
61.6300 769.0000 1.0000
61.6400 716.0000 1.0000
61.6500 696.0000 1.0000
61.6600 729.0000 1.0000
61.6700 749.0000 1.0000
61.6800 749.0000 1.0000
61.6900 769.0000 1.0000
61.7000 760.0000 1.0000
61.7100 735.0000 1.0000
61.7200 715.0000 1.0000
61.7300 792.0000 1.0000
61.7400 783.0000 1.0000
61.7500 757.0000 1.0000
61.7600 771.0000 1.0000
61.7700 747.0000 1.0000
61.7800 719.0000 1.0000
61.7900 729.0000 1.0000
61.8000 798.0000 1.0000
61.8100 794.0000 1.0000
61.8200 795.0000 1.0000
61.8300 755.0000 1.0000
61.8400 753.0000 1.0000
61.8500 761.0000 1.0000
61.8600 794.0000 1.0000
61.8700 800.0000 1.0000
61.8800 826.0000 1.0000
61.8900 835.0000 1.0000
61.9000 866.0000 1.0000
61.9100 822.0000 1.0000
61.9200 827.0000 1.0000
61.9300 847.0000 1.0000
61.9400 886.0000 1.0000
61.9500 830.0000 1.0000
61.9600 875.0000 1.0000
61.9700 881.0000 1.0000
61.9800 889.0000 1.0000
61.9900 899.0000 1.0000
62.0000 966.0000 1.0000
62.0100 909.0000 1.0000
62.0200 949.0000 1.0000
62.0300 972.0000 1.0000
62.0400 922.0000 1.0000
62.0500 1013.0000 1.0000
62.0600 1043.0000 1.0000
62.0700 1026.0000 1.0000
62.0800 1075.0000 1.0000
62.0900 1073.0000 1.0000
62.1000 1122.0000 1.0000
62.1100 1164.0000 1.0000
62.1200 1153.0000 1.0000
62.1300 1211.0000 1.0000
62.1400 1217.0000 1.0000
62.1500 1255.0000 1.0000
62.1600 1282.0000 1.0000
62.1700 1385.0000 1.0000
62.1800 1308.0000 1.0000
62.1900 1345.0000 1.0000
62.2000 1387.0000 1.0000
62.2100 1438.0000 1.0000
62.2200 1501.0000 1.0000
62.2300 1560.0000 1.0000
62.2400 1592.0000 1.0000
62.2500 1616.0000 1.0000
62.2600 1688.0000 1.0000
62.2700 1674.0000 1.0000
62.2800 1686.0000 1.0000
62.2900 1690.0000 1.0000
62.3000 1761.0000 1.0000
62.3100 1712.0000 1.0000
62.3200 1661.0000 1.0000
62.3300 1758.0000 1.0000
62.3400 1738.0000 1.0000
62.3500 1794.0000 1.0000
62.3600 1735.0000 1.0000
62.3700 1630.0000 1.0000
62.3800 1739.0000 1.0000
62.3900 1733.0000 1.0000
62.4000 1652.0000 1.0000
62.4100 1655.0000 1.0000
62.4200 1593.0000 1.0000
62.4300 1609.0000 1.0000
62.4400 1602.0000 1.0000
62.4500 1588.0000 1.0000
62.4600 1472.0000 1.0000
62.4700 1527.0000 1.0000
62.4800 1496.0000 1.0000
62.4900 1442.0000 1.0000
62.5000 1482.0000 1.0000
62.5100 1422.0000 1.0000
62.5200 1382.0000 1.0000
62.5300 1331.0000 1.0000
62.5400 1343.0000 1.0000
62.5500 1320.0000 1.0000
62.5600 1292.0000 1.0000
62.5700 1236.0000 1.0000
62.5800 1284.0000 1.0000
62.5900 1152.0000 1.0000
62.6000 1201.0000 1.0000
62.6100 1123.0000 1.0000
62.6200 1134.0000 1.0000
62.6300 1135.0000 1.0000
62.6400 1082.0000 1.0000
62.6500 1009.0000 1.0000
62.6600 1022.0000 1.0000
62.6700 1039.0000 1.0000
62.6800 975.0000 1.0000
62.6900 1003.0000 1.0000
62.7000 995.0000 1.0000
62.7100 995.0000 1.0000
62.7200 997.0000 1.0000
62.7300 928.0000 1.0000
62.7400 896.0000 1.0000
62.7500 911.0000 1.0000
62.7600 868.0000 1.0000
62.7700 900.0000 1.0000
62.7800 934.0000 1.0000
62.7900 920.0000 1.0000
62.8000 894.0000 1.0000
62.8100 837.0000 1.0000
62.8200 882.0000 1.0000
62.8300 851.0000 1.0000
62.8400 820.0000 1.0000
62.8500 790.0000 1.0000
62.8600 817.0000 1.0000
62.8700 805.0000 1.0000
62.8800 845.0000 1.0000
62.8900 816.0000 1.0000
62.9000 814.0000 1.0000
62.9100 823.0000 1.0000
62.9200 837.0000 1.0000
62.9300 821.0000 1.0000
62.9400 868.0000 1.0000
62.9500 850.0000 1.0000
62.9600 765.0000 1.0000
62.9700 787.0000 1.0000
62.9800 772.0000 1.0000
62.9900 744.0000 1.0000
63.0000 800.0000 1.0000
63.0100 800.0000 1.0000
63.0200 757.0000 1.0000
63.0300 775.0000 1.0000
63.0400 803.0000 1.0000
63.0500 836.0000 1.0000
63.0600 811.0000 1.0000
63.0700 779.0000 1.0000
63.0800 776.0000 1.0000
63.0900 804.0000 1.0000
63.1000 788.0000 1.0000
63.1100 755.0000 1.0000
63.1200 765.0000 1.0000
63.1300 799.0000 1.0000
63.1400 750.0000 1.0000
63.1500 786.0000 1.0000
63.1600 825.0000 1.0000
63.1700 797.0000 1.0000
63.1800 767.0000 1.0000
63.1900 756.0000 1.0000
63.2000 777.0000 1.0000
63.2100 770.0000 1.0000
63.2200 782.0000 1.0000
63.2300 766.0000 1.0000
63.2400 779.0000 1.0000
63.2500 784.0000 1.0000
63.2600 760.0000 1.0000
63.2700 759.0000 1.0000
63.2800 721.0000 1.0000
63.2900 759.0000 1.0000
63.3000 727.0000 1.0000
63.3100 727.0000 1.0000
63.3200 787.0000 1.0000
63.3300 724.0000 1.0000
63.3400 736.0000 1.0000
63.3500 779.0000 1.0000
63.3600 766.0000 1.0000
63.3700 706.0000 1.0000
63.3800 735.0000 1.0000
63.3900 740.0000 1.0000
63.4000 766.0000 1.0000
63.4100 708.0000 1.0000
63.4200 738.0000 1.0000
63.4300 709.0000 1.0000
63.4400 734.0000 1.0000
63.4500 733.0000 1.0000
63.4600 713.0000 1.0000
63.4700 721.0000 1.0000
63.4800 741.0000 1.0000
63.4900 747.0000 1.0000
63.5000 767.0000 1.0000
63.5100 714.0000 1.0000
63.5200 728.0000 1.0000
63.5300 716.0000 1.0000
63.5400 714.0000 1.0000
63.5500 686.0000 1.0000
63.5600 718.0000 1.0000
63.5700 727.0000 1.0000
63.5800 713.0000 1.0000
63.5900 717.0000 1.0000
63.6000 708.0000 1.0000
63.6100 737.0000 1.0000
63.6200 680.0000 1.0000
63.6300 681.0000 1.0000
63.6400 765.0000 1.0000
63.6500 765.0000 1.0000
63.6600 717.0000 1.0000
63.6700 736.0000 1.0000
63.6800 696.0000 1.0000
63.6900 712.0000 1.0000
63.7000 688.0000 1.0000
63.7100 685.0000 1.0000
63.7200 706.0000 1.0000
63.7300 715.0000 1.0000
63.7400 735.0000 1.0000
63.7500 767.0000 1.0000
63.7600 682.0000 1.0000
63.7700 704.0000 1.0000
63.7800 774.0000 1.0000
63.7900 761.0000 1.0000
63.8000 681.0000 1.0000
63.8100 729.0000 1.0000
63.8200 722.0000 1.0000
63.8300 738.0000 1.0000
63.8400 697.0000 1.0000
63.8500 741.0000 1.0000
63.8600 729.0000 1.0000
63.8700 741.0000 1.0000
63.8800 738.0000 1.0000
63.8900 701.0000 1.0000
63.9000 688.0000 1.0000
63.9100 685.0000 1.0000
63.9200 695.0000 1.0000
63.9300 730.0000 1.0000
63.9400 713.0000 1.0000
63.9500 743.0000 1.0000
63.9600 744.0000 1.0000
63.9700 745.0000 1.0000
63.9800 726.0000 1.0000
63.9900 708.0000 1.0000
64.0000 709.0000 1.0000
64.0100 707.0000 1.0000
64.0200 748.0000 1.0000
64.0300 750.0000 1.0000
64.0400 772.0000 1.0000
64.0500 735.0000 1.0000
64.0600 700.0000 1.0000
64.0700 725.0000 1.0000
64.0800 709.0000 1.0000
64.0900 746.0000 1.0000
64.1000 740.0000 1.0000
64.1100 715.0000 1.0000
64.1200 713.0000 1.0000
64.1300 705.0000 1.0000
64.1400 711.0000 1.0000
64.1500 675.0000 1.0000
64.1600 723.0000 1.0000
64.1700 676.0000 1.0000
64.1800 743.0000 1.0000
64.1900 730.0000 1.0000
64.2000 716.0000 1.0000
64.2100 726.0000 1.0000
64.2200 716.0000 1.0000
64.2300 738.0000 1.0000
64.2400 724.0000 1.0000
64.2500 732.0000 1.0000
64.2600 729.0000 1.0000
64.2700 757.0000 1.0000
64.2800 736.0000 1.0000
64.2900 691.0000 1.0000
64.3000 702.0000 1.0000
64.3100 676.0000 1.0000
64.3200 720.0000 1.0000
64.3300 705.0000 1.0000
64.3400 703.0000 1.0000
64.3500 697.0000 1.0000
64.3600 719.0000 1.0000
64.3700 743.0000 1.0000
64.3800 770.0000 1.0000
64.3900 749.0000 1.0000
64.4000 774.0000 1.0000
64.4100 725.0000 1.0000
64.4200 725.0000 1.0000
64.4300 700.0000 1.0000
64.4400 726.0000 1.0000
64.4500 769.0000 1.0000
64.4600 765.0000 1.0000
64.4700 790.0000 1.0000
64.4800 813.0000 1.0000
64.4900 761.0000 1.0000
64.5000 729.0000 1.0000
64.5100 767.0000 1.0000
64.5200 747.0000 1.0000
64.5300 792.0000 1.0000
64.5400 784.0000 1.0000
64.5500 786.0000 1.0000
64.5600 780.0000 1.0000
64.5700 831.0000 1.0000
64.5800 824.0000 1.0000
64.5900 803.0000 1.0000
64.6000 851.0000 1.0000
64.6100 857.0000 1.0000
64.6200 835.0000 1.0000
64.6300 881.0000 1.0000
64.6400 869.0000 1.0000
64.6500 879.0000 1.0000
64.6600 936.0000 1.0000
64.6700 951.0000 1.0000
64.6800 972.0000 1.0000
64.6900 1002.0000 1.0000
64.7000 942.0000 1.0000
64.7100 1028.0000 1.0000
64.7200 949.0000 1.0000
64.7300 943.0000 1.0000
64.7400 949.0000 1.0000
64.7500 920.0000 1.0000
64.7600 912.0000 1.0000
64.7700 911.0000 1.0000
64.7800 879.0000 1.0000
64.7900 923.0000 1.0000
64.8000 898.0000 1.0000
64.8100 894.0000 1.0000
64.8200 857.0000 1.0000
64.8300 868.0000 1.0000
64.8400 877.0000 1.0000
64.8500 899.0000 1.0000
64.8600 879.0000 1.0000
64.8700 878.0000 1.0000
64.8800 891.0000 1.0000
64.8900 881.0000 1.0000
64.9000 897.0000 1.0000
64.9100 878.0000 1.0000
64.9200 847.0000 1.0000
64.9300 791.0000 1.0000
64.9400 766.0000 1.0000
64.9500 804.0000 1.0000
64.9600 756.0000 1.0000
64.9700 770.0000 1.0000
64.9800 771.0000 1.0000
64.9900 770.0000 1.0000
65.0000 780.0000 1.0000
65.0100 787.0000 1.0000
65.0200 771.0000 1.0000
65.0300 787.0000 1.0000
65.0400 790.0000 1.0000
65.0500 780.0000 1.0000
65.0600 728.0000 1.0000
65.0700 769.0000 1.0000
65.0800 803.0000 1.0000
65.0900 756.0000 1.0000
65.1000 763.0000 1.0000
65.1100 746.0000 1.0000
65.1200 754.0000 1.0000
65.1300 754.0000 1.0000
65.1400 768.0000 1.0000
65.1500 733.0000 1.0000
65.1600 722.0000 1.0000
65.1700 743.0000 1.0000
65.1800 741.0000 1.0000
65.1900 764.0000 1.0000
65.2000 781.0000 1.0000
65.2100 765.0000 1.0000
65.2200 700.0000 1.0000
65.2300 729.0000 1.0000
65.2400 722.0000 1.0000
65.2500 775.0000 1.0000
65.2600 751.0000 1.0000
65.2700 713.0000 1.0000
65.2800 758.0000 1.0000
65.2900 733.0000 1.0000
65.3000 756.0000 1.0000
65.3100 747.0000 1.0000
65.3200 724.0000 1.0000
65.3300 711.0000 1.0000
65.3400 726.0000 1.0000
65.3500 751.0000 1.0000
65.3600 739.0000 1.0000
65.3700 727.0000 1.0000
65.3800 757.0000 1.0000
65.3900 736.0000 1.0000
65.4000 752.0000 1.0000
65.4100 728.0000 1.0000
65.4200 713.0000 1.0000
65.4300 740.0000 1.0000
65.4400 760.0000 1.0000
65.4500 747.0000 1.0000
65.4600 753.0000 1.0000
65.4700 736.0000 1.0000
65.4800 749.0000 1.0000
65.4900 773.0000 1.0000
65.5000 763.0000 1.0000
65.5100 751.0000 1.0000
65.5200 740.0000 1.0000
65.5300 779.0000 1.0000
65.5400 724.0000 1.0000
65.5500 785.0000 1.0000
65.5600 739.0000 1.0000
65.5700 718.0000 1.0000
65.5800 728.0000 1.0000
65.5900 775.0000 1.0000
65.6000 766.0000 1.0000
65.6100 747.0000 1.0000
65.6200 769.0000 1.0000
65.6300 745.0000 1.0000
65.6400 782.0000 1.0000
65.6500 737.0000 1.0000
65.6600 758.0000 1.0000
65.6700 752.0000 1.0000
65.6800 803.0000 1.0000
65.6900 739.0000 1.0000
65.7000 753.0000 1.0000
65.7100 816.0000 1.0000
65.7200 846.0000 1.0000
65.7300 782.0000 1.0000
65.7400 799.0000 1.0000
65.7500 828.0000 1.0000
65.7600 816.0000 1.0000
65.7700 812.0000 1.0000
65.7800 793.0000 1.0000
65.7900 811.0000 1.0000
65.8000 822.0000 1.0000
65.8100 839.0000 1.0000
65.8200 820.0000 1.0000
65.8300 800.0000 1.0000
65.8400 854.0000 1.0000
65.8500 894.0000 1.0000
65.8600 851.0000 1.0000
65.8700 814.0000 1.0000
65.8800 820.0000 1.0000
65.8900 866.0000 1.0000
65.9000 881.0000 1.0000
65.9100 905.0000 1.0000
65.9200 885.0000 1.0000
65.9300 936.0000 1.0000
65.9400 933.0000 1.0000
65.9500 977.0000 1.0000
65.9600 957.0000 1.0000
65.9700 1007.0000 1.0000
65.9800 1049.0000 1.0000
65.9900 1136.0000 1.0000
66.0000 1112.0000 1.0000
66.0100 1123.0000 1.0000
66.0200 1124.0000 1.0000
66.0300 1129.0000 1.0000
66.0400 1204.0000 1.0000
66.0500 1248.0000 1.0000
66.0600 1291.0000 1.0000
66.0700 1279.0000 1.0000
66.0800 1388.0000 1.0000
66.0900 1428.0000 1.0000
66.1000 1415.0000 1.0000
66.1100 1476.0000 1.0000
66.1200 1556.0000 1.0000
66.1300 1655.0000 1.0000
66.1400 1732.0000 1.0000
66.1500 1891.0000 1.0000
66.1600 1874.0000 1.0000
66.1700 2044.0000 1.0000
66.1800 2165.0000 1.0000
66.1900 2239.0000 1.0000
66.2000 2348.0000 1.0000
66.2100 2456.0000 1.0000
66.2200 2603.0000 1.0000
66.2300 2679.0000 1.0000
66.2400 2764.0000 1.0000
66.2500 2816.0000 1.0000
66.2600 2837.0000 1.0000
66.2700 2870.0000 1.0000
66.2800 2912.0000 1.0000
66.2900 2901.0000 1.0000
66.3000 2837.0000 1.0000
66.3100 2859.0000 1.0000
66.3200 2832.0000 1.0000
66.3300 2794.0000 1.0000
66.3400 2660.0000 1.0000
66.3500 2638.0000 1.0000
66.3600 2544.0000 1.0000
66.3700 2478.0000 1.0000
66.3800 2434.0000 1.0000
66.3900 2360.0000 1.0000
66.4000 2397.0000 1.0000
66.4100 2443.0000 1.0000
66.4200 2383.0000 1.0000
66.4300 2349.0000 1.0000
66.4400 2277.0000 1.0000
66.4500 2241.0000 1.0000
66.4600 2186.0000 1.0000
66.4700 2177.0000 1.0000
66.4800 2073.0000 1.0000
66.4900 2026.0000 1.0000
66.5000 1952.0000 1.0000
66.5100 1904.0000 1.0000
66.5200 1808.0000 1.0000
66.5300 1687.0000 1.0000
66.5400 1648.0000 1.0000
66.5500 1615.0000 1.0000
66.5600 1574.0000 1.0000
66.5700 1509.0000 1.0000
66.5800 1383.0000 1.0000
66.5900 1372.0000 1.0000
66.6000 1277.0000 1.0000
66.6100 1332.0000 1.0000
66.6200 1254.0000 1.0000
66.6300 1232.0000 1.0000
66.6400 1090.0000 1.0000
66.6500 1097.0000 1.0000
66.6600 1090.0000 1.0000
66.6700 1073.0000 1.0000
66.6800 1039.0000 1.0000
66.6900 1043.0000 1.0000
66.7000 995.0000 1.0000
66.7100 991.0000 1.0000
66.7200 975.0000 1.0000
66.7300 913.0000 1.0000
66.7400 928.0000 1.0000
66.7500 925.0000 1.0000
66.7600 904.0000 1.0000
66.7700 904.0000 1.0000
66.7800 858.0000 1.0000
66.7900 876.0000 1.0000
66.8000 859.0000 1.0000
66.8100 895.0000 1.0000
66.8200 867.0000 1.0000
66.8300 833.0000 1.0000
66.8400 835.0000 1.0000
66.8500 780.0000 1.0000
66.8600 836.0000 1.0000
66.8700 801.0000 1.0000
66.8800 800.0000 1.0000
66.8900 784.0000 1.0000
66.9000 806.0000 1.0000
66.9100 783.0000 1.0000
66.9200 780.0000 1.0000
66.9300 773.0000 1.0000
66.9400 739.0000 1.0000
66.9500 736.0000 1.0000
66.9600 758.0000 1.0000
66.9700 765.0000 1.0000
66.9800 736.0000 1.0000
66.9900 759.0000 1.0000
67.0000 720.0000 1.0000
67.0100 732.0000 1.0000
67.0200 771.0000 1.0000
67.0300 741.0000 1.0000
67.0400 724.0000 1.0000
67.0500 720.0000 1.0000
67.0600 718.0000 1.0000
67.0700 697.0000 1.0000
67.0800 764.0000 1.0000
67.0900 723.0000 1.0000
67.1000 694.0000 1.0000
67.1100 701.0000 1.0000
67.1200 724.0000 1.0000
67.1300 752.0000 1.0000
67.1400 714.0000 1.0000
67.1500 698.0000 1.0000
67.1600 678.0000 1.0000
67.1700 738.0000 1.0000
67.1800 686.0000 1.0000
67.1900 723.0000 1.0000
67.2000 727.0000 1.0000
67.2100 726.0000 1.0000
67.2200 720.0000 1.0000
67.2300 709.0000 1.0000
67.2400 721.0000 1.0000
67.2500 720.0000 1.0000
67.2600 732.0000 1.0000
67.2700 718.0000 1.0000
67.2800 688.0000 1.0000
67.2900 699.0000 1.0000
67.3000 706.0000 1.0000
67.3100 702.0000 1.0000
67.3200 730.0000 1.0000
67.3300 699.0000 1.0000
67.3400 636.0000 1.0000
67.3500 688.0000 1.0000
67.3600 686.0000 1.0000
67.3700 709.0000 1.0000
67.3800 720.0000 1.0000
67.3900 690.0000 1.0000
67.4000 743.0000 1.0000
67.4100 675.0000 1.0000
67.4200 676.0000 1.0000
67.4300 662.0000 1.0000
67.4400 666.0000 1.0000
67.4500 712.0000 1.0000
67.4600 656.0000 1.0000
67.4700 678.0000 1.0000
67.4800 667.0000 1.0000
67.4900 645.0000 1.0000
67.5000 668.0000 1.0000
67.5100 657.0000 1.0000
67.5200 665.0000 1.0000
67.5300 634.0000 1.0000
67.5400 673.0000 1.0000
67.5500 625.0000 1.0000
67.5600 634.0000 1.0000
67.5700 637.0000 1.0000
67.5800 705.0000 1.0000
67.5900 671.0000 1.0000
67.6000 671.0000 1.0000
67.6100 646.0000 1.0000
67.6200 650.0000 1.0000
67.6300 715.0000 1.0000
67.6400 666.0000 1.0000
67.6500 662.0000 1.0000
67.6600 688.0000 1.0000
67.6700 684.0000 1.0000
67.6800 672.0000 1.0000
67.6900 638.0000 1.0000
67.7000 688.0000 1.0000
67.7100 663.0000 1.0000
67.7200 694.0000 1.0000
67.7300 710.0000 1.0000
67.7400 696.0000 1.0000
67.7500 691.0000 1.0000
67.7600 688.0000 1.0000
67.7700 680.0000 1.0000
67.7800 634.0000 1.0000
67.7900 687.0000 1.0000
67.8000 670.0000 1.0000
67.8100 674.0000 1.0000
67.8200 673.0000 1.0000
67.8300 650.0000 1.0000
67.8400 695.0000 1.0000
67.8500 656.0000 1.0000
67.8600 636.0000 1.0000
67.8700 648.0000 1.0000
67.8800 705.0000 1.0000
67.8900 684.0000 1.0000
67.9000 664.0000 1.0000
67.9100 700.0000 1.0000
67.9200 642.0000 1.0000
67.9300 641.0000 1.0000
67.9400 596.0000 1.0000
67.9500 660.0000 1.0000
67.9600 609.0000 1.0000
67.9700 621.0000 1.0000
67.9800 655.0000 1.0000
67.9900 672.0000 1.0000
68.0000 635.0000 1.0000
68.0100 673.0000 1.0000
68.0200 640.0000 1.0000
68.0300 662.0000 1.0000
68.0400 658.0000 1.0000
68.0500 678.0000 1.0000
68.0600 660.0000 1.0000
68.0700 623.0000 1.0000
68.0800 662.0000 1.0000
68.0900 659.0000 1.0000
68.1000 680.0000 1.0000
68.1100 616.0000 1.0000
68.1200 624.0000 1.0000
68.1300 624.0000 1.0000
68.1400 646.0000 1.0000
68.1500 642.0000 1.0000
68.1600 681.0000 1.0000
68.1700 689.0000 1.0000
68.1800 648.0000 1.0000
68.1900 629.0000 1.0000
68.2000 673.0000 1.0000
68.2100 699.0000 1.0000
68.2200 669.0000 1.0000
68.2300 657.0000 1.0000
68.2400 686.0000 1.0000
68.2500 697.0000 1.0000
68.2600 638.0000 1.0000
68.2700 615.0000 1.0000
68.2800 611.0000 1.0000
68.2900 630.0000 1.0000
68.3000 657.0000 1.0000
68.3100 632.0000 1.0000
68.3200 655.0000 1.0000
68.3300 654.0000 1.0000
68.3400 660.0000 1.0000
68.3500 668.0000 1.0000
68.3600 675.0000 1.0000
68.3700 690.0000 1.0000
68.3800 632.0000 1.0000
68.3900 668.0000 1.0000
68.4000 608.0000 1.0000
68.4100 652.0000 1.0000
68.4200 687.0000 1.0000
68.4300 628.0000 1.0000
68.4400 659.0000 1.0000
68.4500 655.0000 1.0000
68.4600 640.0000 1.0000
68.4700 599.0000 1.0000
68.4800 672.0000 1.0000
68.4900 646.0000 1.0000
68.5000 612.0000 1.0000
68.5100 663.0000 1.0000
68.5200 595.0000 1.0000
68.5300 645.0000 1.0000
68.5400 602.0000 1.0000
68.5500 632.0000 1.0000
68.5600 645.0000 1.0000
68.5700 605.0000 1.0000
68.5800 620.0000 1.0000
68.5900 612.0000 1.0000
68.6000 627.0000 1.0000
68.6100 654.0000 1.0000
68.6200 639.0000 1.0000
68.6300 667.0000 1.0000
68.6400 644.0000 1.0000
68.6500 638.0000 1.0000
68.6600 626.0000 1.0000
68.6700 585.0000 1.0000
68.6800 617.0000 1.0000
68.6900 627.0000 1.0000
68.7000 659.0000 1.0000
68.7100 613.0000 1.0000
68.7200 617.0000 1.0000
68.7300 601.0000 1.0000
68.7400 658.0000 1.0000
68.7500 652.0000 1.0000
68.7600 658.0000 1.0000
68.7700 673.0000 1.0000
68.7800 659.0000 1.0000
68.7900 636.0000 1.0000
68.8000 663.0000 1.0000
68.8100 637.0000 1.0000
68.8200 635.0000 1.0000
68.8300 635.0000 1.0000
68.8400 631.0000 1.0000
68.8500 601.0000 1.0000
68.8600 650.0000 1.0000
68.8700 651.0000 1.0000
68.8800 652.0000 1.0000
68.8900 615.0000 1.0000
68.9000 685.0000 1.0000
68.9100 699.0000 1.0000
68.9200 628.0000 1.0000
68.9300 667.0000 1.0000
68.9400 626.0000 1.0000
68.9500 615.0000 1.0000
68.9600 631.0000 1.0000
68.9700 641.0000 1.0000
68.9800 646.0000 1.0000
68.9900 632.0000 1.0000
69.0000 677.0000 1.0000
69.0100 641.0000 1.0000
69.0200 629.0000 1.0000
69.0300 650.0000 1.0000
69.0400 627.0000 1.0000
69.0500 617.0000 1.0000
69.0600 602.0000 1.0000
69.0700 611.0000 1.0000
69.0800 665.0000 1.0000
69.0900 614.0000 1.0000
69.1000 633.0000 1.0000
69.1100 619.0000 1.0000
69.1200 657.0000 1.0000
69.1300 631.0000 1.0000
69.1400 616.0000 1.0000
69.1500 649.0000 1.0000
69.1600 624.0000 1.0000
69.1700 617.0000 1.0000
69.1800 612.0000 1.0000
69.1900 604.0000 1.0000
69.2000 612.0000 1.0000
69.2100 638.0000 1.0000
69.2200 624.0000 1.0000
69.2300 624.0000 1.0000
69.2400 665.0000 1.0000
69.2500 613.0000 1.0000
69.2600 639.0000 1.0000
69.2700 606.0000 1.0000
69.2800 657.0000 1.0000
69.2900 652.0000 1.0000
69.3000 622.0000 1.0000
69.3100 604.0000 1.0000
69.3200 639.0000 1.0000
69.3300 648.0000 1.0000
69.3400 656.0000 1.0000
69.3500 594.0000 1.0000
69.3600 639.0000 1.0000
69.3700 640.0000 1.0000
69.3800 612.0000 1.0000
69.3900 608.0000 1.0000
69.4000 646.0000 1.0000
69.4100 619.0000 1.0000
69.4200 638.0000 1.0000
69.4300 612.0000 1.0000
69.4400 639.0000 1.0000
69.4500 676.0000 1.0000
69.4600 650.0000 1.0000
69.4700 629.0000 1.0000
69.4800 641.0000 1.0000
69.4900 635.0000 1.0000
69.5000 644.0000 1.0000
69.5100 654.0000 1.0000
69.5200 668.0000 1.0000
69.5300 653.0000 1.0000
69.5400 613.0000 1.0000
69.5500 647.0000 1.0000
69.5600 650.0000 1.0000
69.5700 617.0000 1.0000
69.5800 668.0000 1.0000
69.5900 662.0000 1.0000
69.6000 631.0000 1.0000
69.6100 675.0000 1.0000
69.6200 630.0000 1.0000
69.6300 627.0000 1.0000
69.6400 590.0000 1.0000
69.6500 615.0000 1.0000
69.6600 618.0000 1.0000
69.6700 632.0000 1.0000
69.6800 628.0000 1.0000
69.6900 634.0000 1.0000
69.7000 647.0000 1.0000
69.7100 632.0000 1.0000
69.7200 672.0000 1.0000
69.7300 626.0000 1.0000
69.7400 670.0000 1.0000
69.7500 634.0000 1.0000
69.7600 591.0000 1.0000
69.7700 645.0000 1.0000
69.7800 646.0000 1.0000
69.7900 630.0000 1.0000
69.8000 672.0000 1.0000
69.8100 609.0000 1.0000
69.8200 640.0000 1.0000
69.8300 655.0000 1.0000
69.8400 667.0000 1.0000
69.8500 607.0000 1.0000
69.8600 610.0000 1.0000
69.8700 623.0000 1.0000
69.8800 629.0000 1.0000
69.8900 613.0000 1.0000
69.9000 591.0000 1.0000
69.9100 627.0000 1.0000
69.9200 641.0000 1.0000
69.9300 642.0000 1.0000
69.9400 618.0000 1.0000
69.9500 560.0000 1.0000
69.9600 593.0000 1.0000
69.9700 612.0000 1.0000
69.9800 659.0000 1.0000
69.9900 649.0000 1.0000
70.0000 633.0000 1.0000
*RAS_INT_END
*RAS_TEMPERATURE_START
*RAS_TEMPERATURE_END
*RAS_DATA_END
