*RAS_DATA_START
*RAS_HEADER_START
*DISP_FMT_X "%.2f"
*DISP_FMT_Y "%.0f"
*DISP_FULLSCALE "15176.0000000000"
*DISP_LINE_COLOR "255.0000000000"
*DISP_LINE_STYLE "0.0000000000"
*DISP_LINE_WIDTH "0.2500000000"
*DISP_NOTE "測定データ-6"
*DISP_OFFSET_Y "0.0000000000"
*DISP_PEAKSEARCH_UNIT_Y "cps"
*DISP_RANGE_BOTTOM "0.0000000000"
*DISP_RANGE_LEFT "20.0000000000"
*DISP_RANGE_LOGCUTOFF "0.0100000000"
*DISP_RANGE_RIGHT "70.0000000000"
*DISP_RANGE_TOP "15176.0000000000"
*DISP_SCALE_MODE_Y "0.0000000000"
*DISP_TAB_NAME "2θ/θ"
*DISP_TITLE_Y "強度"
*DISP_UNIT_Y "cps"
*DISP_WINDOW_NAME "MSG_MACROENGINE"
*FILE_COMMENT " "
*FILE_MD5 ""
*FILE_MEMO " "
*FILE_OPERATOR "Administrator"
*FILE_SAMPLE " "
*FILE_TYPE "RAS_RAW"
*FILE_USERGROUP "システムマネージャ"
*FILE_VERSION "1.0000000000"
*HW_ATTACHMENT_ID "ATT0025"
*HW_ATTACHMENT_NAME "標準|Standard"
*HW_COUNTER_ID-0 "CUT0025"
*HW_COUNTER_ID-1 "CUT0020"
*HW_COUNTER_ID-2 "CUT0020"
*HW_COUNTER_ID-3 "CSL0021"
*HW_COUNTER_ID-4 "CMC0021"
*HW_COUNTER_NAME-0 "D/teX Ultra|D/teX Ultra"
*HW_COUNTER_NAME-1 "None|None"
*HW_COUNTER_NAME-2 "None|None"
*HW_COUNTER_NAME-3 "BBM|BBM"
*HW_COUNTER_NAME-4 "検出器モノクロメータ|Detector monochromator"
*HW_COUNTER_SELECT_NAME "D/teX Ultra|D/teX Ultra"
*HW_GONIOMETER_ID "GON0023"
*HW_GONIOMETER_NAME "SmartLab|SmartLab"
*HW_GONIOMETER_RADIUS-0 "90.0"
*HW_GONIOMETER_RADIUS-1 "114.0"
*HW_GONIOMETER_RADIUS-2 "190.0"
*HW_GONIOMETER_RADIUS-3 "300.0"
*HW_GONIOMETER_RADIUS-4 "187.0"
*HW_GONIOMETER_RADIUS-5 "300.0"
*HW_GONIOMETER_RADIUS-6 "113.0"
*HW_GONIOMETER_RADIUS-7 "331.0"
*HW_I_OPT_ID-0 "CBO0021"
*HW_I_OPT_ID-1 "ICR0023"
*HW_I_OPT_ID-2 "ISL0021"
*HW_I_OPT_ID-3 "ISO0021"
*HW_I_OPT_ID-4 "IAD0021"
*HW_I_OPT_ID-5 "IPR0001"
*HW_I_OPT_NAME-0 "CBOユニット|CBO unit"
*HW_I_OPT_NAME-1 "標準入射光学ユニット|Standard incident optical unit"
*HW_I_OPT_NAME-2 "標準入射スリットボックス|Standard incident slit box"
*HW_I_OPT_NAME-3 "入射平行スリット|Incident parallel slit"
*HW_I_OPT_NAME-4 "長手制限スリット|Length limiting slit"
*HW_I_OPT_NAME-5 "None|None"
*HW_R_ATTENUATER_AUTOMODE "0"
*HW_R_OPT_ID-0 "RSS0021"
*HW_R_OPT_ID-1 "RCR0023"
*HW_R_OPT_ID-2 "RSO0021"
*HW_R_OPT_ID-3 "RRS0021"
*HW_R_OPT_ID-4 "ATN0021"
*HW_R_OPT_ID-5 "RFL0021"
*HW_R_OPT_ID-6 "RAD0021"
*HW_R_OPT_NAME-0 "標準受光スリットボックス1|Standard receiving slit box # 1"
*HW_R_OPT_NAME-1 "標準受光光学ユニット1|Standard receiving unit # 1"
*HW_R_OPT_NAME-2 "標準受光光学ユニット2|Standard receiving optical unit # 2"
*HW_R_OPT_NAME-3 "標準受光スリットボックス2|Standard receiving slit box # 2"
*HW_R_OPT_NAME-4 "標準アッテネータ|Standard Attenuator"
*HW_R_OPT_NAME-5 "Cu Kβ|Cu K-beta"
*HW_R_OPT_NAME-6 "調整用受光スリット|Alignment receiving slit"
*HW_SAMPLE_HOLDER_ID "SMP0023"
*HW_SAMPLE_HOLDER_NAME "標準Zステージ|Standard Z stage"
*HW_XG_CURRENT_MAX "50"
*HW_XG_CURRENT_MIN "2"
*HW_XG_CURRENT_RESOLUTION "1"
*HW_XG_CURRENT_UNIT "mA"
*HW_XG_FOCUS "1mm x 10mm"
*HW_XG_FOCUS_TYPE "Normal"
*HW_XG_ID ""
*HW_XG_NAME "3kW 封入管(ID:1200)|3kW Sealed tube(ID:1200)"
*HW_XG_TARGET_ATOMIC_NUMBER "29.0000000000"
*HW_XG_TARGET_NAME "Cu"
*HW_XG_TYPE "Hermetic"
*HW_XG_VOLTAGE_MAX "60"
*HW_XG_VOLTAGE_MIN "20"
*HW_XG_VOLTAGE_RESOLUTION "1"
*HW_XG_VOLTAGE_UNIT "kV"
*HW_XG_WATT_MAX "1.500"
*HW_XG_WATT_UNIT "kW"
*HW_XG_WAVE_LENGTH_ALPHA1 "1.540593"
*HW_XG_WAVE_LENGTH_ALPHA2 "1.544414"
*HW_XG_WAVE_LENGTH_BETA "1.392250"
*MEAS_COND_AXIS_NAME-0 "2θ/θ"
*MEAS_COND_AXIS_NAME-1 "2θ"
*MEAS_COND_AXIS_NAME-2 "ω"
*MEAS_COND_AXIS_NAME-3 "Z"
*MEAS_COND_AXIS_NAME-4 "2θ/ω"
*MEAS_COND_AXIS_NAME-5 "θs"
*MEAS_COND_AXIS_NAME-6 "θd"
*MEAS_COND_AXIS_NAME-7 "Ts"
*MEAS_COND_AXIS_NAME-8 "CBO選択スリット"
*MEAS_COND_AXIS_NAME-9 "M"
*MEAS_COND_AXIS_NAME-10 "入射平行スリット"
*MEAS_COND_AXIS_NAME-11 "入射スリット"
*MEAS_COND_AXIS_NAME-12 ""
*MEAS_COND_AXIS_NAME-13 "Zs"
*MEAS_COND_AXIS_NAME-14 "入射光学素子"
*MEAS_COND_AXIS_NAME-15 "長手制限スリット"
*MEAS_COND_AXIS_NAME-16 "センタースリット"
*MEAS_COND_AXIS_NAME-17 "フィルター"
*MEAS_COND_AXIS_NAME-18 "受光スリット1"
*MEAS_COND_AXIS_NAME-19 "受光スリット2"
*MEAS_COND_AXIS_NAME-20 "受光光学素子"
*MEAS_COND_AXIS_NAME-21 "受光平行スリット"
*MEAS_COND_AXIS_NAME-22 "調整用受光スリット"
*MEAS_COND_AXIS_NAME-23 ""
*MEAS_COND_AXIS_NAME-24 ""
*MEAS_COND_AXIS_NAME-25 "Zd"
*MEAS_COND_AXIS_NAME-26 "アッテネータ"
*MEAS_COND_AXIS_NAME-27 "検出器モノクロメータ"
*MEAS_COND_AXIS_NAME-28 "モノクロメータスリット"
*MEAS_COND_AXIS_NAME-29 "プライマリビーム"
*MEAS_COND_AXIS_NAME-30 "PHA"
*MEAS_COND_AXIS_NAME_INTERNAL-0 "TwoThetaTheta"
*MEAS_COND_AXIS_NAME_INTERNAL-1 "TwoTheta"
*MEAS_COND_AXIS_NAME_INTERNAL-2 "Omega"
*MEAS_COND_AXIS_NAME_INTERNAL-3 "Z"
*MEAS_COND_AXIS_NAME_INTERNAL-4 "TwoThetaOmega"
*MEAS_COND_AXIS_NAME_INTERNAL-5 "ThetaS"
*MEAS_COND_AXIS_NAME_INTERNAL-6 "ThetaD"
*MEAS_COND_AXIS_NAME_INTERNAL-7 "Ts"
*MEAS_COND_AXIS_NAME_INTERNAL-8 "CBO"
*MEAS_COND_AXIS_NAME_INTERNAL-9 "CBO-M"
*MEAS_COND_AXIS_NAME_INTERNAL-10 "IncidentSollerSlit"
*MEAS_COND_AXIS_NAME_INTERNAL-11 "IncidentSlitBox"
*MEAS_COND_AXIS_NAME_INTERNAL-12 "IncidentSlitBox-_Axis"
*MEAS_COND_AXIS_NAME_INTERNAL-13 "Zs"
*MEAS_COND_AXIS_NAME_INTERNAL-14 "IncidentMonochromator"
*MEAS_COND_AXIS_NAME_INTERNAL-15 "IncidentAxdSlit"
*MEAS_COND_AXIS_NAME_INTERNAL-16 "CenterSlit"
*MEAS_COND_AXIS_NAME_INTERNAL-17 "Filter"
*MEAS_COND_AXIS_NAME_INTERNAL-18 "ReceivingSlitBox1"
*MEAS_COND_AXIS_NAME_INTERNAL-19 "ReceivingSlitBox2"
*MEAS_COND_AXIS_NAME_INTERNAL-20 "ReceivingOptics"
*MEAS_COND_AXIS_NAME_INTERNAL-21 "ReceivingSollerSlit"
*MEAS_COND_AXIS_NAME_INTERNAL-22 "ReceivingAxdSlit"
*MEAS_COND_AXIS_NAME_INTERNAL-23 "ReceivingSlitBox1-_Axis"
*MEAS_COND_AXIS_NAME_INTERNAL-24 "ReceivingSlitBox2-_Axis"
*MEAS_COND_AXIS_NAME_INTERNAL-25 "ReceivingSlitBox2-Zd"
*MEAS_COND_AXIS_NAME_INTERNAL-26 "Attenuator"
*MEAS_COND_AXIS_NAME_INTERNAL-27 "CounterMonochromator"
*MEAS_COND_AXIS_NAME_INTERNAL-28 "CounterSlit"
*MEAS_COND_AXIS_NAME_INTERNAL-29 "IncidentPrimary"
*MEAS_COND_AXIS_NAME_INTERNAL-30 "PHA"
*MEAS_COND_AXIS_NAME_MAGICNO-0 "83951616.0000000000"
*MEAS_COND_AXIS_NAME_MAGICNO-1 "268632064.0000000000"
*MEAS_COND_AXIS_NAME_MAGICNO-2 "268500992.0000000000"
*MEAS_COND_AXIS_NAME_MAGICNO-3 "285278208.0000000000"
*MEAS_COND_AXIS_NAME_MAGICNO-4 "83951616.0000000000"
*MEAS_COND_AXIS_NAME_MAGICNO-5 "131072.0000000000"
*MEAS_COND_AXIS_NAME_MAGICNO-6 "131072.0000000000"
*MEAS_COND_AXIS_NAME_MAGICNO-7 "318898176.0000000000"
*MEAS_COND_AXIS_NAME_MAGICNO-8 "20971521.0000000000"
*MEAS_COND_AXIS_NAME_MAGICNO-9 "285343744.0000000000"
*MEAS_COND_AXIS_NAME_MAGICNO-10 "20971521.0000000000"
*MEAS_COND_AXIS_NAME_MAGICNO-11 "22020097.0000000000"
*MEAS_COND_AXIS_NAME_MAGICNO-12 "25165824.0000000000"
*MEAS_COND_AXIS_NAME_MAGICNO-13 "318898176.0000000000"
*MEAS_COND_AXIS_NAME_MAGICNO-14 "1.0000000000"
*MEAS_COND_AXIS_NAME_MAGICNO-15 "20971521.0000000000"
*MEAS_COND_AXIS_NAME_MAGICNO-16 "20971521.0000000000"
*MEAS_COND_AXIS_NAME_MAGICNO-17 "20971521.0000000000"
*MEAS_COND_AXIS_NAME_MAGICNO-18 "23068673.0000000000"
*MEAS_COND_AXIS_NAME_MAGICNO-19 "23068673.0000000000"
*MEAS_COND_AXIS_NAME_MAGICNO-20 "20971521.0000000000"
*MEAS_COND_AXIS_NAME_MAGICNO-21 "20971521.0000000000"
*MEAS_COND_AXIS_NAME_MAGICNO-22 "20971521.0000000000"
*MEAS_COND_AXIS_NAME_MAGICNO-23 "25165824.0000000000"
*MEAS_COND_AXIS_NAME_MAGICNO-24 "25165824.0000000000"
*MEAS_COND_AXIS_NAME_MAGICNO-25 "285343744.0000000000"
*MEAS_COND_AXIS_NAME_MAGICNO-26 "17301505.0000000000"
*MEAS_COND_AXIS_NAME_MAGICNO-27 "20971521.0000000000"
*MEAS_COND_AXIS_NAME_MAGICNO-28 "20971521.0000000000"
*MEAS_COND_AXIS_NAME_MAGICNO-29 "20971521.0000000000"
*MEAS_COND_AXIS_NAME_MAGICNO-30 "0.0000000000"
*MEAS_COND_AXIS_OFFSET-0 "-"
*MEAS_COND_AXIS_OFFSET-1 "-0.1081000000"
*MEAS_COND_AXIS_OFFSET-2 "0.3758000000"
*MEAS_COND_AXIS_OFFSET-3 "-"
*MEAS_COND_AXIS_OFFSET-4 "-"
*MEAS_COND_AXIS_OFFSET-5 "0.3758000000"
*MEAS_COND_AXIS_OFFSET-6 "-0.4839000000"
*MEAS_COND_AXIS_OFFSET-7 "-"
*MEAS_COND_AXIS_OFFSET-8 "-"
*MEAS_COND_AXIS_OFFSET-9 "-"
*MEAS_COND_AXIS_OFFSET-10 "-"
*MEAS_COND_AXIS_OFFSET-11 "-"
*MEAS_COND_AXIS_OFFSET-12 "-"
*MEAS_COND_AXIS_OFFSET-13 "-"
*MEAS_COND_AXIS_OFFSET-14 "-"
*MEAS_COND_AXIS_OFFSET-15 "-"
*MEAS_COND_AXIS_OFFSET-16 "-"
*MEAS_COND_AXIS_OFFSET-17 "-"
*MEAS_COND_AXIS_OFFSET-18 "-"
*MEAS_COND_AXIS_OFFSET-19 "-"
*MEAS_COND_AXIS_OFFSET-20 "-"
*MEAS_COND_AXIS_OFFSET-21 "-"
*MEAS_COND_AXIS_OFFSET-22 "-"
*MEAS_COND_AXIS_OFFSET-23 "-"
*MEAS_COND_AXIS_OFFSET-24 "-"
*MEAS_COND_AXIS_OFFSET-25 "-"
*MEAS_COND_AXIS_OFFSET-26 "-"
*MEAS_COND_AXIS_OFFSET-27 "-"
*MEAS_COND_AXIS_OFFSET-28 "-"
*MEAS_COND_AXIS_OFFSET-29 "-"
*MEAS_COND_AXIS_OFFSET-30 "-"
*MEAS_COND_AXIS_POSITION-0 "0.0000000000"
*MEAS_COND_AXIS_POSITION-1 "0.0000000000"
*MEAS_COND_AXIS_POSITION-2 "0.0000000000"
*MEAS_COND_AXIS_POSITION-3 "-0.5500000000"
*MEAS_COND_AXIS_POSITION-4 "0.0000000000"
*MEAS_COND_AXIS_POSITION-5 "0.0000000000"
*MEAS_COND_AXIS_POSITION-6 "0.0000000000"
*MEAS_COND_AXIS_POSITION-7 "-0.4278800000"
*MEAS_COND_AXIS_POSITION-8 "BB"
*MEAS_COND_AXIS_POSITION-9 "0.0000000000"
*MEAS_COND_AXIS_POSITION-10 "Soller_slit_5.0deg"
*MEAS_COND_AXIS_POSITION-11 "2/3deg"
*MEAS_COND_AXIS_POSITION-12 "2.2088000000"
*MEAS_COND_AXIS_POSITION-13 "-0.4140600000"
*MEAS_COND_AXIS_POSITION-14 "0.0000000000"
*MEAS_COND_AXIS_POSITION-15 "10.0mm"
*MEAS_COND_AXIS_POSITION-16 "None"
*MEAS_COND_AXIS_POSITION-17 "Cu_K-beta"
*MEAS_COND_AXIS_POSITION-18 "13.000mm"
*MEAS_COND_AXIS_POSITION-19 "13.000mm"
*MEAS_COND_AXIS_POSITION-20 "No_unit"
*MEAS_COND_AXIS_POSITION-21 "Soller_slit_5.0deg"
*MEAS_COND_AXIS_POSITION-22 "None"
*MEAS_COND_AXIS_POSITION-23 "13.0000000000"
*MEAS_COND_AXIS_POSITION-24 "13.0000000000"
*MEAS_COND_AXIS_POSITION-25 "0.0109400000"
*MEAS_COND_AXIS_POSITION-26 "Open"
*MEAS_COND_AXIS_POSITION-27 "None"
*MEAS_COND_AXIS_POSITION-28 "None"
*MEAS_COND_AXIS_POSITION-29 "None"
*MEAS_COND_AXIS_POSITION-30 "38.0000000000"
*MEAS_COND_AXIS_UNIT-0 "deg"
*MEAS_COND_AXIS_UNIT-1 "deg"
*MEAS_COND_AXIS_UNIT-2 "deg"
*MEAS_COND_AXIS_UNIT-3 "mm"
*MEAS_COND_AXIS_UNIT-4 "deg"
*MEAS_COND_AXIS_UNIT-5 "deg"
*MEAS_COND_AXIS_UNIT-6 "deg"
*MEAS_COND_AXIS_UNIT-7 "mm"
*MEAS_COND_AXIS_UNIT-8 ""
*MEAS_COND_AXIS_UNIT-9 "pulse"
*MEAS_COND_AXIS_UNIT-10 ""
*MEAS_COND_AXIS_UNIT-11 ""
*MEAS_COND_AXIS_UNIT-12 "mm"
*MEAS_COND_AXIS_UNIT-13 "mm"
*MEAS_COND_AXIS_UNIT-14 ""
*MEAS_COND_AXIS_UNIT-15 ""
*MEAS_COND_AXIS_UNIT-16 ""
*MEAS_COND_AXIS_UNIT-17 ""
*MEAS_COND_AXIS_UNIT-18 ""
*MEAS_COND_AXIS_UNIT-19 ""
*MEAS_COND_AXIS_UNIT-20 ""
*MEAS_COND_AXIS_UNIT-21 ""
*MEAS_COND_AXIS_UNIT-22 ""
*MEAS_COND_AXIS_UNIT-23 "mm"
*MEAS_COND_AXIS_UNIT-24 "mm"
*MEAS_COND_AXIS_UNIT-25 "mm"
*MEAS_COND_AXIS_UNIT-26 ""
*MEAS_COND_AXIS_UNIT-27 ""
*MEAS_COND_AXIS_UNIT-28 ""
*MEAS_COND_AXIS_UNIT-29 ""
*MEAS_COND_AXIS_UNIT-30 "div"
*MEAS_COND_COUNTER_CNTLOSS_CORR "0.0000000000"
*MEAS_COND_COUNTER_PHABASE "38.0000000000"
*MEAS_COND_COUNTER_PHAWINDOW "16.0000000000"
*MEAS_COND_COUNTER_PHA_UNIT "div"
*MEAS_COND_COUNTER_TAUDIFF "30.0000000000"
*MEAS_COND_COUNTER_TAUINT "0.0000000000"
*MEAS_COND_IRRADIATION_MODE "OFF"
*MEAS_COND_IRRADIATION_WIDTH ""
*MEAS_COND_OPT_ATTR "集中法"
*MEAS_COND_OPT_NAME "@集中法"
*MEAS_COND_UNSYMMETRIC_MODE "OFF"
*MEAS_COND_XG_CURRENT "30.0000000000"
*MEAS_COND_XG_VOLTAGE "40.0000000000"
*MEAS_COND_XG_WAVE_TYPE "Ka"
*MEAS_DATA_COUNT "5001.0000000000"
*MEAS_SCAN_AXIS_X "2θ/θ"
*MEAS_SCAN_AXIS_X_INTERNAL "TwoThetaTheta"
*MEAS_SCAN_END_TIME "06/30/21 17:09:56"
*MEAS_SCAN_MODE "CONTINUOUS"
*MEAS_SCAN_MONITOR "0"
*MEAS_SCAN_RESOLUTION_X "0.0002"
*MEAS_SCAN_SPEED "1.0"
*MEAS_SCAN_SPEED_UNIT "deg/min"
*MEAS_SCAN_START "20.0000000000"
*MEAS_SCAN_START_TIME "06/30/21 16:17:03"
*MEAS_SCAN_STEP "0.0100000000"
*MEAS_SCAN_STOP "70.0000000000"
*MEAS_SCAN_UNIT_X "deg"
*MEAS_SCAN_UNIT_Y "counts"
*RAS_HEADER_END
*RAS_INT_START
20.0000 1498.0000 1.0000
20.0100 1543.0000 1.0000
20.0200 1587.0000 1.0000
20.0300 1474.0000 1.0000
20.0400 1504.0000 1.0000
20.0500 1530.0000 1.0000
20.0600 1512.0000 1.0000
20.0700 1559.0000 1.0000
20.0800 1546.0000 1.0000
20.0900 1561.0000 1.0000
20.1000 1531.0000 1.0000
20.1100 1546.0000 1.0000
20.1200 1558.0000 1.0000
20.1300 1624.0000 1.0000
20.1400 1561.0000 1.0000
20.1500 1554.0000 1.0000
20.1600 1555.0000 1.0000
20.1700 1560.0000 1.0000
20.1800 1498.0000 1.0000
20.1900 1501.0000 1.0000
20.2000 1597.0000 1.0000
20.2100 1595.0000 1.0000
20.2200 1588.0000 1.0000
20.2300 1548.0000 1.0000
20.2400 1491.0000 1.0000
20.2500 1451.0000 1.0000
20.2600 1517.0000 1.0000
20.2700 1488.0000 1.0000
20.2800 1527.0000 1.0000
20.2900 1528.0000 1.0000
20.3000 1553.0000 1.0000
20.3100 1497.0000 1.0000
20.3200 1510.0000 1.0000
20.3300 1573.0000 1.0000
20.3400 1519.0000 1.0000
20.3500 1507.0000 1.0000
20.3600 1546.0000 1.0000
20.3700 1542.0000 1.0000
20.3800 1514.0000 1.0000
20.3900 1548.0000 1.0000
20.4000 1501.0000 1.0000
20.4100 1494.0000 1.0000
20.4200 1499.0000 1.0000
20.4300 1551.0000 1.0000
20.4400 1590.0000 1.0000
20.4500 1542.0000 1.0000
20.4600 1577.0000 1.0000
20.4700 1551.0000 1.0000
20.4800 1543.0000 1.0000
20.4900 1553.0000 1.0000
20.5000 1571.0000 1.0000
20.5100 1551.0000 1.0000
20.5200 1508.0000 1.0000
20.5300 1466.0000 1.0000
20.5400 1536.0000 1.0000
20.5500 1471.0000 1.0000
20.5600 1549.0000 1.0000
20.5700 1562.0000 1.0000
20.5800 1576.0000 1.0000
20.5900 1563.0000 1.0000
20.6000 1502.0000 1.0000
20.6100 1522.0000 1.0000
20.6200 1530.0000 1.0000
20.6300 1554.0000 1.0000
20.6400 1477.0000 1.0000
20.6500 1507.0000 1.0000
20.6600 1519.0000 1.0000
20.6700 1518.0000 1.0000
20.6800 1559.0000 1.0000
20.6900 1495.0000 1.0000
20.7000 1548.0000 1.0000
20.7100 1504.0000 1.0000
20.7200 1435.0000 1.0000
20.7300 1565.0000 1.0000
20.7400 1448.0000 1.0000
20.7500 1526.0000 1.0000
20.7600 1515.0000 1.0000
20.7700 1555.0000 1.0000
20.7800 1438.0000 1.0000
20.7900 1549.0000 1.0000
20.8000 1563.0000 1.0000
20.8100 1500.0000 1.0000
20.8200 1530.0000 1.0000
20.8300 1579.0000 1.0000
20.8400 1591.0000 1.0000
20.8500 1559.0000 1.0000
20.8600 1571.0000 1.0000
20.8700 1571.0000 1.0000
20.8800 1557.0000 1.0000
20.8900 1511.0000 1.0000
20.9000 1527.0000 1.0000
20.9100 1536.0000 1.0000
20.9200 1562.0000 1.0000
20.9300 1537.0000 1.0000
20.9400 1545.0000 1.0000
20.9500 1510.0000 1.0000
20.9600 1520.0000 1.0000
20.9700 1505.0000 1.0000
20.9800 1535.0000 1.0000
20.9900 1538.0000 1.0000
21.0000 1516.0000 1.0000
21.0100 1577.0000 1.0000
21.0200 1504.0000 1.0000
21.0300 1530.0000 1.0000
21.0400 1560.0000 1.0000
21.0500 1554.0000 1.0000
21.0600 1459.0000 1.0000
21.0700 1546.0000 1.0000
21.0800 1547.0000 1.0000
21.0900 1529.0000 1.0000
21.1000 1522.0000 1.0000
21.1100 1526.0000 1.0000
21.1200 1496.0000 1.0000
21.1300 1520.0000 1.0000
21.1400 1554.0000 1.0000
21.1500 1541.0000 1.0000
21.1600 1496.0000 1.0000
21.1700 1523.0000 1.0000
21.1800 1527.0000 1.0000
21.1900 1533.0000 1.0000
21.2000 1516.0000 1.0000
21.2100 1489.0000 1.0000
21.2200 1556.0000 1.0000
21.2300 1587.0000 1.0000
21.2400 1591.0000 1.0000
21.2500 1549.0000 1.0000
21.2600 1594.0000 1.0000
21.2700 1514.0000 1.0000
21.2800 1503.0000 1.0000
21.2900 1548.0000 1.0000
21.3000 1488.0000 1.0000
21.3100 1520.0000 1.0000
21.3200 1523.0000 1.0000
21.3300 1450.0000 1.0000
21.3400 1525.0000 1.0000
21.3500 1617.0000 1.0000
21.3600 1514.0000 1.0000
21.3700 1523.0000 1.0000
21.3800 1581.0000 1.0000
21.3900 1556.0000 1.0000
21.4000 1492.0000 1.0000
21.4100 1499.0000 1.0000
21.4200 1566.0000 1.0000
21.4300 1491.0000 1.0000
21.4400 1570.0000 1.0000
21.4500 1516.0000 1.0000
21.4600 1527.0000 1.0000
21.4700 1526.0000 1.0000
21.4800 1518.0000 1.0000
21.4900 1528.0000 1.0000
21.5000 1545.0000 1.0000
21.5100 1504.0000 1.0000
21.5200 1581.0000 1.0000
21.5300 1593.0000 1.0000
21.5400 1535.0000 1.0000
21.5500 1603.0000 1.0000
21.5600 1540.0000 1.0000
21.5700 1565.0000 1.0000
21.5800 1569.0000 1.0000
21.5900 1544.0000 1.0000
21.6000 1555.0000 1.0000
21.6100 1557.0000 1.0000
21.6200 1513.0000 1.0000
21.6300 1517.0000 1.0000
21.6400 1562.0000 1.0000
21.6500 1564.0000 1.0000
21.6600 1476.0000 1.0000
21.6700 1510.0000 1.0000
21.6800 1524.0000 1.0000
21.6900 1534.0000 1.0000
21.7000 1543.0000 1.0000
21.7100 1517.0000 1.0000
21.7200 1536.0000 1.0000
21.7300 1507.0000 1.0000
21.7400 1530.0000 1.0000
21.7500 1601.0000 1.0000
21.7600 1566.0000 1.0000
21.7700 1586.0000 1.0000
21.7800 1485.0000 1.0000
21.7900 1567.0000 1.0000
21.8000 1544.0000 1.0000
21.8100 1595.0000 1.0000
21.8200 1640.0000 1.0000
21.8300 1519.0000 1.0000
21.8400 1548.0000 1.0000
21.8500 1485.0000 1.0000
21.8600 1510.0000 1.0000
21.8700 1579.0000 1.0000
21.8800 1564.0000 1.0000
21.8900 1582.0000 1.0000
21.9000 1560.0000 1.0000
21.9100 1556.0000 1.0000
21.9200 1538.0000 1.0000
21.9300 1552.0000 1.0000
21.9400 1518.0000 1.0000
21.9500 1498.0000 1.0000
21.9600 1487.0000 1.0000
21.9700 1531.0000 1.0000
21.9800 1557.0000 1.0000
21.9900 1530.0000 1.0000
22.0000 1497.0000 1.0000
22.0100 1518.0000 1.0000
22.0200 1533.0000 1.0000
22.0300 1512.0000 1.0000
22.0400 1522.0000 1.0000
22.0500 1585.0000 1.0000
22.0600 1436.0000 1.0000
22.0700 1532.0000 1.0000
22.0800 1566.0000 1.0000
22.0900 1503.0000 1.0000
22.1000 1433.0000 1.0000
22.1100 1466.0000 1.0000
22.1200 1532.0000 1.0000
22.1300 1567.0000 1.0000
22.1400 1626.0000 1.0000
22.1500 1565.0000 1.0000
22.1600 1537.0000 1.0000
22.1700 1525.0000 1.0000
22.1800 1526.0000 1.0000
22.1900 1521.0000 1.0000
22.2000 1568.0000 1.0000
22.2100 1529.0000 1.0000
22.2200 1527.0000 1.0000
22.2300 1480.0000 1.0000
22.2400 1556.0000 1.0000
22.2500 1544.0000 1.0000
22.2600 1549.0000 1.0000
22.2700 1506.0000 1.0000
22.2800 1582.0000 1.0000
22.2900 1518.0000 1.0000
22.3000 1535.0000 1.0000
22.3100 1524.0000 1.0000
22.3200 1582.0000 1.0000
22.3300 1516.0000 1.0000
22.3400 1524.0000 1.0000
22.3500 1496.0000 1.0000
22.3600 1535.0000 1.0000
22.3700 1580.0000 1.0000
22.3800 1506.0000 1.0000
22.3900 1526.0000 1.0000
22.4000 1551.0000 1.0000
22.4100 1534.0000 1.0000
22.4200 1522.0000 1.0000
22.4300 1543.0000 1.0000
22.4400 1539.0000 1.0000
22.4500 1533.0000 1.0000
22.4600 1570.0000 1.0000
22.4700 1597.0000 1.0000
22.4800 1571.0000 1.0000
22.4900 1570.0000 1.0000
22.5000 1634.0000 1.0000
22.5100 1570.0000 1.0000
22.5200 1578.0000 1.0000
22.5300 1622.0000 1.0000
22.5400 1544.0000 1.0000
22.5500 1546.0000 1.0000
22.5600 1554.0000 1.0000
22.5700 1494.0000 1.0000
22.5800 1584.0000 1.0000
22.5900 1621.0000 1.0000
22.6000 1507.0000 1.0000
22.6100 1505.0000 1.0000
22.6200 1513.0000 1.0000
22.6300 1592.0000 1.0000
22.6400 1530.0000 1.0000
22.6500 1580.0000 1.0000
22.6600 1498.0000 1.0000
22.6700 1536.0000 1.0000
22.6800 1595.0000 1.0000
22.6900 1536.0000 1.0000
22.7000 1563.0000 1.0000
22.7100 1539.0000 1.0000
22.7200 1537.0000 1.0000
22.7300 1567.0000 1.0000
22.7400 1536.0000 1.0000
22.7500 1542.0000 1.0000
22.7600 1579.0000 1.0000
22.7700 1566.0000 1.0000
22.7800 1522.0000 1.0000
22.7900 1533.0000 1.0000
22.8000 1558.0000 1.0000
22.8100 1631.0000 1.0000
22.8200 1578.0000 1.0000
22.8300 1584.0000 1.0000
22.8400 1630.0000 1.0000
22.8500 1522.0000 1.0000
22.8600 1502.0000 1.0000
22.8700 1575.0000 1.0000
22.8800 1594.0000 1.0000
22.8900 1554.0000 1.0000
22.9000 1588.0000 1.0000
22.9100 1567.0000 1.0000
22.9200 1612.0000 1.0000
22.9300 1542.0000 1.0000
22.9400 1560.0000 1.0000
22.9500 1557.0000 1.0000
22.9600 1594.0000 1.0000
22.9700 1557.0000 1.0000
22.9800 1542.0000 1.0000
22.9900 1565.0000 1.0000
23.0000 1503.0000 1.0000
23.0100 1545.0000 1.0000
23.0200 1521.0000 1.0000
23.0300 1560.0000 1.0000
23.0400 1555.0000 1.0000
23.0500 1528.0000 1.0000
23.0600 1558.0000 1.0000
23.0700 1558.0000 1.0000
23.0800 1623.0000 1.0000
23.0900 1572.0000 1.0000
23.1000 1529.0000 1.0000
23.1100 1512.0000 1.0000
23.1200 1549.0000 1.0000
23.1300 1549.0000 1.0000
23.1400 1522.0000 1.0000
23.1500 1570.0000 1.0000
23.1600 1563.0000 1.0000
23.1700 1541.0000 1.0000
23.1800 1592.0000 1.0000
23.1900 1546.0000 1.0000
23.2000 1516.0000 1.0000
23.2100 1529.0000 1.0000
23.2200 1553.0000 1.0000
23.2300 1551.0000 1.0000
23.2400 1517.0000 1.0000
23.2500 1582.0000 1.0000
23.2600 1654.0000 1.0000
23.2700 1573.0000 1.0000
23.2800 1559.0000 1.0000
23.2900 1589.0000 1.0000
23.3000 1616.0000 1.0000
23.3100 1516.0000 1.0000
23.3200 1482.0000 1.0000
23.3300 1552.0000 1.0000
23.3400 1632.0000 1.0000
23.3500 1561.0000 1.0000
23.3600 1529.0000 1.0000
23.3700 1574.0000 1.0000
23.3800 1577.0000 1.0000
23.3900 1609.0000 1.0000
23.4000 1684.0000 1.0000
23.4100 1617.0000 1.0000
23.4200 1538.0000 1.0000
23.4300 1538.0000 1.0000
23.4400 1645.0000 1.0000
23.4500 1589.0000 1.0000
23.4600 1538.0000 1.0000
23.4700 1570.0000 1.0000
23.4800 1598.0000 1.0000
23.4900 1591.0000 1.0000
23.5000 1598.0000 1.0000
23.5100 1605.0000 1.0000
23.5200 1597.0000 1.0000
23.5300 1647.0000 1.0000
23.5400 1591.0000 1.0000
23.5500 1588.0000 1.0000
23.5600 1550.0000 1.0000
23.5700 1569.0000 1.0000
23.5800 1520.0000 1.0000
23.5900 1589.0000 1.0000
23.6000 1528.0000 1.0000
23.6100 1619.0000 1.0000
23.6200 1623.0000 1.0000
23.6300 1638.0000 1.0000
23.6400 1556.0000 1.0000
23.6500 1576.0000 1.0000
23.6600 1566.0000 1.0000
23.6700 1544.0000 1.0000
23.6800 1602.0000 1.0000
23.6900 1640.0000 1.0000
23.7000 1561.0000 1.0000
23.7100 1579.0000 1.0000
23.7200 1491.0000 1.0000
23.7300 1535.0000 1.0000
23.7400 1568.0000 1.0000
23.7500 1542.0000 1.0000
23.7600 1567.0000 1.0000
23.7700 1586.0000 1.0000
23.7800 1557.0000 1.0000
23.7900 1535.0000 1.0000
23.8000 1627.0000 1.0000
23.8100 1516.0000 1.0000
23.8200 1579.0000 1.0000
23.8300 1493.0000 1.0000
23.8400 1554.0000 1.0000
23.8500 1586.0000 1.0000
23.8600 1582.0000 1.0000
23.8700 1534.0000 1.0000
23.8800 1613.0000 1.0000
23.8900 1634.0000 1.0000
23.9000 1524.0000 1.0000
23.9100 1632.0000 1.0000
23.9200 1650.0000 1.0000
23.9300 1583.0000 1.0000
23.9400 1530.0000 1.0000
23.9500 1576.0000 1.0000
23.9600 1509.0000 1.0000
23.9700 1603.0000 1.0000
23.9800 1584.0000 1.0000
23.9900 1588.0000 1.0000
24.0000 1570.0000 1.0000
24.0100 1593.0000 1.0000
24.0200 1575.0000 1.0000
24.0300 1584.0000 1.0000
24.0400 1593.0000 1.0000
24.0500 1621.0000 1.0000
24.0600 1606.0000 1.0000
24.0700 1600.0000 1.0000
24.0800 1580.0000 1.0000
24.0900 1483.0000 1.0000
24.1000 1565.0000 1.0000
24.1100 1597.0000 1.0000
24.1200 1583.0000 1.0000
24.1300 1589.0000 1.0000
24.1400 1602.0000 1.0000
24.1500 1575.0000 1.0000
24.1600 1560.0000 1.0000
24.1700 1618.0000 1.0000
24.1800 1555.0000 1.0000
24.1900 1575.0000 1.0000
24.2000 1607.0000 1.0000
24.2100 1576.0000 1.0000
24.2200 1647.0000 1.0000
24.2300 1599.0000 1.0000
24.2400 1574.0000 1.0000
24.2500 1603.0000 1.0000
24.2600 1569.0000 1.0000
24.2700 1549.0000 1.0000
24.2800 1566.0000 1.0000
24.2900 1640.0000 1.0000
24.3000 1558.0000 1.0000
24.3100 1583.0000 1.0000
24.3200 1585.0000 1.0000
24.3300 1552.0000 1.0000
24.3400 1640.0000 1.0000
24.3500 1587.0000 1.0000
24.3600 1587.0000 1.0000
24.3700 1575.0000 1.0000
24.3800 1558.0000 1.0000
24.3900 1527.0000 1.0000
24.4000 1587.0000 1.0000
24.4100 1549.0000 1.0000
24.4200 1541.0000 1.0000
24.4300 1628.0000 1.0000
24.4400 1616.0000 1.0000
24.4500 1661.0000 1.0000
24.4600 1527.0000 1.0000
24.4700 1583.0000 1.0000
24.4800 1628.0000 1.0000
24.4900 1615.0000 1.0000
24.5000 1596.0000 1.0000
24.5100 1608.0000 1.0000
24.5200 1632.0000 1.0000
24.5300 1609.0000 1.0000
24.5400 1630.0000 1.0000
24.5500 1555.0000 1.0000
24.5600 1588.0000 1.0000
24.5700 1624.0000 1.0000
24.5800 1559.0000 1.0000
24.5900 1581.0000 1.0000
24.6000 1531.0000 1.0000
24.6100 1539.0000 1.0000
24.6200 1674.0000 1.0000
24.6300 1588.0000 1.0000
24.6400 1618.0000 1.0000
24.6500 1596.0000 1.0000
24.6600 1685.0000 1.0000
24.6700 1642.0000 1.0000
24.6800 1643.0000 1.0000
24.6900 1626.0000 1.0000
24.7000 1566.0000 1.0000
24.7100 1595.0000 1.0000
24.7200 1669.0000 1.0000
24.7300 1667.0000 1.0000
24.7400 1628.0000 1.0000
24.7500 1579.0000 1.0000
24.7600 1630.0000 1.0000
24.7700 1610.0000 1.0000
24.7800 1660.0000 1.0000
24.7900 1664.0000 1.0000
24.8000 1629.0000 1.0000
24.8100 1638.0000 1.0000
24.8200 1649.0000 1.0000
24.8300 1648.0000 1.0000
24.8400 1652.0000 1.0000
24.8500 1595.0000 1.0000
24.8600 1653.0000 1.0000
24.8700 1653.0000 1.0000
24.8800 1733.0000 1.0000
24.8900 1683.0000 1.0000
24.9000 1642.0000 1.0000
24.9100 1616.0000 1.0000
24.9200 1668.0000 1.0000
24.9300 1658.0000 1.0000
24.9400 1663.0000 1.0000
24.9500 1727.0000 1.0000
24.9600 1651.0000 1.0000
24.9700 1616.0000 1.0000
24.9800 1661.0000 1.0000
24.9900 1699.0000 1.0000
25.0000 1647.0000 1.0000
25.0100 1669.0000 1.0000
25.0200 1675.0000 1.0000
25.0300 1659.0000 1.0000
25.0400 1653.0000 1.0000
25.0500 1625.0000 1.0000
25.0600 1618.0000 1.0000
25.0700 1669.0000 1.0000
25.0800 1647.0000 1.0000
25.0900 1693.0000 1.0000
25.1000 1666.0000 1.0000
25.1100 1675.0000 1.0000
25.1200 1670.0000 1.0000
25.1300 1657.0000 1.0000
25.1400 1655.0000 1.0000
25.1500 1657.0000 1.0000
25.1600 1666.0000 1.0000
25.1700 1646.0000 1.0000
25.1800 1661.0000 1.0000
25.1900 1697.0000 1.0000
25.2000 1626.0000 1.0000
25.2100 1669.0000 1.0000
25.2200 1578.0000 1.0000
25.2300 1643.0000 1.0000
25.2400 1611.0000 1.0000
25.2500 1650.0000 1.0000
25.2600 1684.0000 1.0000
25.2700 1666.0000 1.0000
25.2800 1641.0000 1.0000
25.2900 1710.0000 1.0000
25.3000 1716.0000 1.0000
25.3100 1624.0000 1.0000
25.3200 1632.0000 1.0000
25.3300 1607.0000 1.0000
25.3400 1630.0000 1.0000
25.3500 1686.0000 1.0000
25.3600 1590.0000 1.0000
25.3700 1611.0000 1.0000
25.3800 1643.0000 1.0000
25.3900 1679.0000 1.0000
25.4000 1602.0000 1.0000
25.4100 1618.0000 1.0000
25.4200 1656.0000 1.0000
25.4300 1689.0000 1.0000
25.4400 1676.0000 1.0000
25.4500 1646.0000 1.0000
25.4600 1664.0000 1.0000
25.4700 1575.0000 1.0000
25.4800 1604.0000 1.0000
25.4900 1646.0000 1.0000
25.5000 1612.0000 1.0000
25.5100 1620.0000 1.0000
25.5200 1588.0000 1.0000
25.5300 1557.0000 1.0000
25.5400 1547.0000 1.0000
25.5500 1568.0000 1.0000
25.5600 1635.0000 1.0000
25.5700 1627.0000 1.0000
25.5800 1643.0000 1.0000
25.5900 1645.0000 1.0000
25.6000 1636.0000 1.0000
25.6100 1678.0000 1.0000
25.6200 1591.0000 1.0000
25.6300 1615.0000 1.0000
25.6400 1589.0000 1.0000
25.6500 1691.0000 1.0000
25.6600 1619.0000 1.0000
25.6700 1633.0000 1.0000
25.6800 1631.0000 1.0000
25.6900 1684.0000 1.0000
25.7000 1600.0000 1.0000
25.7100 1566.0000 1.0000
25.7200 1640.0000 1.0000
25.7300 1619.0000 1.0000
25.7400 1642.0000 1.0000
25.7500 1718.0000 1.0000
25.7600 1673.0000 1.0000
25.7700 1641.0000 1.0000
25.7800 1630.0000 1.0000
25.7900 1604.0000 1.0000
25.8000 1581.0000 1.0000
25.8100 1671.0000 1.0000
25.8200 1656.0000 1.0000
25.8300 1664.0000 1.0000
25.8400 1654.0000 1.0000
25.8500 1609.0000 1.0000
25.8600 1581.0000 1.0000
25.8700 1635.0000 1.0000
25.8800 1616.0000 1.0000
25.8900 1617.0000 1.0000
25.9000 1678.0000 1.0000
25.9100 1612.0000 1.0000
25.9200 1642.0000 1.0000
25.9300 1561.0000 1.0000
25.9400 1620.0000 1.0000
25.9500 1601.0000 1.0000
25.9600 1685.0000 1.0000
25.9700 1686.0000 1.0000
25.9800 1633.0000 1.0000
25.9900 1631.0000 1.0000
26.0000 1626.0000 1.0000
26.0100 1607.0000 1.0000
26.0200 1624.0000 1.0000
26.0300 1665.0000 1.0000
26.0400 1660.0000 1.0000
26.0500 1639.0000 1.0000
26.0600 1605.0000 1.0000
26.0700 1696.0000 1.0000
26.0800 1614.0000 1.0000
26.0900 1654.0000 1.0000
26.1000 1611.0000 1.0000
26.1100 1670.0000 1.0000
26.1200 1593.0000 1.0000
26.1300 1588.0000 1.0000
26.1400 1621.0000 1.0000
26.1500 1661.0000 1.0000
26.1600 1610.0000 1.0000
26.1700 1580.0000 1.0000
26.1800 1630.0000 1.0000
26.1900 1694.0000 1.0000
26.2000 1735.0000 1.0000
26.2100 1561.0000 1.0000
26.2200 1642.0000 1.0000
26.2300 1738.0000 1.0000
26.2400 1709.0000 1.0000
26.2500 1601.0000 1.0000
26.2600 1623.0000 1.0000
26.2700 1730.0000 1.0000
26.2800 1633.0000 1.0000
26.2900 1694.0000 1.0000
26.3000 1639.0000 1.0000
26.3100 1609.0000 1.0000
26.3200 1641.0000 1.0000
26.3300 1670.0000 1.0000
26.3400 1671.0000 1.0000
26.3500 1676.0000 1.0000
26.3600 1645.0000 1.0000
26.3700 1629.0000 1.0000
26.3800 1629.0000 1.0000
26.3900 1708.0000 1.0000
26.4000 1633.0000 1.0000
26.4100 1694.0000 1.0000
26.4200 1647.0000 1.0000
26.4300 1718.0000 1.0000
26.4400 1709.0000 1.0000
26.4500 1722.0000 1.0000
26.4600 1743.0000 1.0000
26.4700 1719.0000 1.0000
26.4800 1626.0000 1.0000
26.4900 1657.0000 1.0000
26.5000 1720.0000 1.0000
26.5100 1681.0000 1.0000
26.5200 1702.0000 1.0000
26.5300 1687.0000 1.0000
26.5400 1754.0000 1.0000
26.5500 1667.0000 1.0000
26.5600 1718.0000 1.0000
26.5700 1632.0000 1.0000
26.5800 1715.0000 1.0000
26.5900 1692.0000 1.0000
26.6000 1717.0000 1.0000
26.6100 1731.0000 1.0000
26.6200 1741.0000 1.0000
26.6300 1686.0000 1.0000
26.6400 1695.0000 1.0000
26.6500 1712.0000 1.0000
26.6600 1713.0000 1.0000
26.6700 1761.0000 1.0000
26.6800 1754.0000 1.0000
26.6900 1713.0000 1.0000
26.7000 1815.0000 1.0000
26.7100 1770.0000 1.0000
26.7200 1746.0000 1.0000
26.7300 1690.0000 1.0000
26.7400 1758.0000 1.0000
26.7500 1762.0000 1.0000
26.7600 1784.0000 1.0000
26.7700 1820.0000 1.0000
26.7800 1734.0000 1.0000
26.7900 1765.0000 1.0000
26.8000 1835.0000 1.0000
26.8100 1761.0000 1.0000
26.8200 1800.0000 1.0000
26.8300 1834.0000 1.0000
26.8400 1793.0000 1.0000
26.8500 1844.0000 1.0000
26.8600 1882.0000 1.0000
26.8700 1857.0000 1.0000
26.8800 1897.0000 1.0000
26.8900 1902.0000 1.0000
26.9000 1854.0000 1.0000
26.9100 1901.0000 1.0000
26.9200 1856.0000 1.0000
26.9300 1894.0000 1.0000
26.9400 1960.0000 1.0000
26.9500 1991.0000 1.0000
26.9600 2055.0000 1.0000
26.9700 2052.0000 1.0000
26.9800 2055.0000 1.0000
26.9900 2143.0000 1.0000
27.0000 2114.0000 1.0000
27.0100 2062.0000 1.0000
27.0200 2220.0000 1.0000
27.0300 2180.0000 1.0000
27.0400 2289.0000 1.0000
27.0500 2272.0000 1.0000
27.0600 2357.0000 1.0000
27.0700 2429.0000 1.0000
27.0800 2466.0000 1.0000
27.0900 2517.0000 1.0000
27.1000 2589.0000 1.0000
27.1100 2689.0000 1.0000
27.1200 2758.0000 1.0000
27.1300 2822.0000 1.0000
27.1400 2868.0000 1.0000
27.1500 3037.0000 1.0000
27.1600 3216.0000 1.0000
27.1700 3361.0000 1.0000
27.1800 3414.0000 1.0000
27.1900 3679.0000 1.0000
27.2000 3857.0000 1.0000
27.2100 3976.0000 1.0000
27.2200 4160.0000 1.0000
27.2300 4298.0000 1.0000
27.2400 4607.0000 1.0000
27.2500 4785.0000 1.0000
27.2600 5130.0000 1.0000
27.2700 5220.0000 1.0000
27.2800 5421.0000 1.0000
27.2900 5739.0000 1.0000
27.3000 5930.0000 1.0000
27.3100 5988.0000 1.0000
27.3200 5988.0000 1.0000
27.3300 6178.0000 1.0000
27.3400 6153.0000 1.0000
27.3500 6109.0000 1.0000
27.3600 5963.0000 1.0000
27.3700 5791.0000 1.0000
27.3800 5562.0000 1.0000
27.3900 5440.0000 1.0000
27.4000 5135.0000 1.0000
27.4100 4942.0000 1.0000
27.4200 4624.0000 1.0000
27.4300 4487.0000 1.0000
27.4400 4318.0000 1.0000
27.4500 4107.0000 1.0000
27.4600 3921.0000 1.0000
27.4700 3686.0000 1.0000
27.4800 3508.0000 1.0000
27.4900 3390.0000 1.0000
27.5000 3207.0000 1.0000
27.5100 3106.0000 1.0000
27.5200 3045.0000 1.0000
27.5300 2897.0000 1.0000
27.5400 2824.0000 1.0000
27.5500 2702.0000 1.0000
27.5600 2684.0000 1.0000
27.5700 2524.0000 1.0000
27.5800 2421.0000 1.0000
27.5900 2423.0000 1.0000
27.6000 2406.0000 1.0000
27.6100 2385.0000 1.0000
27.6200 2271.0000 1.0000
27.6300 2214.0000 1.0000
27.6400 2202.0000 1.0000
27.6500 2238.0000 1.0000
27.6600 2069.0000 1.0000
27.6700 2050.0000 1.0000
27.6800 2039.0000 1.0000
27.6900 2021.0000 1.0000
27.7000 2091.0000 1.0000
27.7100 2106.0000 1.0000
27.7200 2064.0000 1.0000
27.7300 1932.0000 1.0000
27.7400 1960.0000 1.0000
27.7500 1935.0000 1.0000
27.7600 1898.0000 1.0000
27.7700 1852.0000 1.0000
27.7800 1874.0000 1.0000
27.7900 1819.0000 1.0000
27.8000 1885.0000 1.0000
27.8100 1842.0000 1.0000
27.8200 1860.0000 1.0000
27.8300 1771.0000 1.0000
27.8400 1761.0000 1.0000
27.8500 1783.0000 1.0000
27.8600 1817.0000 1.0000
27.8700 1754.0000 1.0000
27.8800 1795.0000 1.0000
27.8900 1782.0000 1.0000
27.9000 1759.0000 1.0000
27.9100 1737.0000 1.0000
27.9200 1815.0000 1.0000
27.9300 1846.0000 1.0000
27.9400 1756.0000 1.0000
27.9500 1718.0000 1.0000
27.9600 1705.0000 1.0000
27.9700 1722.0000 1.0000
27.9800 1766.0000 1.0000
27.9900 1715.0000 1.0000
28.0000 1678.0000 1.0000
28.0100 1716.0000 1.0000
28.0200 1651.0000 1.0000
28.0300 1731.0000 1.0000
28.0400 1768.0000 1.0000
28.0500 1654.0000 1.0000
28.0600 1683.0000 1.0000
28.0700 1635.0000 1.0000
28.0800 1691.0000 1.0000
28.0900 1627.0000 1.0000
28.1000 1725.0000 1.0000
28.1100 1734.0000 1.0000
28.1200 1629.0000 1.0000
28.1300 1689.0000 1.0000
28.1400 1690.0000 1.0000
28.1500 1692.0000 1.0000
28.1600 1699.0000 1.0000
28.1700 1736.0000 1.0000
28.1800 1685.0000 1.0000
28.1900 1623.0000 1.0000
28.2000 1600.0000 1.0000
28.2100 1622.0000 1.0000
28.2200 1652.0000 1.0000
28.2300 1601.0000 1.0000
28.2400 1638.0000 1.0000
28.2500 1665.0000 1.0000
28.2600 1674.0000 1.0000
28.2700 1652.0000 1.0000
28.2800 1644.0000 1.0000
28.2900 1605.0000 1.0000
28.3000 1627.0000 1.0000
28.3100 1642.0000 1.0000
28.3200 1626.0000 1.0000
28.3300 1606.0000 1.0000
28.3400 1568.0000 1.0000
28.3500 1635.0000 1.0000
28.3600 1597.0000 1.0000
28.3700 1634.0000 1.0000
28.3800 1620.0000 1.0000
28.3900 1600.0000 1.0000
28.4000 1550.0000 1.0000
28.4100 1560.0000 1.0000
28.4200 1659.0000 1.0000
28.4300 1639.0000 1.0000
28.4400 1597.0000 1.0000
28.4500 1569.0000 1.0000
28.4600 1575.0000 1.0000
28.4700 1574.0000 1.0000
28.4800 1577.0000 1.0000
28.4900 1593.0000 1.0000
28.5000 1609.0000 1.0000
28.5100 1558.0000 1.0000
28.5200 1559.0000 1.0000
28.5300 1570.0000 1.0000
28.5400 1563.0000 1.0000
28.5500 1618.0000 1.0000
28.5600 1621.0000 1.0000
28.5700 1623.0000 1.0000
28.5800 1544.0000 1.0000
28.5900 1520.0000 1.0000
28.6000 1593.0000 1.0000
28.6100 1546.0000 1.0000
28.6200 1524.0000 1.0000
28.6300 1529.0000 1.0000
28.6400 1551.0000 1.0000
28.6500 1562.0000 1.0000
28.6600 1554.0000 1.0000
28.6700 1620.0000 1.0000
28.6800 1609.0000 1.0000
28.6900 1611.0000 1.0000
28.7000 1530.0000 1.0000
28.7100 1515.0000 1.0000
28.7200 1554.0000 1.0000
28.7300 1506.0000 1.0000
28.7400 1582.0000 1.0000
28.7500 1549.0000 1.0000
28.7600 1608.0000 1.0000
28.7700 1553.0000 1.0000
28.7800 1558.0000 1.0000
28.7900 1533.0000 1.0000
28.8000 1553.0000 1.0000
28.8100 1575.0000 1.0000
28.8200 1571.0000 1.0000
28.8300 1591.0000 1.0000
28.8400 1536.0000 1.0000
28.8500 1517.0000 1.0000
28.8600 1542.0000 1.0000
28.8700 1540.0000 1.0000
28.8800 1546.0000 1.0000
28.8900 1573.0000 1.0000
28.9000 1568.0000 1.0000
28.9100 1516.0000 1.0000
28.9200 1564.0000 1.0000
28.9300 1599.0000 1.0000
28.9400 1596.0000 1.0000
28.9500 1528.0000 1.0000
28.9600 1580.0000 1.0000
28.9700 1565.0000 1.0000
28.9800 1556.0000 1.0000
28.9900 1514.0000 1.0000
29.0000 1485.0000 1.0000
29.0100 1561.0000 1.0000
29.0200 1578.0000 1.0000
29.0300 1580.0000 1.0000
29.0400 1522.0000 1.0000
29.0500 1585.0000 1.0000
29.0600 1570.0000 1.0000
29.0700 1558.0000 1.0000
29.0800 1535.0000 1.0000
29.0900 1506.0000 1.0000
29.1000 1542.0000 1.0000
29.1100 1539.0000 1.0000
29.1200 1562.0000 1.0000
29.1300 1546.0000 1.0000
29.1400 1494.0000 1.0000
29.1500 1518.0000 1.0000
29.1600 1517.0000 1.0000
29.1700 1543.0000 1.0000
29.1800 1575.0000 1.0000
29.1900 1462.0000 1.0000
29.2000 1558.0000 1.0000
29.2100 1544.0000 1.0000
29.2200 1585.0000 1.0000
29.2300 1536.0000 1.0000
29.2400 1469.0000 1.0000
29.2500 1537.0000 1.0000
29.2600 1555.0000 1.0000
29.2700 1576.0000 1.0000
29.2800 1486.0000 1.0000
29.2900 1516.0000 1.0000
29.3000 1513.0000 1.0000
29.3100 1581.0000 1.0000
29.3200 1515.0000 1.0000
29.3300 1490.0000 1.0000
29.3400 1556.0000 1.0000
29.3500 1506.0000 1.0000
29.3600 1507.0000 1.0000
29.3700 1536.0000 1.0000
29.3800 1528.0000 1.0000
29.3900 1499.0000 1.0000
29.4000 1510.0000 1.0000
29.4100 1527.0000 1.0000
29.4200 1517.0000 1.0000
29.4300 1483.0000 1.0000
29.4400 1564.0000 1.0000
29.4500 1499.0000 1.0000
29.4600 1497.0000 1.0000
29.4700 1505.0000 1.0000
29.4800 1483.0000 1.0000
29.4900 1565.0000 1.0000
29.5000 1561.0000 1.0000
29.5100 1506.0000 1.0000
29.5200 1514.0000 1.0000
29.5300 1524.0000 1.0000
29.5400 1453.0000 1.0000
29.5500 1511.0000 1.0000
29.5600 1551.0000 1.0000
29.5700 1519.0000 1.0000
29.5800 1587.0000 1.0000
29.5900 1573.0000 1.0000
29.6000 1524.0000 1.0000
29.6100 1483.0000 1.0000
29.6200 1467.0000 1.0000
29.6300 1480.0000 1.0000
29.6400 1496.0000 1.0000
29.6500 1493.0000 1.0000
29.6600 1418.0000 1.0000
29.6700 1446.0000 1.0000
29.6800 1475.0000 1.0000
29.6900 1465.0000 1.0000
29.7000 1509.0000 1.0000
29.7100 1561.0000 1.0000
29.7200 1573.0000 1.0000
29.7300 1486.0000 1.0000
29.7400 1488.0000 1.0000
29.7500 1490.0000 1.0000
29.7600 1516.0000 1.0000
29.7700 1485.0000 1.0000
29.7800 1554.0000 1.0000
29.7900 1529.0000 1.0000
29.8000 1462.0000 1.0000
29.8100 1459.0000 1.0000
29.8200 1475.0000 1.0000
29.8300 1545.0000 1.0000
29.8400 1498.0000 1.0000
29.8500 1483.0000 1.0000
29.8600 1460.0000 1.0000
29.8700 1474.0000 1.0000
29.8800 1528.0000 1.0000
29.8900 1481.0000 1.0000
29.9000 1435.0000 1.0000
29.9100 1453.0000 1.0000
29.9200 1503.0000 1.0000
29.9300 1561.0000 1.0000
29.9400 1502.0000 1.0000
29.9500 1481.0000 1.0000
29.9600 1466.0000 1.0000
29.9700 1493.0000 1.0000
29.9800 1476.0000 1.0000
29.9900 1458.0000 1.0000
30.0000 1479.0000 1.0000
30.0100 1407.0000 1.0000
30.0200 1430.0000 1.0000
30.0300 1471.0000 1.0000
30.0400 1474.0000 1.0000
30.0500 1500.0000 1.0000
30.0600 1433.0000 1.0000
30.0700 1444.0000 1.0000
30.0800 1432.0000 1.0000
30.0900 1501.0000 1.0000
30.1000 1444.0000 1.0000
30.1100 1529.0000 1.0000
30.1200 1477.0000 1.0000
30.1300 1434.0000 1.0000
30.1400 1447.0000 1.0000
30.1500 1473.0000 1.0000
30.1600 1475.0000 1.0000
30.1700 1504.0000 1.0000
30.1800 1424.0000 1.0000
30.1900 1457.0000 1.0000
30.2000 1442.0000 1.0000
30.2100 1451.0000 1.0000
30.2200 1420.0000 1.0000
30.2300 1412.0000 1.0000
30.2400 1430.0000 1.0000
30.2500 1503.0000 1.0000
30.2600 1405.0000 1.0000
30.2700 1443.0000 1.0000
30.2800 1466.0000 1.0000
30.2900 1463.0000 1.0000
30.3000 1478.0000 1.0000
30.3100 1441.0000 1.0000
30.3200 1486.0000 1.0000
30.3300 1459.0000 1.0000
30.3400 1452.0000 1.0000
30.3500 1496.0000 1.0000
30.3600 1420.0000 1.0000
30.3700 1424.0000 1.0000
30.3800 1452.0000 1.0000
30.3900 1479.0000 1.0000
30.4000 1495.0000 1.0000
30.4100 1458.0000 1.0000
30.4200 1429.0000 1.0000
30.4300 1410.0000 1.0000
30.4400 1508.0000 1.0000
30.4500 1458.0000 1.0000
30.4600 1465.0000 1.0000
30.4700 1511.0000 1.0000
30.4800 1530.0000 1.0000
30.4900 1478.0000 1.0000
30.5000 1432.0000 1.0000
30.5100 1384.0000 1.0000
30.5200 1476.0000 1.0000
30.5300 1465.0000 1.0000
30.5400 1488.0000 1.0000
30.5500 1444.0000 1.0000
30.5600 1401.0000 1.0000
30.5700 1465.0000 1.0000
30.5800 1488.0000 1.0000
30.5900 1445.0000 1.0000
30.6000 1412.0000 1.0000
30.6100 1451.0000 1.0000
30.6200 1435.0000 1.0000
30.6300 1417.0000 1.0000
30.6400 1473.0000 1.0000
30.6500 1478.0000 1.0000
30.6600 1423.0000 1.0000
30.6700 1460.0000 1.0000
30.6800 1441.0000 1.0000
30.6900 1456.0000 1.0000
30.7000 1444.0000 1.0000
30.7100 1436.0000 1.0000
30.7200 1418.0000 1.0000
30.7300 1395.0000 1.0000
30.7400 1489.0000 1.0000
30.7500 1438.0000 1.0000
30.7600 1412.0000 1.0000
30.7700 1429.0000 1.0000
30.7800 1419.0000 1.0000
30.7900 1431.0000 1.0000
30.8000 1390.0000 1.0000
30.8100 1445.0000 1.0000
30.8200 1386.0000 1.0000
30.8300 1459.0000 1.0000
30.8400 1410.0000 1.0000
30.8500 1487.0000 1.0000
30.8600 1422.0000 1.0000
30.8700 1468.0000 1.0000
30.8800 1437.0000 1.0000
30.8900 1414.0000 1.0000
30.9000 1431.0000 1.0000
30.9100 1464.0000 1.0000
30.9200 1447.0000 1.0000
30.9300 1485.0000 1.0000
30.9400 1407.0000 1.0000
30.9500 1387.0000 1.0000
30.9600 1484.0000 1.0000
30.9700 1388.0000 1.0000
30.9800 1424.0000 1.0000
30.9900 1424.0000 1.0000
31.0000 1411.0000 1.0000
31.0100 1418.0000 1.0000
31.0200 1472.0000 1.0000
31.0300 1447.0000 1.0000
31.0400 1418.0000 1.0000
31.0500 1414.0000 1.0000
31.0600 1468.0000 1.0000
31.0700 1435.0000 1.0000
31.0800 1380.0000 1.0000
31.0900 1448.0000 1.0000
31.1000 1416.0000 1.0000
31.1100 1370.0000 1.0000
31.1200 1400.0000 1.0000
31.1300 1458.0000 1.0000
31.1400 1490.0000 1.0000
31.1500 1467.0000 1.0000
31.1600 1404.0000 1.0000
31.1700 1407.0000 1.0000
31.1800 1394.0000 1.0000
31.1900 1426.0000 1.0000
31.2000 1437.0000 1.0000
31.2100 1394.0000 1.0000
31.2200 1474.0000 1.0000
31.2300 1465.0000 1.0000
31.2400 1391.0000 1.0000
31.2500 1430.0000 1.0000
31.2600 1452.0000 1.0000
31.2700 1373.0000 1.0000
31.2800 1427.0000 1.0000
31.2900 1433.0000 1.0000
31.3000 1456.0000 1.0000
31.3100 1454.0000 1.0000
31.3200 1468.0000 1.0000
31.3300 1385.0000 1.0000
31.3400 1400.0000 1.0000
31.3500 1372.0000 1.0000
31.3600 1481.0000 1.0000
31.3700 1412.0000 1.0000
31.3800 1355.0000 1.0000
31.3900 1416.0000 1.0000
31.4000 1415.0000 1.0000
31.4100 1438.0000 1.0000
31.4200 1448.0000 1.0000
31.4300 1404.0000 1.0000
31.4400 1449.0000 1.0000
31.4500 1406.0000 1.0000
31.4600 1395.0000 1.0000
31.4700 1368.0000 1.0000
31.4800 1397.0000 1.0000
31.4900 1425.0000 1.0000
31.5000 1387.0000 1.0000
31.5100 1361.0000 1.0000
31.5200 1397.0000 1.0000
31.5300 1355.0000 1.0000
31.5400 1412.0000 1.0000
31.5500 1363.0000 1.0000
31.5600 1402.0000 1.0000
31.5700 1393.0000 1.0000
31.5800 1366.0000 1.0000
31.5900 1374.0000 1.0000
31.6000 1376.0000 1.0000
31.6100 1341.0000 1.0000
31.6200 1382.0000 1.0000
31.6300 1402.0000 1.0000
31.6400 1407.0000 1.0000
31.6500 1405.0000 1.0000
31.6600 1417.0000 1.0000
31.6700 1373.0000 1.0000
31.6800 1379.0000 1.0000
31.6900 1417.0000 1.0000
31.7000 1412.0000 1.0000
31.7100 1401.0000 1.0000
31.7200 1403.0000 1.0000
31.7300 1375.0000 1.0000
31.7400 1375.0000 1.0000
31.7500 1380.0000 1.0000
31.7600 1417.0000 1.0000
31.7700 1410.0000 1.0000
31.7800 1398.0000 1.0000
31.7900 1361.0000 1.0000
31.8000 1363.0000 1.0000
31.8100 1415.0000 1.0000
31.8200 1347.0000 1.0000
31.8300 1450.0000 1.0000
31.8400 1375.0000 1.0000
31.8500 1341.0000 1.0000
31.8600 1346.0000 1.0000
31.8700 1291.0000 1.0000
31.8800 1404.0000 1.0000
31.8900 1417.0000 1.0000
31.9000 1416.0000 1.0000
31.9100 1354.0000 1.0000
31.9200 1382.0000 1.0000
31.9300 1454.0000 1.0000
31.9400 1382.0000 1.0000
31.9500 1371.0000 1.0000
31.9600 1388.0000 1.0000
31.9700 1437.0000 1.0000
31.9800 1382.0000 1.0000
31.9900 1427.0000 1.0000
32.0000 1433.0000 1.0000
32.0100 1430.0000 1.0000
32.0200 1416.0000 1.0000
32.0300 1472.0000 1.0000
32.0400 1442.0000 1.0000
32.0500 1441.0000 1.0000
32.0600 1420.0000 1.0000
32.0700 1396.0000 1.0000
32.0800 1433.0000 1.0000
32.0900 1416.0000 1.0000
32.1000 1436.0000 1.0000
32.1100 1388.0000 1.0000
32.1200 1399.0000 1.0000
32.1300 1362.0000 1.0000
32.1400 1375.0000 1.0000
32.1500 1400.0000 1.0000
32.1600 1366.0000 1.0000
32.1700 1366.0000 1.0000
32.1800 1376.0000 1.0000
32.1900 1400.0000 1.0000
32.2000 1393.0000 1.0000
32.2100 1364.0000 1.0000
32.2200 1370.0000 1.0000
32.2300 1355.0000 1.0000
32.2400 1342.0000 1.0000
32.2500 1444.0000 1.0000
32.2600 1379.0000 1.0000
32.2700 1418.0000 1.0000
32.2800 1421.0000 1.0000
32.2900 1402.0000 1.0000
32.3000 1421.0000 1.0000
32.3100 1365.0000 1.0000
32.3200 1369.0000 1.0000
32.3300 1287.0000 1.0000
32.3400 1372.0000 1.0000
32.3500 1395.0000 1.0000
32.3600 1389.0000 1.0000
32.3700 1344.0000 1.0000
32.3800 1300.0000 1.0000
32.3900 1328.0000 1.0000
32.4000 1389.0000 1.0000
32.4100 1374.0000 1.0000
32.4200 1307.0000 1.0000
32.4300 1337.0000 1.0000
32.4400 1395.0000 1.0000
32.4500 1340.0000 1.0000
32.4600 1347.0000 1.0000
32.4700 1344.0000 1.0000
32.4800 1341.0000 1.0000
32.4900 1363.0000 1.0000
32.5000 1326.0000 1.0000
32.5100 1315.0000 1.0000
32.5200 1342.0000 1.0000
32.5300 1336.0000 1.0000
32.5400 1284.0000 1.0000
32.5500 1319.0000 1.0000
32.5600 1352.0000 1.0000
32.5700 1372.0000 1.0000
32.5800 1306.0000 1.0000
32.5900 1341.0000 1.0000
32.6000 1309.0000 1.0000
32.6100 1335.0000 1.0000
32.6200 1325.0000 1.0000
32.6300 1341.0000 1.0000
32.6400 1338.0000 1.0000
32.6500 1301.0000 1.0000
32.6600 1295.0000 1.0000
32.6700 1297.0000 1.0000
32.6800 1362.0000 1.0000
32.6900 1328.0000 1.0000
32.7000 1338.0000 1.0000
32.7100 1388.0000 1.0000
32.7200 1405.0000 1.0000
32.7300 1372.0000 1.0000
32.7400 1369.0000 1.0000
32.7500 1340.0000 1.0000
32.7600 1285.0000 1.0000
32.7700 1303.0000 1.0000
32.7800 1330.0000 1.0000
32.7900 1310.0000 1.0000
32.8000 1279.0000 1.0000
32.8100 1339.0000 1.0000
32.8200 1315.0000 1.0000
32.8300 1285.0000 1.0000
32.8400 1337.0000 1.0000
32.8500 1368.0000 1.0000
32.8600 1367.0000 1.0000
32.8700 1359.0000 1.0000
32.8800 1350.0000 1.0000
32.8900 1322.0000 1.0000
32.9000 1335.0000 1.0000
32.9100 1390.0000 1.0000
32.9200 1332.0000 1.0000
32.9300 1376.0000 1.0000
32.9400 1336.0000 1.0000
32.9500 1367.0000 1.0000
32.9600 1294.0000 1.0000
32.9700 1320.0000 1.0000
32.9800 1294.0000 1.0000
32.9900 1311.0000 1.0000
33.0000 1327.0000 1.0000
33.0100 1280.0000 1.0000
33.0200 1244.0000 1.0000
33.0300 1326.0000 1.0000
33.0400 1333.0000 1.0000
33.0500 1254.0000 1.0000
33.0600 1364.0000 1.0000
33.0700 1277.0000 1.0000
33.0800 1288.0000 1.0000
33.0900 1298.0000 1.0000
33.1000 1354.0000 1.0000
33.1100 1312.0000 1.0000
33.1200 1289.0000 1.0000
33.1300 1253.0000 1.0000
33.1400 1320.0000 1.0000
33.1500 1357.0000 1.0000
33.1600 1397.0000 1.0000
33.1700 1283.0000 1.0000
33.1800 1318.0000 1.0000
33.1900 1305.0000 1.0000
33.2000 1308.0000 1.0000
33.2100 1291.0000 1.0000
33.2200 1307.0000 1.0000
33.2300 1295.0000 1.0000
33.2400 1298.0000 1.0000
33.2500 1289.0000 1.0000
33.2600 1284.0000 1.0000
33.2700 1314.0000 1.0000
33.2800 1287.0000 1.0000
33.2900 1294.0000 1.0000
33.3000 1297.0000 1.0000
33.3100 1330.0000 1.0000
33.3200 1382.0000 1.0000
33.3300 1327.0000 1.0000
33.3400 1297.0000 1.0000
33.3500 1312.0000 1.0000
33.3600 1246.0000 1.0000
33.3700 1258.0000 1.0000
33.3800 1281.0000 1.0000
33.3900 1311.0000 1.0000
33.4000 1306.0000 1.0000
33.4100 1273.0000 1.0000
33.4200 1296.0000 1.0000
33.4300 1312.0000 1.0000
33.4400 1300.0000 1.0000
33.4500 1304.0000 1.0000
33.4600 1271.0000 1.0000
33.4700 1305.0000 1.0000
33.4800 1298.0000 1.0000
33.4900 1322.0000 1.0000
33.5000 1365.0000 1.0000
33.5100 1327.0000 1.0000
33.5200 1353.0000 1.0000
33.5300 1267.0000 1.0000
33.5400 1269.0000 1.0000
33.5500 1346.0000 1.0000
33.5600 1321.0000 1.0000
33.5700 1292.0000 1.0000
33.5800 1214.0000 1.0000
33.5900 1280.0000 1.0000
33.6000 1275.0000 1.0000
33.6100 1341.0000 1.0000
33.6200 1331.0000 1.0000
33.6300 1244.0000 1.0000
33.6400 1272.0000 1.0000
33.6500 1345.0000 1.0000
33.6600 1270.0000 1.0000
33.6700 1255.0000 1.0000
33.6800 1349.0000 1.0000
33.6900 1300.0000 1.0000
33.7000 1344.0000 1.0000
33.7100 1347.0000 1.0000
33.7200 1306.0000 1.0000
33.7300 1311.0000 1.0000
33.7400 1339.0000 1.0000
33.7500 1318.0000 1.0000
33.7600 1310.0000 1.0000
33.7700 1351.0000 1.0000
33.7800 1383.0000 1.0000
33.7900 1378.0000 1.0000
33.8000 1339.0000 1.0000
33.8100 1391.0000 1.0000
33.8200 1360.0000 1.0000
33.8300 1293.0000 1.0000
33.8400 1418.0000 1.0000
33.8500 1440.0000 1.0000
33.8600 1434.0000 1.0000
33.8700 1442.0000 1.0000
33.8800 1357.0000 1.0000
33.8900 1434.0000 1.0000
33.9000 1369.0000 1.0000
33.9100 1446.0000 1.0000
33.9200 1469.0000 1.0000
33.9300 1495.0000 1.0000
33.9400 1512.0000 1.0000
33.9500 1461.0000 1.0000
33.9600 1526.0000 1.0000
33.9700 1494.0000 1.0000
33.9800 1522.0000 1.0000
33.9900 1500.0000 1.0000
34.0000 1544.0000 1.0000
34.0100 1492.0000 1.0000
34.0200 1527.0000 1.0000
34.0300 1478.0000 1.0000
34.0400 1430.0000 1.0000
34.0500 1482.0000 1.0000
34.0600 1499.0000 1.0000
34.0700 1466.0000 1.0000
34.0800 1432.0000 1.0000
34.0900 1487.0000 1.0000
34.1000 1476.0000 1.0000
34.1100 1444.0000 1.0000
34.1200 1423.0000 1.0000
34.1300 1445.0000 1.0000
34.1400 1451.0000 1.0000
34.1500 1445.0000 1.0000
34.1600 1493.0000 1.0000
34.1700 1472.0000 1.0000
34.1800 1435.0000 1.0000
34.1900 1531.0000 1.0000
34.2000 1489.0000 1.0000
34.2100 1421.0000 1.0000
34.2200 1522.0000 1.0000
34.2300 1501.0000 1.0000
34.2400 1559.0000 1.0000
34.2500 1565.0000 1.0000
34.2600 1555.0000 1.0000
34.2700 1564.0000 1.0000
34.2800 1626.0000 1.0000
34.2900 1604.0000 1.0000
34.3000 1633.0000 1.0000
34.3100 1704.0000 1.0000
34.3200 1705.0000 1.0000
34.3300 1772.0000 1.0000
34.3400 1819.0000 1.0000
34.3500 1813.0000 1.0000
34.3600 1884.0000 1.0000
34.3700 1967.0000 1.0000
34.3800 1994.0000 1.0000
34.3900 2028.0000 1.0000
34.4000 2048.0000 1.0000
34.4100 2139.0000 1.0000
34.4200 2189.0000 1.0000
34.4300 2302.0000 1.0000
34.4400 2424.0000 1.0000
34.4500 2457.0000 1.0000
34.4600 2559.0000 1.0000
34.4700 2574.0000 1.0000
34.4800 2731.0000 1.0000
34.4900 2872.0000 1.0000
34.5000 2839.0000 1.0000
34.5100 2899.0000 1.0000
34.5200 2974.0000 1.0000
34.5300 2965.0000 1.0000
34.5400 3010.0000 1.0000
34.5500 2915.0000 1.0000
34.5600 2781.0000 1.0000
34.5700 2805.0000 1.0000
34.5800 2733.0000 1.0000
34.5900 2782.0000 1.0000
34.6000 2607.0000 1.0000
34.6100 2569.0000 1.0000
34.6200 2488.0000 1.0000
34.6300 2454.0000 1.0000
34.6400 2282.0000 1.0000
34.6500 2280.0000 1.0000
34.6600 2178.0000 1.0000
34.6700 2007.0000 1.0000
34.6800 1971.0000 1.0000
34.6900 1915.0000 1.0000
34.7000 1940.0000 1.0000
34.7100 1863.0000 1.0000
34.7200 1842.0000 1.0000
34.7300 1809.0000 1.0000
34.7400 1781.0000 1.0000
34.7500 1755.0000 1.0000
34.7600 1704.0000 1.0000
34.7700 1643.0000 1.0000
34.7800 1620.0000 1.0000
34.7900 1705.0000 1.0000
34.8000 1590.0000 1.0000
34.8100 1589.0000 1.0000
34.8200 1550.0000 1.0000
34.8300 1531.0000 1.0000
34.8400 1484.0000 1.0000
34.8500 1462.0000 1.0000
34.8600 1434.0000 1.0000
34.8700 1405.0000 1.0000
34.8800 1422.0000 1.0000
34.8900 1381.0000 1.0000
34.9000 1439.0000 1.0000
34.9100 1421.0000 1.0000
34.9200 1347.0000 1.0000
34.9300 1328.0000 1.0000
34.9400 1345.0000 1.0000
34.9500 1378.0000 1.0000
34.9600 1346.0000 1.0000
34.9700 1312.0000 1.0000
34.9800 1370.0000 1.0000
34.9900 1313.0000 1.0000
35.0000 1296.0000 1.0000
35.0100 1302.0000 1.0000
35.0200 1304.0000 1.0000
35.0300 1227.0000 1.0000
35.0400 1289.0000 1.0000
35.0500 1248.0000 1.0000
35.0600 1253.0000 1.0000
35.0700 1296.0000 1.0000
35.0800 1305.0000 1.0000
35.0900 1320.0000 1.0000
35.1000 1230.0000 1.0000
35.1100 1265.0000 1.0000
35.1200 1294.0000 1.0000
35.1300 1228.0000 1.0000
35.1400 1208.0000 1.0000
35.1500 1205.0000 1.0000
35.1600 1222.0000 1.0000
35.1700 1259.0000 1.0000
35.1800 1229.0000 1.0000
35.1900 1247.0000 1.0000
35.2000 1266.0000 1.0000
35.2100 1270.0000 1.0000
35.2200 1233.0000 1.0000
35.2300 1173.0000 1.0000
35.2400 1213.0000 1.0000
35.2500 1235.0000 1.0000
35.2600 1242.0000 1.0000
35.2700 1229.0000 1.0000
35.2800 1214.0000 1.0000
35.2900 1189.0000 1.0000
35.3000 1212.0000 1.0000
35.3100 1168.0000 1.0000
35.3200 1202.0000 1.0000
35.3300 1230.0000 1.0000
35.3400 1233.0000 1.0000
35.3500 1165.0000 1.0000
35.3600 1246.0000 1.0000
35.3700 1192.0000 1.0000
35.3800 1146.0000 1.0000
35.3900 1240.0000 1.0000
35.4000 1173.0000 1.0000
35.4100 1116.0000 1.0000
35.4200 1189.0000 1.0000
35.4300 1158.0000 1.0000
35.4400 1167.0000 1.0000
35.4500 1160.0000 1.0000
35.4600 1175.0000 1.0000
35.4700 1170.0000 1.0000
35.4800 1122.0000 1.0000
35.4900 1158.0000 1.0000
35.5000 1138.0000 1.0000
35.5100 1176.0000 1.0000
35.5200 1103.0000 1.0000
35.5300 1170.0000 1.0000
35.5400 1152.0000 1.0000
35.5500 1140.0000 1.0000
35.5600 1111.0000 1.0000
35.5700 1129.0000 1.0000
35.5800 1181.0000 1.0000
35.5900 1161.0000 1.0000
35.6000 1107.0000 1.0000
35.6100 1159.0000 1.0000
35.6200 1064.0000 1.0000
35.6300 1159.0000 1.0000
35.6400 1143.0000 1.0000
35.6500 1173.0000 1.0000
35.6600 1130.0000 1.0000
35.6700 1153.0000 1.0000
35.6800 1117.0000 1.0000
35.6900 1107.0000 1.0000
35.7000 1127.0000 1.0000
35.7100 1104.0000 1.0000
35.7200 1157.0000 1.0000
35.7300 1140.0000 1.0000
35.7400 1107.0000 1.0000
35.7500 1128.0000 1.0000
35.7600 1100.0000 1.0000
35.7700 1080.0000 1.0000
35.7800 1123.0000 1.0000
35.7900 1127.0000 1.0000
35.8000 1114.0000 1.0000
35.8100 1132.0000 1.0000
35.8200 1126.0000 1.0000
35.8300 1113.0000 1.0000
35.8400 1156.0000 1.0000
35.8500 1140.0000 1.0000
35.8600 1155.0000 1.0000
35.8700 1128.0000 1.0000
35.8800 1130.0000 1.0000
35.8900 1148.0000 1.0000
35.9000 1080.0000 1.0000
35.9100 1142.0000 1.0000
35.9200 1096.0000 1.0000
35.9300 1117.0000 1.0000
35.9400 1119.0000 1.0000
35.9500 1134.0000 1.0000
35.9600 1129.0000 1.0000
35.9700 1114.0000 1.0000
35.9800 1066.0000 1.0000
35.9900 1123.0000 1.0000
36.0000 1081.0000 1.0000
36.0100 1086.0000 1.0000
36.0200 1081.0000 1.0000
36.0300 1098.0000 1.0000
36.0400 1092.0000 1.0000
36.0500 1148.0000 1.0000
36.0600 1121.0000 1.0000
36.0700 1131.0000 1.0000
36.0800 1156.0000 1.0000
36.0900 1078.0000 1.0000
36.1000 1173.0000 1.0000
36.1100 1086.0000 1.0000
36.1200 1078.0000 1.0000
36.1300 1122.0000 1.0000
36.1400 1163.0000 1.0000
36.1500 1195.0000 1.0000
36.1600 1220.0000 1.0000
36.1700 1210.0000 1.0000
36.1800 1215.0000 1.0000
36.1900 1192.0000 1.0000
36.2000 1241.0000 1.0000
36.2100 1257.0000 1.0000
36.2200 1237.0000 1.0000
36.2300 1196.0000 1.0000
36.2400 1243.0000 1.0000
36.2500 1290.0000 1.0000
36.2600 1281.0000 1.0000
36.2700 1323.0000 1.0000
36.2800 1326.0000 1.0000
36.2900 1369.0000 1.0000
36.3000 1426.0000 1.0000
36.3100 1397.0000 1.0000
36.3200 1504.0000 1.0000
36.3300 1532.0000 1.0000
36.3400 1577.0000 1.0000
36.3500 1561.0000 1.0000
36.3600 1693.0000 1.0000
36.3700 1822.0000 1.0000
36.3800 1922.0000 1.0000
36.3900 1937.0000 1.0000
36.4000 2042.0000 1.0000
36.4100 2089.0000 1.0000
36.4200 2255.0000 1.0000
36.4300 2302.0000 1.0000
36.4400 2252.0000 1.0000
36.4500 2176.0000 1.0000
36.4600 2272.0000 1.0000
36.4700 2187.0000 1.0000
36.4800 2073.0000 1.0000
36.4900 2059.0000 1.0000
36.5000 2036.0000 1.0000
36.5100 1895.0000 1.0000
36.5200 1860.0000 1.0000
36.5300 1816.0000 1.0000
36.5400 1725.0000 1.0000
36.5500 1670.0000 1.0000
36.5600 1625.0000 1.0000
36.5700 1601.0000 1.0000
36.5800 1425.0000 1.0000
36.5900 1374.0000 1.0000
36.6000 1323.0000 1.0000
36.6100 1268.0000 1.0000
36.6200 1293.0000 1.0000
36.6300 1167.0000 1.0000
36.6400 1203.0000 1.0000
36.6500 1162.0000 1.0000
36.6600 1174.0000 1.0000
36.6700 1176.0000 1.0000
36.6800 1153.0000 1.0000
36.6900 1112.0000 1.0000
36.7000 1107.0000 1.0000
36.7100 1126.0000 1.0000
36.7200 1125.0000 1.0000
36.7300 1129.0000 1.0000
36.7400 1090.0000 1.0000
36.7500 1092.0000 1.0000
36.7600 1094.0000 1.0000
36.7700 1066.0000 1.0000
36.7800 1059.0000 1.0000
36.7900 1044.0000 1.0000
36.8000 1056.0000 1.0000
36.8100 1061.0000 1.0000
36.8200 1077.0000 1.0000
36.8300 1056.0000 1.0000
36.8400 1048.0000 1.0000
36.8500 1023.0000 1.0000
36.8600 1025.0000 1.0000
36.8700 1017.0000 1.0000
36.8800 1072.0000 1.0000
36.8900 1055.0000 1.0000
36.9000 1072.0000 1.0000
36.9100 1060.0000 1.0000
36.9200 1092.0000 1.0000
36.9300 1044.0000 1.0000
36.9400 1008.0000 1.0000
36.9500 1004.0000 1.0000
36.9600 1030.0000 1.0000
36.9700 1056.0000 1.0000
36.9800 999.0000 1.0000
36.9900 1045.0000 1.0000
37.0000 984.0000 1.0000
37.0100 1021.0000 1.0000
37.0200 1067.0000 1.0000
37.0300 1046.0000 1.0000
37.0400 1031.0000 1.0000
37.0500 1054.0000 1.0000
37.0600 1022.0000 1.0000
37.0700 981.0000 1.0000
37.0800 1030.0000 1.0000
37.0900 1030.0000 1.0000
37.1000 1040.0000 1.0000
37.1100 1069.0000 1.0000
37.1200 1053.0000 1.0000
37.1300 1018.0000 1.0000
37.1400 1039.0000 1.0000
37.1500 1023.0000 1.0000
37.1600 976.0000 1.0000
37.1700 1099.0000 1.0000
37.1800 1060.0000 1.0000
37.1900 1057.0000 1.0000
37.2000 1051.0000 1.0000
37.2100 1012.0000 1.0000
37.2200 1057.0000 1.0000
37.2300 1094.0000 1.0000
37.2400 1025.0000 1.0000
37.2500 1003.0000 1.0000
37.2600 1059.0000 1.0000
37.2700 1018.0000 1.0000
37.2800 1006.0000 1.0000
37.2900 1019.0000 1.0000
37.3000 1032.0000 1.0000
37.3100 1079.0000 1.0000
37.3200 1029.0000 1.0000
37.3300 1052.0000 1.0000
37.3400 1089.0000 1.0000
37.3500 1083.0000 1.0000
37.3600 1026.0000 1.0000
37.3700 992.0000 1.0000
37.3800 1059.0000 1.0000
37.3900 1047.0000 1.0000
37.4000 1030.0000 1.0000
37.4100 1080.0000 1.0000
37.4200 1042.0000 1.0000
37.4300 1039.0000 1.0000
37.4400 1059.0000 1.0000
37.4500 1045.0000 1.0000
37.4600 1024.0000 1.0000
37.4700 1001.0000 1.0000
37.4800 996.0000 1.0000
37.4900 1013.0000 1.0000
37.5000 1026.0000 1.0000
37.5100 1050.0000 1.0000
37.5200 1071.0000 1.0000
37.5300 1096.0000 1.0000
37.5400 1126.0000 1.0000
37.5500 1053.0000 1.0000
37.5600 997.0000 1.0000
37.5700 1010.0000 1.0000
37.5800 1051.0000 1.0000
37.5900 1058.0000 1.0000
37.6000 1031.0000 1.0000
37.6100 1041.0000 1.0000
37.6200 999.0000 1.0000
37.6300 1063.0000 1.0000
37.6400 1015.0000 1.0000
37.6500 1019.0000 1.0000
37.6600 1070.0000 1.0000
37.6700 1038.0000 1.0000
37.6800 1052.0000 1.0000
37.6900 1054.0000 1.0000
37.7000 1047.0000 1.0000
37.7100 1066.0000 1.0000
37.7200 1026.0000 1.0000
37.7300 957.0000 1.0000
37.7400 1072.0000 1.0000
37.7500 1073.0000 1.0000
37.7600 1020.0000 1.0000
37.7700 1027.0000 1.0000
37.7800 998.0000 1.0000
37.7900 1051.0000 1.0000
37.8000 1068.0000 1.0000
37.8100 1042.0000 1.0000
37.8200 1032.0000 1.0000
37.8300 1045.0000 1.0000
37.8400 1049.0000 1.0000
37.8500 1060.0000 1.0000
37.8600 1040.0000 1.0000
37.8700 996.0000 1.0000
37.8800 1036.0000 1.0000
37.8900 1092.0000 1.0000
37.9000 1078.0000 1.0000
37.9100 1102.0000 1.0000
37.9200 1061.0000 1.0000
37.9300 1060.0000 1.0000
37.9400 1113.0000 1.0000
37.9500 1104.0000 1.0000
37.9600 1057.0000 1.0000
37.9700 1138.0000 1.0000
37.9800 1073.0000 1.0000
37.9900 1176.0000 1.0000
38.0000 1143.0000 1.0000
38.0100 1088.0000 1.0000
38.0200 1077.0000 1.0000
38.0300 1122.0000 1.0000
38.0400 1086.0000 1.0000
38.0500 1143.0000 1.0000
38.0600 1134.0000 1.0000
38.0700 1139.0000 1.0000
38.0800 1125.0000 1.0000
38.0900 1168.0000 1.0000
38.1000 1175.0000 1.0000
38.1100 1158.0000 1.0000
38.1200 1136.0000 1.0000
38.1300 1230.0000 1.0000
38.1400 1232.0000 1.0000
38.1500 1307.0000 1.0000
38.1600 1317.0000 1.0000
38.1700 1268.0000 1.0000
38.1800 1281.0000 1.0000
38.1900 1268.0000 1.0000
38.2000 1367.0000 1.0000
38.2100 1362.0000 1.0000
38.2200 1401.0000 1.0000
38.2300 1422.0000 1.0000
38.2400 1427.0000 1.0000
38.2500 1485.0000 1.0000
38.2600 1481.0000 1.0000
38.2700 1577.0000 1.0000
38.2800 1643.0000 1.0000
38.2900 1672.0000 1.0000
38.3000 1715.0000 1.0000
38.3100 1912.0000 1.0000
38.3200 2034.0000 1.0000
38.3300 1954.0000 1.0000
38.3400 1987.0000 1.0000
38.3500 2139.0000 1.0000
38.3600 2245.0000 1.0000
38.3700 2316.0000 1.0000
38.3800 2492.0000 1.0000
38.3900 2619.0000 1.0000
38.4000 2827.0000 1.0000
38.4100 2986.0000 1.0000
38.4200 3196.0000 1.0000
38.4300 3369.0000 1.0000
38.4400 3645.0000 1.0000
38.4500 3806.0000 1.0000
38.4600 4158.0000 1.0000
38.4700 4369.0000 1.0000
38.4800 4751.0000 1.0000
38.4900 5213.0000 1.0000
38.5000 5607.0000 1.0000
38.5100 5911.0000 1.0000
38.5200 6179.0000 1.0000
38.5300 6535.0000 1.0000
38.5400 6869.0000 1.0000
38.5500 7150.0000 1.0000
38.5600 7199.0000 1.0000
38.5700 7510.0000 1.0000
38.5800 7588.0000 1.0000
38.5900 7430.0000 1.0000
38.6000 7472.0000 1.0000
38.6100 7240.0000 1.0000
38.6200 7186.0000 1.0000
38.6300 6920.0000 1.0000
38.6400 6807.0000 1.0000
38.6500 6696.0000 1.0000
38.6600 6345.0000 1.0000
38.6700 6089.0000 1.0000
38.6800 5848.0000 1.0000
38.6900 5488.0000 1.0000
38.7000 5276.0000 1.0000
38.7100 4912.0000 1.0000
38.7200 4537.0000 1.0000
38.7300 4138.0000 1.0000
38.7400 3878.0000 1.0000
38.7500 3673.0000 1.0000
38.7600 3418.0000 1.0000
38.7700 3145.0000 1.0000
38.7800 2957.0000 1.0000
38.7900 2763.0000 1.0000
38.8000 2607.0000 1.0000
38.8100 2416.0000 1.0000
38.8200 2267.0000 1.0000
38.8300 2141.0000 1.0000
38.8400 2076.0000 1.0000
38.8500 2044.0000 1.0000
38.8600 1916.0000 1.0000
38.8700 1833.0000 1.0000
38.8800 1748.0000 1.0000
38.8900 1614.0000 1.0000
38.9000 1518.0000 1.0000
38.9100 1520.0000 1.0000
38.9200 1495.0000 1.0000
38.9300 1449.0000 1.0000
38.9400 1398.0000 1.0000
38.9500 1352.0000 1.0000
38.9600 1289.0000 1.0000
38.9700 1344.0000 1.0000
38.9800 1270.0000 1.0000
38.9900 1260.0000 1.0000
39.0000 1197.0000 1.0000
39.0100 1236.0000 1.0000
39.0200 1216.0000 1.0000
39.0300 1153.0000 1.0000
39.0400 1136.0000 1.0000
39.0500 1131.0000 1.0000
39.0600 1139.0000 1.0000
39.0700 1092.0000 1.0000
39.0800 1153.0000 1.0000
39.0900 1109.0000 1.0000
39.1000 1129.0000 1.0000
39.1100 1048.0000 1.0000
39.1200 1080.0000 1.0000
39.1300 1050.0000 1.0000
39.1400 1006.0000 1.0000
39.1500 1066.0000 1.0000
39.1600 1041.0000 1.0000
39.1700 998.0000 1.0000
39.1800 1004.0000 1.0000
39.1900 1001.0000 1.0000
39.2000 1042.0000 1.0000
39.2100 983.0000 1.0000
39.2200 1015.0000 1.0000
39.2300 1056.0000 1.0000
39.2400 982.0000 1.0000
39.2500 993.0000 1.0000
39.2600 975.0000 1.0000
39.2700 977.0000 1.0000
39.2800 997.0000 1.0000
39.2900 994.0000 1.0000
39.3000 981.0000 1.0000
39.3100 957.0000 1.0000
39.3200 1002.0000 1.0000
39.3300 991.0000 1.0000
39.3400 1006.0000 1.0000
39.3500 920.0000 1.0000
39.3600 1032.0000 1.0000
39.3700 965.0000 1.0000
39.3800 950.0000 1.0000
39.3900 980.0000 1.0000
39.4000 968.0000 1.0000
39.4100 992.0000 1.0000
39.4200 986.0000 1.0000
39.4300 998.0000 1.0000
39.4400 996.0000 1.0000
39.4500 984.0000 1.0000
39.4600 939.0000 1.0000
39.4700 921.0000 1.0000
39.4800 968.0000 1.0000
39.4900 969.0000 1.0000
39.5000 927.0000 1.0000
39.5100 964.0000 1.0000
39.5200 962.0000 1.0000
39.5300 957.0000 1.0000
39.5400 988.0000 1.0000
39.5500 1005.0000 1.0000
39.5600 974.0000 1.0000
39.5700 959.0000 1.0000
39.5800 962.0000 1.0000
39.5900 1015.0000 1.0000
39.6000 923.0000 1.0000
39.6100 970.0000 1.0000
39.6200 908.0000 1.0000
39.6300 991.0000 1.0000
39.6400 1000.0000 1.0000
39.6500 948.0000 1.0000
39.6600 992.0000 1.0000
39.6700 965.0000 1.0000
39.6800 923.0000 1.0000
39.6900 959.0000 1.0000
39.7000 947.0000 1.0000
39.7100 979.0000 1.0000
39.7200 925.0000 1.0000
39.7300 945.0000 1.0000
39.7400 916.0000 1.0000
39.7500 902.0000 1.0000
39.7600 966.0000 1.0000
39.7700 948.0000 1.0000
39.7800 915.0000 1.0000
39.7900 888.0000 1.0000
39.8000 943.0000 1.0000
39.8100 943.0000 1.0000
39.8200 903.0000 1.0000
39.8300 922.0000 1.0000
39.8400 898.0000 1.0000
39.8500 964.0000 1.0000
39.8600 951.0000 1.0000
39.8700 915.0000 1.0000
39.8800 909.0000 1.0000
39.8900 889.0000 1.0000
39.9000 912.0000 1.0000
39.9100 898.0000 1.0000
39.9200 873.0000 1.0000
39.9300 945.0000 1.0000
39.9400 864.0000 1.0000
39.9500 880.0000 1.0000
39.9600 895.0000 1.0000
39.9700 882.0000 1.0000
39.9800 859.0000 1.0000
39.9900 878.0000 1.0000
40.0000 925.0000 1.0000
40.0100 910.0000 1.0000
40.0200 890.0000 1.0000
40.0300 864.0000 1.0000
40.0400 869.0000 1.0000
40.0500 872.0000 1.0000
40.0600 819.0000 1.0000
40.0700 865.0000 1.0000
40.0800 915.0000 1.0000
40.0900 944.0000 1.0000
40.1000 919.0000 1.0000
40.1100 854.0000 1.0000
40.1200 890.0000 1.0000
40.1300 907.0000 1.0000
40.1400 931.0000 1.0000
40.1500 844.0000 1.0000
40.1600 901.0000 1.0000
40.1700 929.0000 1.0000
40.1800 960.0000 1.0000
40.1900 879.0000 1.0000
40.2000 907.0000 1.0000
40.2100 898.0000 1.0000
40.2200 870.0000 1.0000
40.2300 873.0000 1.0000
40.2400 898.0000 1.0000
40.2500 910.0000 1.0000
40.2600 880.0000 1.0000
40.2700 895.0000 1.0000
40.2800 880.0000 1.0000
40.2900 880.0000 1.0000
40.3000 919.0000 1.0000
40.3100 840.0000 1.0000
40.3200 864.0000 1.0000
40.3300 896.0000 1.0000
40.3400 904.0000 1.0000
40.3500 880.0000 1.0000
40.3600 890.0000 1.0000
40.3700 869.0000 1.0000
40.3800 890.0000 1.0000
40.3900 821.0000 1.0000
40.4000 898.0000 1.0000
40.4100 853.0000 1.0000
40.4200 882.0000 1.0000
40.4300 815.0000 1.0000
40.4400 877.0000 1.0000
40.4500 900.0000 1.0000
40.4600 921.0000 1.0000
40.4700 900.0000 1.0000
40.4800 862.0000 1.0000
40.4900 798.0000 1.0000
40.5000 853.0000 1.0000
40.5100 905.0000 1.0000
40.5200 882.0000 1.0000
40.5300 860.0000 1.0000
40.5400 904.0000 1.0000
40.5500 887.0000 1.0000
40.5600 841.0000 1.0000
40.5700 885.0000 1.0000
40.5800 850.0000 1.0000
40.5900 895.0000 1.0000
40.6000 832.0000 1.0000
40.6100 860.0000 1.0000
40.6200 886.0000 1.0000
40.6300 867.0000 1.0000
40.6400 888.0000 1.0000
40.6500 877.0000 1.0000
40.6600 892.0000 1.0000
40.6700 854.0000 1.0000
40.6800 868.0000 1.0000
40.6900 832.0000 1.0000
40.7000 859.0000 1.0000
40.7100 852.0000 1.0000
40.7200 853.0000 1.0000
40.7300 820.0000 1.0000
40.7400 906.0000 1.0000
40.7500 825.0000 1.0000
40.7600 851.0000 1.0000
40.7700 852.0000 1.0000
40.7800 835.0000 1.0000
40.7900 863.0000 1.0000
40.8000 803.0000 1.0000
40.8100 854.0000 1.0000
40.8200 862.0000 1.0000
40.8300 907.0000 1.0000
40.8400 914.0000 1.0000
40.8500 892.0000 1.0000
40.8600 874.0000 1.0000
40.8700 836.0000 1.0000
40.8800 876.0000 1.0000
40.8900 817.0000 1.0000
40.9000 841.0000 1.0000
40.9100 831.0000 1.0000
40.9200 808.0000 1.0000
40.9300 837.0000 1.0000
40.9400 907.0000 1.0000
40.9500 848.0000 1.0000
40.9600 846.0000 1.0000
40.9700 782.0000 1.0000
40.9800 841.0000 1.0000
40.9900 826.0000 1.0000
41.0000 817.0000 1.0000
41.0100 860.0000 1.0000
41.0200 875.0000 1.0000
41.0300 832.0000 1.0000
41.0400 858.0000 1.0000
41.0500 863.0000 1.0000
41.0600 852.0000 1.0000
41.0700 817.0000 1.0000
41.0800 864.0000 1.0000
41.0900 887.0000 1.0000
41.1000 859.0000 1.0000
41.1100 822.0000 1.0000
41.1200 828.0000 1.0000
41.1300 875.0000 1.0000
41.1400 861.0000 1.0000
41.1500 811.0000 1.0000
41.1600 842.0000 1.0000
41.1700 863.0000 1.0000
41.1800 851.0000 1.0000
41.1900 877.0000 1.0000
41.2000 829.0000 1.0000
41.2100 851.0000 1.0000
41.2200 815.0000 1.0000
41.2300 818.0000 1.0000
41.2400 869.0000 1.0000
41.2500 831.0000 1.0000
41.2600 827.0000 1.0000
41.2700 858.0000 1.0000
41.2800 868.0000 1.0000
41.2900 839.0000 1.0000
41.3000 823.0000 1.0000
41.3100 874.0000 1.0000
41.3200 869.0000 1.0000
41.3300 902.0000 1.0000
41.3400 827.0000 1.0000
41.3500 795.0000 1.0000
41.3600 800.0000 1.0000
41.3700 843.0000 1.0000
41.3800 815.0000 1.0000
41.3900 847.0000 1.0000
41.4000 824.0000 1.0000
41.4100 822.0000 1.0000
41.4200 840.0000 1.0000
41.4300 869.0000 1.0000
41.4400 815.0000 1.0000
41.4500 825.0000 1.0000
41.4600 834.0000 1.0000
41.4700 828.0000 1.0000
41.4800 833.0000 1.0000
41.4900 826.0000 1.0000
41.5000 873.0000 1.0000
41.5100 838.0000 1.0000
41.5200 852.0000 1.0000
41.5300 880.0000 1.0000
41.5400 897.0000 1.0000
41.5500 816.0000 1.0000
41.5600 825.0000 1.0000
41.5700 859.0000 1.0000
41.5800 820.0000 1.0000
41.5900 864.0000 1.0000
41.6000 831.0000 1.0000
41.6100 828.0000 1.0000
41.6200 914.0000 1.0000
41.6300 900.0000 1.0000
41.6400 916.0000 1.0000
41.6500 877.0000 1.0000
41.6600 829.0000 1.0000
41.6700 860.0000 1.0000
41.6800 907.0000 1.0000
41.6900 890.0000 1.0000
41.7000 919.0000 1.0000
41.7100 858.0000 1.0000
41.7200 853.0000 1.0000
41.7300 866.0000 1.0000
41.7400 856.0000 1.0000
41.7500 851.0000 1.0000
41.7600 871.0000 1.0000
41.7700 880.0000 1.0000
41.7800 858.0000 1.0000
41.7900 850.0000 1.0000
41.8000 800.0000 1.0000
41.8100 898.0000 1.0000
41.8200 877.0000 1.0000
41.8300 878.0000 1.0000
41.8400 852.0000 1.0000
41.8500 872.0000 1.0000
41.8600 840.0000 1.0000
41.8700 833.0000 1.0000
41.8800 866.0000 1.0000
41.8900 841.0000 1.0000
41.9000 834.0000 1.0000
41.9100 876.0000 1.0000
41.9200 866.0000 1.0000
41.9300 825.0000 1.0000
41.9400 813.0000 1.0000
41.9500 783.0000 1.0000
41.9600 836.0000 1.0000
41.9700 822.0000 1.0000
41.9800 842.0000 1.0000
41.9900 853.0000 1.0000
42.0000 814.0000 1.0000
42.0100 867.0000 1.0000
42.0200 888.0000 1.0000
42.0300 871.0000 1.0000
42.0400 819.0000 1.0000
42.0500 824.0000 1.0000
42.0600 845.0000 1.0000
42.0700 833.0000 1.0000
42.0800 798.0000 1.0000
42.0900 807.0000 1.0000
42.1000 844.0000 1.0000
42.1100 860.0000 1.0000
42.1200 851.0000 1.0000
42.1300 836.0000 1.0000
42.1400 869.0000 1.0000
42.1500 854.0000 1.0000
42.1600 835.0000 1.0000
42.1700 833.0000 1.0000
42.1800 798.0000 1.0000
42.1900 771.0000 1.0000
42.2000 846.0000 1.0000
42.2100 871.0000 1.0000
42.2200 857.0000 1.0000
42.2300 861.0000 1.0000
42.2400 866.0000 1.0000
42.2500 808.0000 1.0000
42.2600 811.0000 1.0000
42.2700 842.0000 1.0000
42.2800 813.0000 1.0000
42.2900 825.0000 1.0000
42.3000 797.0000 1.0000
42.3100 887.0000 1.0000
42.3200 851.0000 1.0000
42.3300 817.0000 1.0000
42.3400 770.0000 1.0000
42.3500 864.0000 1.0000
42.3600 823.0000 1.0000
42.3700 815.0000 1.0000
42.3800 869.0000 1.0000
42.3900 827.0000 1.0000
42.4000 859.0000 1.0000
42.4100 816.0000 1.0000
42.4200 846.0000 1.0000
42.4300 816.0000 1.0000
42.4400 832.0000 1.0000
42.4500 806.0000 1.0000
42.4600 848.0000 1.0000
42.4700 790.0000 1.0000
42.4800 829.0000 1.0000
42.4900 834.0000 1.0000
42.5000 840.0000 1.0000
42.5100 826.0000 1.0000
42.5200 823.0000 1.0000
42.5300 861.0000 1.0000
42.5400 831.0000 1.0000
42.5500 833.0000 1.0000
42.5600 835.0000 1.0000
42.5700 811.0000 1.0000
42.5800 833.0000 1.0000
42.5900 807.0000 1.0000
42.6000 892.0000 1.0000
42.6100 940.0000 1.0000
42.6200 849.0000 1.0000
42.6300 805.0000 1.0000
42.6400 844.0000 1.0000
42.6500 825.0000 1.0000
42.6600 851.0000 1.0000
42.6700 854.0000 1.0000
42.6800 823.0000 1.0000
42.6900 830.0000 1.0000
42.7000 819.0000 1.0000
42.7100 793.0000 1.0000
42.7200 788.0000 1.0000
42.7300 814.0000 1.0000
42.7400 831.0000 1.0000
42.7500 833.0000 1.0000
42.7600 845.0000 1.0000
42.7700 802.0000 1.0000
42.7800 807.0000 1.0000
42.7900 844.0000 1.0000
42.8000 796.0000 1.0000
42.8100 828.0000 1.0000
42.8200 824.0000 1.0000
42.8300 826.0000 1.0000
42.8400 813.0000 1.0000
42.8500 795.0000 1.0000
42.8600 832.0000 1.0000
42.8700 883.0000 1.0000
42.8800 855.0000 1.0000
42.8900 821.0000 1.0000
42.9000 849.0000 1.0000
42.9100 853.0000 1.0000
42.9200 817.0000 1.0000
42.9300 822.0000 1.0000
42.9400 782.0000 1.0000
42.9500 828.0000 1.0000
42.9600 861.0000 1.0000
42.9700 828.0000 1.0000
42.9800 826.0000 1.0000
42.9900 759.0000 1.0000
43.0000 844.0000 1.0000
43.0100 872.0000 1.0000
43.0200 876.0000 1.0000
43.0300 789.0000 1.0000
43.0400 813.0000 1.0000
43.0500 867.0000 1.0000
43.0600 888.0000 1.0000
43.0700 856.0000 1.0000
43.0800 884.0000 1.0000
43.0900 885.0000 1.0000
43.1000 849.0000 1.0000
43.1100 898.0000 1.0000
43.1200 847.0000 1.0000
43.1300 850.0000 1.0000
43.1400 866.0000 1.0000
43.1500 880.0000 1.0000
43.1600 918.0000 1.0000
43.1700 931.0000 1.0000
43.1800 904.0000 1.0000
43.1900 889.0000 1.0000
43.2000 890.0000 1.0000
43.2100 910.0000 1.0000
43.2200 903.0000 1.0000
43.2300 943.0000 1.0000
43.2400 923.0000 1.0000
43.2500 926.0000 1.0000
43.2600 906.0000 1.0000
43.2700 939.0000 1.0000
43.2800 943.0000 1.0000
43.2900 901.0000 1.0000
43.3000 879.0000 1.0000
43.3100 877.0000 1.0000
43.3200 900.0000 1.0000
43.3300 890.0000 1.0000
43.3400 912.0000 1.0000
43.3500 875.0000 1.0000
43.3600 893.0000 1.0000
43.3700 899.0000 1.0000
43.3800 872.0000 1.0000
43.3900 875.0000 1.0000
43.4000 891.0000 1.0000
43.4100 840.0000 1.0000
43.4200 839.0000 1.0000
43.4300 869.0000 1.0000
43.4400 870.0000 1.0000
43.4500 832.0000 1.0000
43.4600 823.0000 1.0000
43.4700 828.0000 1.0000
43.4800 852.0000 1.0000
43.4900 895.0000 1.0000
43.5000 874.0000 1.0000
43.5100 882.0000 1.0000
43.5200 841.0000 1.0000
43.5300 816.0000 1.0000
43.5400 877.0000 1.0000
43.5500 829.0000 1.0000
43.5600 826.0000 1.0000
43.5700 832.0000 1.0000
43.5800 801.0000 1.0000
43.5900 767.0000 1.0000
43.6000 812.0000 1.0000
43.6100 849.0000 1.0000
43.6200 839.0000 1.0000
43.6300 845.0000 1.0000
43.6400 797.0000 1.0000
43.6500 837.0000 1.0000
43.6600 840.0000 1.0000
43.6700 827.0000 1.0000
43.6800 819.0000 1.0000
43.6900 790.0000 1.0000
43.7000 858.0000 1.0000
43.7100 781.0000 1.0000
43.7200 814.0000 1.0000
43.7300 806.0000 1.0000
43.7400 776.0000 1.0000
43.7500 796.0000 1.0000
43.7600 787.0000 1.0000
43.7700 767.0000 1.0000
43.7800 793.0000 1.0000
43.7900 790.0000 1.0000
43.8000 798.0000 1.0000
43.8100 811.0000 1.0000
43.8200 792.0000 1.0000
43.8300 819.0000 1.0000
43.8400 774.0000 1.0000
43.8500 808.0000 1.0000
43.8600 829.0000 1.0000
43.8700 845.0000 1.0000
43.8800 825.0000 1.0000
43.8900 822.0000 1.0000
43.9000 782.0000 1.0000
43.9100 817.0000 1.0000
43.9200 842.0000 1.0000
43.9300 837.0000 1.0000
43.9400 808.0000 1.0000
43.9500 796.0000 1.0000
43.9600 785.0000 1.0000
43.9700 772.0000 1.0000
43.9800 798.0000 1.0000
43.9900 813.0000 1.0000
44.0000 831.0000 1.0000
44.0100 792.0000 1.0000
44.0200 824.0000 1.0000
44.0300 773.0000 1.0000
44.0400 800.0000 1.0000
44.0500 768.0000 1.0000
44.0600 813.0000 1.0000
44.0700 812.0000 1.0000
44.0800 831.0000 1.0000
44.0900 818.0000 1.0000
44.1000 778.0000 1.0000
44.1100 826.0000 1.0000
44.1200 843.0000 1.0000
44.1300 796.0000 1.0000
44.1400 779.0000 1.0000
44.1500 791.0000 1.0000
44.1600 809.0000 1.0000
44.1700 834.0000 1.0000
44.1800 791.0000 1.0000
44.1900 805.0000 1.0000
44.2000 819.0000 1.0000
44.2100 824.0000 1.0000
44.2200 804.0000 1.0000
44.2300 777.0000 1.0000
44.2400 795.0000 1.0000
44.2500 820.0000 1.0000
44.2600 778.0000 1.0000
44.2700 772.0000 1.0000
44.2800 812.0000 1.0000
44.2900 806.0000 1.0000
44.3000 835.0000 1.0000
44.3100 880.0000 1.0000
44.3200 785.0000 1.0000
44.3300 809.0000 1.0000
44.3400 813.0000 1.0000
44.3500 832.0000 1.0000
44.3600 800.0000 1.0000
44.3700 832.0000 1.0000
44.3800 786.0000 1.0000
44.3900 820.0000 1.0000
44.4000 774.0000 1.0000
44.4100 876.0000 1.0000
44.4200 848.0000 1.0000
44.4300 866.0000 1.0000
44.4400 815.0000 1.0000
44.4500 812.0000 1.0000
44.4600 816.0000 1.0000
44.4700 813.0000 1.0000
44.4800 805.0000 1.0000
44.4900 791.0000 1.0000
44.5000 793.0000 1.0000
44.5100 793.0000 1.0000
44.5200 810.0000 1.0000
44.5300 813.0000 1.0000
44.5400 795.0000 1.0000
44.5500 758.0000 1.0000
44.5600 788.0000 1.0000
44.5700 830.0000 1.0000
44.5800 807.0000 1.0000
44.5900 802.0000 1.0000
44.6000 748.0000 1.0000
44.6100 794.0000 1.0000
44.6200 799.0000 1.0000
44.6300 759.0000 1.0000
44.6400 817.0000 1.0000
44.6500 764.0000 1.0000
44.6600 813.0000 1.0000
44.6700 773.0000 1.0000
44.6800 798.0000 1.0000
44.6900 762.0000 1.0000
44.7000 754.0000 1.0000
44.7100 811.0000 1.0000
44.7200 787.0000 1.0000
44.7300 786.0000 1.0000
44.7400 768.0000 1.0000
44.7500 797.0000 1.0000
44.7600 787.0000 1.0000
44.7700 790.0000 1.0000
44.7800 832.0000 1.0000
44.7900 804.0000 1.0000
44.8000 808.0000 1.0000
44.8100 789.0000 1.0000
44.8200 789.0000 1.0000
44.8300 781.0000 1.0000
44.8400 822.0000 1.0000
44.8500 829.0000 1.0000
44.8600 805.0000 1.0000
44.8700 800.0000 1.0000
44.8800 816.0000 1.0000
44.8900 784.0000 1.0000
44.9000 759.0000 1.0000
44.9100 765.0000 1.0000
44.9200 785.0000 1.0000
44.9300 847.0000 1.0000
44.9400 824.0000 1.0000
44.9500 813.0000 1.0000
44.9600 748.0000 1.0000
44.9700 779.0000 1.0000
44.9800 796.0000 1.0000
44.9900 754.0000 1.0000
45.0000 821.0000 1.0000
45.0100 810.0000 1.0000
45.0200 800.0000 1.0000
45.0300 790.0000 1.0000
45.0400 764.0000 1.0000
45.0500 766.0000 1.0000
45.0600 782.0000 1.0000
45.0700 765.0000 1.0000
45.0800 808.0000 1.0000
45.0900 787.0000 1.0000
45.1000 780.0000 1.0000
45.1100 763.0000 1.0000
45.1200 794.0000 1.0000
45.1300 808.0000 1.0000
45.1400 806.0000 1.0000
45.1500 738.0000 1.0000
45.1600 753.0000 1.0000
45.1700 807.0000 1.0000
45.1800 790.0000 1.0000
45.1900 793.0000 1.0000
45.2000 803.0000 1.0000
45.2100 770.0000 1.0000
45.2200 821.0000 1.0000
45.2300 748.0000 1.0000
45.2400 790.0000 1.0000
45.2500 776.0000 1.0000
45.2600 738.0000 1.0000
45.2700 763.0000 1.0000
45.2800 812.0000 1.0000
45.2900 764.0000 1.0000
45.3000 795.0000 1.0000
45.3100 774.0000 1.0000
45.3200 739.0000 1.0000
45.3300 812.0000 1.0000
45.3400 772.0000 1.0000
45.3500 818.0000 1.0000
45.3600 751.0000 1.0000
45.3700 775.0000 1.0000
45.3800 736.0000 1.0000
45.3900 744.0000 1.0000
45.4000 777.0000 1.0000
45.4100 802.0000 1.0000
45.4200 771.0000 1.0000
45.4300 783.0000 1.0000
45.4400 762.0000 1.0000
45.4500 740.0000 1.0000
45.4600 739.0000 1.0000
45.4700 784.0000 1.0000
45.4800 838.0000 1.0000
45.4900 824.0000 1.0000
45.5000 785.0000 1.0000
45.5100 792.0000 1.0000
45.5200 782.0000 1.0000
45.5300 767.0000 1.0000
45.5400 794.0000 1.0000
45.5500 801.0000 1.0000
45.5600 751.0000 1.0000
45.5700 742.0000 1.0000
45.5800 746.0000 1.0000
45.5900 773.0000 1.0000
45.6000 789.0000 1.0000
45.6100 771.0000 1.0000
45.6200 766.0000 1.0000
45.6300 761.0000 1.0000
45.6400 757.0000 1.0000
45.6500 825.0000 1.0000
45.6600 803.0000 1.0000
45.6700 777.0000 1.0000
45.6800 752.0000 1.0000
45.6900 799.0000 1.0000
45.7000 757.0000 1.0000
45.7100 763.0000 1.0000
45.7200 744.0000 1.0000
45.7300 764.0000 1.0000
45.7400 775.0000 1.0000
45.7500 771.0000 1.0000
45.7600 740.0000 1.0000
45.7700 772.0000 1.0000
45.7800 747.0000 1.0000
45.7900 753.0000 1.0000
45.8000 758.0000 1.0000
45.8100 718.0000 1.0000
45.8200 755.0000 1.0000
45.8300 766.0000 1.0000
45.8400 718.0000 1.0000
45.8500 737.0000 1.0000
45.8600 738.0000 1.0000
45.8700 787.0000 1.0000
45.8800 764.0000 1.0000
45.8900 764.0000 1.0000
45.9000 760.0000 1.0000
45.9100 775.0000 1.0000
45.9200 760.0000 1.0000
45.9300 785.0000 1.0000
45.9400 736.0000 1.0000
45.9500 772.0000 1.0000
45.9600 745.0000 1.0000
45.9700 727.0000 1.0000
45.9800 761.0000 1.0000
45.9900 768.0000 1.0000
46.0000 723.0000 1.0000
46.0100 804.0000 1.0000
46.0200 727.0000 1.0000
46.0300 748.0000 1.0000
46.0400 775.0000 1.0000
46.0500 818.0000 1.0000
46.0600 763.0000 1.0000
46.0700 802.0000 1.0000
46.0800 806.0000 1.0000
46.0900 770.0000 1.0000
46.1000 752.0000 1.0000
46.1100 755.0000 1.0000
46.1200 729.0000 1.0000
46.1300 747.0000 1.0000
46.1400 769.0000 1.0000
46.1500 759.0000 1.0000
46.1600 745.0000 1.0000
46.1700 731.0000 1.0000
46.1800 770.0000 1.0000
46.1900 753.0000 1.0000
46.2000 785.0000 1.0000
46.2100 778.0000 1.0000
46.2200 749.0000 1.0000
46.2300 712.0000 1.0000
46.2400 746.0000 1.0000
46.2500 713.0000 1.0000
46.2600 757.0000 1.0000
46.2700 743.0000 1.0000
46.2800 723.0000 1.0000
46.2900 743.0000 1.0000
46.3000 772.0000 1.0000
46.3100 770.0000 1.0000
46.3200 754.0000 1.0000
46.3300 755.0000 1.0000
46.3400 779.0000 1.0000
46.3500 757.0000 1.0000
46.3600 741.0000 1.0000
46.3700 757.0000 1.0000
46.3800 771.0000 1.0000
46.3900 736.0000 1.0000
46.4000 775.0000 1.0000
46.4100 767.0000 1.0000
46.4200 741.0000 1.0000
46.4300 735.0000 1.0000
46.4400 735.0000 1.0000
46.4500 738.0000 1.0000
46.4600 736.0000 1.0000
46.4700 773.0000 1.0000
46.4800 723.0000 1.0000
46.4900 739.0000 1.0000
46.5000 760.0000 1.0000
46.5100 791.0000 1.0000
46.5200 747.0000 1.0000
46.5300 733.0000 1.0000
46.5400 773.0000 1.0000
46.5500 780.0000 1.0000
46.5600 791.0000 1.0000
46.5700 807.0000 1.0000
46.5800 755.0000 1.0000
46.5900 782.0000 1.0000
46.6000 800.0000 1.0000
46.6100 755.0000 1.0000
46.6200 747.0000 1.0000
46.6300 739.0000 1.0000
46.6400 756.0000 1.0000
46.6500 748.0000 1.0000
46.6600 754.0000 1.0000
46.6700 786.0000 1.0000
46.6800 712.0000 1.0000
46.6900 762.0000 1.0000
46.7000 727.0000 1.0000
46.7100 755.0000 1.0000
46.7200 762.0000 1.0000
46.7300 708.0000 1.0000
46.7400 753.0000 1.0000
46.7500 764.0000 1.0000
46.7600 749.0000 1.0000
46.7700 794.0000 1.0000
46.7800 741.0000 1.0000
46.7900 749.0000 1.0000
46.8000 710.0000 1.0000
46.8100 744.0000 1.0000
46.8200 741.0000 1.0000
46.8300 742.0000 1.0000
46.8400 725.0000 1.0000
46.8500 774.0000 1.0000
46.8600 786.0000 1.0000
46.8700 782.0000 1.0000
46.8800 811.0000 1.0000
46.8900 762.0000 1.0000
46.9000 762.0000 1.0000
46.9100 768.0000 1.0000
46.9200 767.0000 1.0000
46.9300 737.0000 1.0000
46.9400 765.0000 1.0000
46.9500 773.0000 1.0000
46.9600 739.0000 1.0000
46.9700 760.0000 1.0000
46.9800 754.0000 1.0000
46.9900 799.0000 1.0000
47.0000 787.0000 1.0000
47.0100 766.0000 1.0000
47.0200 766.0000 1.0000
47.0300 784.0000 1.0000
47.0400 749.0000 1.0000
47.0500 764.0000 1.0000
47.0600 762.0000 1.0000
47.0700 790.0000 1.0000
47.0800 802.0000 1.0000
47.0900 711.0000 1.0000
47.1000 742.0000 1.0000
47.1100 749.0000 1.0000
47.1200 759.0000 1.0000
47.1300 726.0000 1.0000
47.1400 745.0000 1.0000
47.1500 753.0000 1.0000
47.1600 778.0000 1.0000
47.1700 741.0000 1.0000
47.1800 760.0000 1.0000
47.1900 748.0000 1.0000
47.2000 769.0000 1.0000
47.2100 747.0000 1.0000
47.2200 714.0000 1.0000
47.2300 701.0000 1.0000
47.2400 748.0000 1.0000
47.2500 761.0000 1.0000
47.2600 743.0000 1.0000
47.2700 753.0000 1.0000
47.2800 775.0000 1.0000
47.2900 743.0000 1.0000
47.3000 722.0000 1.0000
47.3100 763.0000 1.0000
47.3200 733.0000 1.0000
47.3300 757.0000 1.0000
47.3400 727.0000 1.0000
47.3500 758.0000 1.0000
47.3600 766.0000 1.0000
47.3700 730.0000 1.0000
47.3800 710.0000 1.0000
47.3900 710.0000 1.0000
47.4000 736.0000 1.0000
47.4100 707.0000 1.0000
47.4200 757.0000 1.0000
47.4300 745.0000 1.0000
47.4400 766.0000 1.0000
47.4500 710.0000 1.0000
47.4600 743.0000 1.0000
47.4700 736.0000 1.0000
47.4800 723.0000 1.0000
47.4900 721.0000 1.0000
47.5000 727.0000 1.0000
47.5100 736.0000 1.0000
47.5200 760.0000 1.0000
47.5300 724.0000 1.0000
47.5400 709.0000 1.0000
47.5500 716.0000 1.0000
47.5600 731.0000 1.0000
47.5700 753.0000 1.0000
47.5800 757.0000 1.0000
47.5900 763.0000 1.0000
47.6000 751.0000 1.0000
47.6100 695.0000 1.0000
47.6200 719.0000 1.0000
47.6300 755.0000 1.0000
47.6400 778.0000 1.0000
47.6500 737.0000 1.0000
47.6600 745.0000 1.0000
47.6700 752.0000 1.0000
47.6800 722.0000 1.0000
47.6900 722.0000 1.0000
47.7000 743.0000 1.0000
47.7100 762.0000 1.0000
47.7200 741.0000 1.0000
47.7300 748.0000 1.0000
47.7400 761.0000 1.0000
47.7500 693.0000 1.0000
47.7600 757.0000 1.0000
47.7700 723.0000 1.0000
47.7800 708.0000 1.0000
47.7900 708.0000 1.0000
47.8000 695.0000 1.0000
47.8100 720.0000 1.0000
47.8200 701.0000 1.0000
47.8300 712.0000 1.0000
47.8400 690.0000 1.0000
47.8500 727.0000 1.0000
47.8600 784.0000 1.0000
47.8700 743.0000 1.0000
47.8800 763.0000 1.0000
47.8900 737.0000 1.0000
47.9000 746.0000 1.0000
47.9100 790.0000 1.0000
47.9200 755.0000 1.0000
47.9300 777.0000 1.0000
47.9400 772.0000 1.0000
47.9500 742.0000 1.0000
47.9600 749.0000 1.0000
47.9700 746.0000 1.0000
47.9800 715.0000 1.0000
47.9900 745.0000 1.0000
48.0000 708.0000 1.0000
48.0100 714.0000 1.0000
48.0200 706.0000 1.0000
48.0300 711.0000 1.0000
48.0400 711.0000 1.0000
48.0500 687.0000 1.0000
48.0600 692.0000 1.0000
48.0700 804.0000 1.0000
48.0800 728.0000 1.0000
48.0900 703.0000 1.0000
48.1000 702.0000 1.0000
48.1100 721.0000 1.0000
48.1200 724.0000 1.0000
48.1300 712.0000 1.0000
48.1400 715.0000 1.0000
48.1500 712.0000 1.0000
48.1600 719.0000 1.0000
48.1700 755.0000 1.0000
48.1800 747.0000 1.0000
48.1900 711.0000 1.0000
48.2000 769.0000 1.0000
48.2100 732.0000 1.0000
48.2200 723.0000 1.0000
48.2300 740.0000 1.0000
48.2400 742.0000 1.0000
48.2500 713.0000 1.0000
48.2600 704.0000 1.0000
48.2700 709.0000 1.0000
48.2800 723.0000 1.0000
48.2900 726.0000 1.0000
48.3000 716.0000 1.0000
48.3100 709.0000 1.0000
48.3200 733.0000 1.0000
48.3300 726.0000 1.0000
48.3400 682.0000 1.0000
48.3500 731.0000 1.0000
48.3600 705.0000 1.0000
48.3700 731.0000 1.0000
48.3800 693.0000 1.0000
48.3900 668.0000 1.0000
48.4000 730.0000 1.0000
48.4100 695.0000 1.0000
48.4200 709.0000 1.0000
48.4300 704.0000 1.0000
48.4400 758.0000 1.0000
48.4500 727.0000 1.0000
48.4600 716.0000 1.0000
48.4700 705.0000 1.0000
48.4800 728.0000 1.0000
48.4900 706.0000 1.0000
48.5000 743.0000 1.0000
48.5100 726.0000 1.0000
48.5200 749.0000 1.0000
48.5300 716.0000 1.0000
48.5400 727.0000 1.0000
48.5500 747.0000 1.0000
48.5600 694.0000 1.0000
48.5700 745.0000 1.0000
48.5800 727.0000 1.0000
48.5900 712.0000 1.0000
48.6000 766.0000 1.0000
48.6100 713.0000 1.0000
48.6200 730.0000 1.0000
48.6300 670.0000 1.0000
48.6400 711.0000 1.0000
48.6500 737.0000 1.0000
48.6600 713.0000 1.0000
48.6700 685.0000 1.0000
48.6800 715.0000 1.0000
48.6900 686.0000 1.0000
48.7000 739.0000 1.0000
48.7100 757.0000 1.0000
48.7200 727.0000 1.0000
48.7300 765.0000 1.0000
48.7400 694.0000 1.0000
48.7500 666.0000 1.0000
48.7600 708.0000 1.0000
48.7700 735.0000 1.0000
48.7800 757.0000 1.0000
48.7900 663.0000 1.0000
48.8000 695.0000 1.0000
48.8100 713.0000 1.0000
48.8200 705.0000 1.0000
48.8300 692.0000 1.0000
48.8400 677.0000 1.0000
48.8500 712.0000 1.0000
48.8600 716.0000 1.0000
48.8700 736.0000 1.0000
48.8800 682.0000 1.0000
48.8900 711.0000 1.0000
48.9000 749.0000 1.0000
48.9100 709.0000 1.0000
48.9200 724.0000 1.0000
48.9300 695.0000 1.0000
48.9400 673.0000 1.0000
48.9500 734.0000 1.0000
48.9600 751.0000 1.0000
48.9700 759.0000 1.0000
48.9800 711.0000 1.0000
48.9900 720.0000 1.0000
49.0000 789.0000 1.0000
49.0100 710.0000 1.0000
49.0200 703.0000 1.0000
49.0300 688.0000 1.0000
49.0400 722.0000 1.0000
49.0500 764.0000 1.0000
49.0600 746.0000 1.0000
49.0700 689.0000 1.0000
49.0800 716.0000 1.0000
49.0900 719.0000 1.0000
49.1000 683.0000 1.0000
49.1100 698.0000 1.0000
49.1200 699.0000 1.0000
49.1300 699.0000 1.0000
49.1400 699.0000 1.0000
49.1500 726.0000 1.0000
49.1600 717.0000 1.0000
49.1700 667.0000 1.0000
49.1800 698.0000 1.0000
49.1900 709.0000 1.0000
49.2000 680.0000 1.0000
49.2100 723.0000 1.0000
49.2200 737.0000 1.0000
49.2300 686.0000 1.0000
49.2400 703.0000 1.0000
49.2500 700.0000 1.0000
49.2600 686.0000 1.0000
49.2700 709.0000 1.0000
49.2800 725.0000 1.0000
49.2900 670.0000 1.0000
49.3000 667.0000 1.0000
49.3100 691.0000 1.0000
49.3200 717.0000 1.0000
49.3300 707.0000 1.0000
49.3400 690.0000 1.0000
49.3500 708.0000 1.0000
49.3600 692.0000 1.0000
49.3700 725.0000 1.0000
49.3800 699.0000 1.0000
49.3900 704.0000 1.0000
49.4000 714.0000 1.0000
49.4100 692.0000 1.0000
49.4200 706.0000 1.0000
49.4300 695.0000 1.0000
49.4400 700.0000 1.0000
49.4500 695.0000 1.0000
49.4600 685.0000 1.0000
49.4700 655.0000 1.0000
49.4800 707.0000 1.0000
49.4900 724.0000 1.0000
49.5000 684.0000 1.0000
49.5100 681.0000 1.0000
49.5200 701.0000 1.0000
49.5300 736.0000 1.0000
49.5400 706.0000 1.0000
49.5500 681.0000 1.0000
49.5600 720.0000 1.0000
49.5700 655.0000 1.0000
49.5800 674.0000 1.0000
49.5900 707.0000 1.0000
49.6000 710.0000 1.0000
49.6100 702.0000 1.0000
49.6200 722.0000 1.0000
49.6300 704.0000 1.0000
49.6400 695.0000 1.0000
49.6500 738.0000 1.0000
49.6600 690.0000 1.0000
49.6700 709.0000 1.0000
49.6800 675.0000 1.0000
49.6900 692.0000 1.0000
49.7000 721.0000 1.0000
49.7100 713.0000 1.0000
49.7200 690.0000 1.0000
49.7300 702.0000 1.0000
49.7400 726.0000 1.0000
49.7500 691.0000 1.0000
49.7600 749.0000 1.0000
49.7700 687.0000 1.0000
49.7800 704.0000 1.0000
49.7900 705.0000 1.0000
49.8000 711.0000 1.0000
49.8100 693.0000 1.0000
49.8200 704.0000 1.0000
49.8300 676.0000 1.0000
49.8400 712.0000 1.0000
49.8500 726.0000 1.0000
49.8600 696.0000 1.0000
49.8700 690.0000 1.0000
49.8800 712.0000 1.0000
49.8900 712.0000 1.0000
49.9000 720.0000 1.0000
49.9100 698.0000 1.0000
49.9200 701.0000 1.0000
49.9300 740.0000 1.0000
49.9400 690.0000 1.0000
49.9500 734.0000 1.0000
49.9600 722.0000 1.0000
49.9700 729.0000 1.0000
49.9800 738.0000 1.0000
49.9900 731.0000 1.0000
50.0000 685.0000 1.0000
50.0100 718.0000 1.0000
50.0200 697.0000 1.0000
50.0300 710.0000 1.0000
50.0400 710.0000 1.0000
50.0500 729.0000 1.0000
50.0600 683.0000 1.0000
50.0700 681.0000 1.0000
50.0800 705.0000 1.0000
50.0900 662.0000 1.0000
50.1000 671.0000 1.0000
50.1100 729.0000 1.0000
50.1200 768.0000 1.0000
50.1300 732.0000 1.0000
50.1400 698.0000 1.0000
50.1500 695.0000 1.0000
50.1600 704.0000 1.0000
50.1700 752.0000 1.0000
50.1800 700.0000 1.0000
50.1900 728.0000 1.0000
50.2000 735.0000 1.0000
50.2100 738.0000 1.0000
50.2200 742.0000 1.0000
50.2300 792.0000 1.0000
50.2400 770.0000 1.0000
50.2500 719.0000 1.0000
50.2600 743.0000 1.0000
50.2700 777.0000 1.0000
50.2800 737.0000 1.0000
50.2900 722.0000 1.0000
50.3000 746.0000 1.0000
50.3100 717.0000 1.0000
50.3200 745.0000 1.0000
50.3300 799.0000 1.0000
50.3400 753.0000 1.0000
50.3500 713.0000 1.0000
50.3600 674.0000 1.0000
50.3700 722.0000 1.0000
50.3800 742.0000 1.0000
50.3900 687.0000 1.0000
50.4000 728.0000 1.0000
50.4100 722.0000 1.0000
50.4200 736.0000 1.0000
50.4300 750.0000 1.0000
50.4400 732.0000 1.0000
50.4500 746.0000 1.0000
50.4600 703.0000 1.0000
50.4700 712.0000 1.0000
50.4800 742.0000 1.0000
50.4900 718.0000 1.0000
50.5000 742.0000 1.0000
50.5100 723.0000 1.0000
50.5200 718.0000 1.0000
50.5300 702.0000 1.0000
50.5400 770.0000 1.0000
50.5500 723.0000 1.0000
50.5600 726.0000 1.0000
50.5700 715.0000 1.0000
50.5800 731.0000 1.0000
50.5900 742.0000 1.0000
50.6000 743.0000 1.0000
50.6100 730.0000 1.0000
50.6200 699.0000 1.0000
50.6300 729.0000 1.0000
50.6400 788.0000 1.0000
50.6500 724.0000 1.0000
50.6600 731.0000 1.0000
50.6700 699.0000 1.0000
50.6800 717.0000 1.0000
50.6900 758.0000 1.0000
50.7000 686.0000 1.0000
50.7100 701.0000 1.0000
50.7200 712.0000 1.0000
50.7300 706.0000 1.0000
50.7400 676.0000 1.0000
50.7500 691.0000 1.0000
50.7600 684.0000 1.0000
50.7700 704.0000 1.0000
50.7800 671.0000 1.0000
50.7900 686.0000 1.0000
50.8000 681.0000 1.0000
50.8100 716.0000 1.0000
50.8200 723.0000 1.0000
50.8300 678.0000 1.0000
50.8400 688.0000 1.0000
50.8500 680.0000 1.0000
50.8600 677.0000 1.0000
50.8700 729.0000 1.0000
50.8800 732.0000 1.0000
50.8900 731.0000 1.0000
50.9000 686.0000 1.0000
50.9100 718.0000 1.0000
50.9200 725.0000 1.0000
50.9300 727.0000 1.0000
50.9400 703.0000 1.0000
50.9500 739.0000 1.0000
50.9600 706.0000 1.0000
50.9700 702.0000 1.0000
50.9800 693.0000 1.0000
50.9900 702.0000 1.0000
51.0000 649.0000 1.0000
51.0100 714.0000 1.0000
51.0200 704.0000 1.0000
51.0300 723.0000 1.0000
51.0400 741.0000 1.0000
51.0500 679.0000 1.0000
51.0600 761.0000 1.0000
51.0700 752.0000 1.0000
51.0800 720.0000 1.0000
51.0900 704.0000 1.0000
51.1000 713.0000 1.0000
51.1100 714.0000 1.0000
51.1200 707.0000 1.0000
51.1300 730.0000 1.0000
51.1400 684.0000 1.0000
51.1500 763.0000 1.0000
51.1600 735.0000 1.0000
51.1700 743.0000 1.0000
51.1800 717.0000 1.0000
51.1900 706.0000 1.0000
51.2000 716.0000 1.0000
51.2100 754.0000 1.0000
51.2200 717.0000 1.0000
51.2300 721.0000 1.0000
51.2400 705.0000 1.0000
51.2500 739.0000 1.0000
51.2600 695.0000 1.0000
51.2700 745.0000 1.0000
51.2800 721.0000 1.0000
51.2900 722.0000 1.0000
51.3000 664.0000 1.0000
51.3100 694.0000 1.0000
51.3200 720.0000 1.0000
51.3300 704.0000 1.0000
51.3400 675.0000 1.0000
51.3500 725.0000 1.0000
51.3600 691.0000 1.0000
51.3700 688.0000 1.0000
51.3800 717.0000 1.0000
51.3900 729.0000 1.0000
51.4000 736.0000 1.0000
51.4100 742.0000 1.0000
51.4200 719.0000 1.0000
51.4300 684.0000 1.0000
51.4400 748.0000 1.0000
51.4500 758.0000 1.0000
51.4600 718.0000 1.0000
51.4700 686.0000 1.0000
51.4800 734.0000 1.0000
51.4900 746.0000 1.0000
51.5000 708.0000 1.0000
51.5100 733.0000 1.0000
51.5200 728.0000 1.0000
51.5300 719.0000 1.0000
51.5400 748.0000 1.0000
51.5500 726.0000 1.0000
51.5600 746.0000 1.0000
51.5700 763.0000 1.0000
51.5800 740.0000 1.0000
51.5900 728.0000 1.0000
51.6000 726.0000 1.0000
51.6100 762.0000 1.0000
51.6200 717.0000 1.0000
51.6300 736.0000 1.0000
51.6400 768.0000 1.0000
51.6500 739.0000 1.0000
51.6600 741.0000 1.0000
51.6700 729.0000 1.0000
51.6800 744.0000 1.0000
51.6900 751.0000 1.0000
51.7000 741.0000 1.0000
51.7100 774.0000 1.0000
51.7200 754.0000 1.0000
51.7300 766.0000 1.0000
51.7400 729.0000 1.0000
51.7500 751.0000 1.0000
51.7600 792.0000 1.0000
51.7700 772.0000 1.0000
51.7800 733.0000 1.0000
51.7900 758.0000 1.0000
51.8000 785.0000 1.0000
51.8100 804.0000 1.0000
51.8200 793.0000 1.0000
51.8300 793.0000 1.0000
51.8400 772.0000 1.0000
51.8500 808.0000 1.0000
51.8600 816.0000 1.0000
51.8700 813.0000 1.0000
51.8800 796.0000 1.0000
51.8900 810.0000 1.0000
51.9000 829.0000 1.0000
51.9100 880.0000 1.0000
51.9200 830.0000 1.0000
51.9300 868.0000 1.0000
51.9400 863.0000 1.0000
51.9500 882.0000 1.0000
51.9600 949.0000 1.0000
51.9700 953.0000 1.0000
51.9800 979.0000 1.0000
51.9900 960.0000 1.0000
52.0000 1031.0000 1.0000
52.0100 1031.0000 1.0000
52.0200 1079.0000 1.0000
52.0300 1080.0000 1.0000
52.0400 1140.0000 1.0000
52.0500 1152.0000 1.0000
52.0600 1146.0000 1.0000
52.0700 1223.0000 1.0000
52.0800 1248.0000 1.0000
52.0900 1337.0000 1.0000
52.1000 1370.0000 1.0000
52.1100 1520.0000 1.0000
52.1200 1526.0000 1.0000
52.1300 1650.0000 1.0000
52.1400 1749.0000 1.0000
52.1500 1847.0000 1.0000
52.1600 1986.0000 1.0000
52.1700 2159.0000 1.0000
52.1800 2179.0000 1.0000
52.1900 2380.0000 1.0000
52.2000 2645.0000 1.0000
52.2100 2879.0000 1.0000
52.2200 3091.0000 1.0000
52.2300 3367.0000 1.0000
52.2400 3510.0000 1.0000
52.2500 3820.0000 1.0000
52.2600 4147.0000 1.0000
52.2700 4393.0000 1.0000
52.2800 4448.0000 1.0000
52.2900 4737.0000 1.0000
52.3000 4769.0000 1.0000
52.3100 4875.0000 1.0000
52.3200 4938.0000 1.0000
52.3300 4720.0000 1.0000
52.3400 4675.0000 1.0000
52.3500 4503.0000 1.0000
52.3600 4282.0000 1.0000
52.3700 4093.0000 1.0000
52.3800 4091.0000 1.0000
52.3900 3936.0000 1.0000
52.4000 3834.0000 1.0000
52.4100 3733.0000 1.0000
52.4200 3655.0000 1.0000
52.4300 3531.0000 1.0000
52.4400 3461.0000 1.0000
52.4500 3336.0000 1.0000
52.4600 3256.0000 1.0000
52.4700 3071.0000 1.0000
52.4800 2915.0000 1.0000
52.4900 2686.0000 1.0000
52.5000 2542.0000 1.0000
52.5100 2308.0000 1.0000
52.5200 2224.0000 1.0000
52.5300 2050.0000 1.0000
52.5400 1975.0000 1.0000
52.5500 1752.0000 1.0000
52.5600 1659.0000 1.0000
52.5700 1590.0000 1.0000
52.5800 1523.0000 1.0000
52.5900 1474.0000 1.0000
52.6000 1434.0000 1.0000
52.6100 1355.0000 1.0000
52.6200 1327.0000 1.0000
52.6300 1279.0000 1.0000
52.6400 1145.0000 1.0000
52.6500 1157.0000 1.0000
52.6600 1120.0000 1.0000
52.6700 1050.0000 1.0000
52.6800 1060.0000 1.0000
52.6900 1017.0000 1.0000
52.7000 1051.0000 1.0000
52.7100 1001.0000 1.0000
52.7200 993.0000 1.0000
52.7300 905.0000 1.0000
52.7400 933.0000 1.0000
52.7500 937.0000 1.0000
52.7600 966.0000 1.0000
52.7700 899.0000 1.0000
52.7800 929.0000 1.0000
52.7900 923.0000 1.0000
52.8000 893.0000 1.0000
52.8100 844.0000 1.0000
52.8200 888.0000 1.0000
52.8300 851.0000 1.0000
52.8400 821.0000 1.0000
52.8500 816.0000 1.0000
52.8600 808.0000 1.0000
52.8700 814.0000 1.0000
52.8800 797.0000 1.0000
52.8900 790.0000 1.0000
52.9000 786.0000 1.0000
52.9100 751.0000 1.0000
52.9200 833.0000 1.0000
52.9300 817.0000 1.0000
52.9400 825.0000 1.0000
52.9500 774.0000 1.0000
52.9600 758.0000 1.0000
52.9700 813.0000 1.0000
52.9800 730.0000 1.0000
52.9900 747.0000 1.0000
53.0000 756.0000 1.0000
53.0100 774.0000 1.0000
53.0200 771.0000 1.0000
53.0300 749.0000 1.0000
53.0400 791.0000 1.0000
53.0500 743.0000 1.0000
53.0600 748.0000 1.0000
53.0700 760.0000 1.0000
53.0800 712.0000 1.0000
53.0900 703.0000 1.0000
53.1000 767.0000 1.0000
53.1100 780.0000 1.0000
53.1200 721.0000 1.0000
53.1300 754.0000 1.0000
53.1400 792.0000 1.0000
53.1500 737.0000 1.0000
53.1600 744.0000 1.0000
53.1700 749.0000 1.0000
53.1800 728.0000 1.0000
53.1900 698.0000 1.0000
53.2000 709.0000 1.0000
53.2100 696.0000 1.0000
53.2200 725.0000 1.0000
53.2300 711.0000 1.0000
53.2400 753.0000 1.0000
53.2500 736.0000 1.0000
53.2600 726.0000 1.0000
53.2700 713.0000 1.0000
53.2800 685.0000 1.0000
53.2900 742.0000 1.0000
53.3000 731.0000 1.0000
53.3100 731.0000 1.0000
53.3200 670.0000 1.0000
53.3300 683.0000 1.0000
53.3400 692.0000 1.0000
53.3500 722.0000 1.0000
53.3600 693.0000 1.0000
53.3700 699.0000 1.0000
53.3800 712.0000 1.0000
53.3900 653.0000 1.0000
53.4000 766.0000 1.0000
53.4100 728.0000 1.0000
53.4200 736.0000 1.0000
53.4300 742.0000 1.0000
53.4400 668.0000 1.0000
53.4500 647.0000 1.0000
53.4600 698.0000 1.0000
53.4700 698.0000 1.0000
53.4800 717.0000 1.0000
53.4900 712.0000 1.0000
53.5000 690.0000 1.0000
53.5100 686.0000 1.0000
53.5200 700.0000 1.0000
53.5300 721.0000 1.0000
53.5400 677.0000 1.0000
53.5500 694.0000 1.0000
53.5600 701.0000 1.0000
53.5700 733.0000 1.0000
53.5800 718.0000 1.0000
53.5900 726.0000 1.0000
53.6000 734.0000 1.0000
53.6100 668.0000 1.0000
53.6200 681.0000 1.0000
53.6300 686.0000 1.0000
53.6400 697.0000 1.0000
53.6500 656.0000 1.0000
53.6600 653.0000 1.0000
53.6700 701.0000 1.0000
53.6800 693.0000 1.0000
53.6900 683.0000 1.0000
53.7000 712.0000 1.0000
53.7100 701.0000 1.0000
53.7200 702.0000 1.0000
53.7300 678.0000 1.0000
53.7400 670.0000 1.0000
53.7500 665.0000 1.0000
53.7600 722.0000 1.0000
53.7700 670.0000 1.0000
53.7800 690.0000 1.0000
53.7900 712.0000 1.0000
53.8000 702.0000 1.0000
53.8100 730.0000 1.0000
53.8200 684.0000 1.0000
53.8300 702.0000 1.0000
53.8400 682.0000 1.0000
53.8500 680.0000 1.0000
53.8600 710.0000 1.0000
53.8700 705.0000 1.0000
53.8800 698.0000 1.0000
53.8900 711.0000 1.0000
53.9000 717.0000 1.0000
53.9100 684.0000 1.0000
53.9200 714.0000 1.0000
53.9300 703.0000 1.0000
53.9400 680.0000 1.0000
53.9500 679.0000 1.0000
53.9600 685.0000 1.0000
53.9700 691.0000 1.0000
53.9800 704.0000 1.0000
53.9900 680.0000 1.0000
54.0000 706.0000 1.0000
54.0100 706.0000 1.0000
54.0200 736.0000 1.0000
54.0300 656.0000 1.0000
54.0400 686.0000 1.0000
54.0500 679.0000 1.0000
54.0600 725.0000 1.0000
54.0700 711.0000 1.0000
54.0800 678.0000 1.0000
54.0900 710.0000 1.0000
54.1000 679.0000 1.0000
54.1100 701.0000 1.0000
54.1200 685.0000 1.0000
54.1300 720.0000 1.0000
54.1400 665.0000 1.0000
54.1500 684.0000 1.0000
54.1600 716.0000 1.0000
54.1700 720.0000 1.0000
54.1800 682.0000 1.0000
54.1900 696.0000 1.0000
54.2000 672.0000 1.0000
54.2100 678.0000 1.0000
54.2200 685.0000 1.0000
54.2300 661.0000 1.0000
54.2400 698.0000 1.0000
54.2500 672.0000 1.0000
54.2600 698.0000 1.0000
54.2700 653.0000 1.0000
54.2800 688.0000 1.0000
54.2900 717.0000 1.0000
54.3000 653.0000 1.0000
54.3100 666.0000 1.0000
54.3200 681.0000 1.0000
54.3300 675.0000 1.0000
54.3400 675.0000 1.0000
54.3500 651.0000 1.0000
54.3600 614.0000 1.0000
54.3700 668.0000 1.0000
54.3800 670.0000 1.0000
54.3900 680.0000 1.0000
54.4000 706.0000 1.0000
54.4100 685.0000 1.0000
54.4200 706.0000 1.0000
54.4300 722.0000 1.0000
54.4400 694.0000 1.0000
54.4500 655.0000 1.0000
54.4600 697.0000 1.0000
54.4700 679.0000 1.0000
54.4800 713.0000 1.0000
54.4900 676.0000 1.0000
54.5000 699.0000 1.0000
54.5100 668.0000 1.0000
54.5200 701.0000 1.0000
54.5300 705.0000 1.0000
54.5400 703.0000 1.0000
54.5500 701.0000 1.0000
54.5600 667.0000 1.0000
54.5700 692.0000 1.0000
54.5800 667.0000 1.0000
54.5900 667.0000 1.0000
54.6000 663.0000 1.0000
54.6100 702.0000 1.0000
54.6200 752.0000 1.0000
54.6300 703.0000 1.0000
54.6400 730.0000 1.0000
54.6500 681.0000 1.0000
54.6600 715.0000 1.0000
54.6700 697.0000 1.0000
54.6800 709.0000 1.0000
54.6900 686.0000 1.0000
54.7000 708.0000 1.0000
54.7100 741.0000 1.0000
54.7200 735.0000 1.0000
54.7300 723.0000 1.0000
54.7400 733.0000 1.0000
54.7500 719.0000 1.0000
54.7600 735.0000 1.0000
54.7700 719.0000 1.0000
54.7800 758.0000 1.0000
54.7900 684.0000 1.0000
54.8000 753.0000 1.0000
54.8100 742.0000 1.0000
54.8200 739.0000 1.0000
54.8300 733.0000 1.0000
54.8400 725.0000 1.0000
54.8500 760.0000 1.0000
54.8600 763.0000 1.0000
54.8700 745.0000 1.0000
54.8800 788.0000 1.0000
54.8900 724.0000 1.0000
54.9000 730.0000 1.0000
54.9100 723.0000 1.0000
54.9200 741.0000 1.0000
54.9300 723.0000 1.0000
54.9400 734.0000 1.0000
54.9500 718.0000 1.0000
54.9600 734.0000 1.0000
54.9700 754.0000 1.0000
54.9800 785.0000 1.0000
54.9900 782.0000 1.0000
55.0000 745.0000 1.0000
55.0100 765.0000 1.0000
55.0200 793.0000 1.0000
55.0300 725.0000 1.0000
55.0400 774.0000 1.0000
55.0500 757.0000 1.0000
55.0600 756.0000 1.0000
55.0700 746.0000 1.0000
55.0800 800.0000 1.0000
55.0900 792.0000 1.0000
55.1000 786.0000 1.0000
55.1100 789.0000 1.0000
55.1200 789.0000 1.0000
55.1300 815.0000 1.0000
55.1400 786.0000 1.0000
55.1500 809.0000 1.0000
55.1600 868.0000 1.0000
55.1700 880.0000 1.0000
55.1800 858.0000 1.0000
55.1900 894.0000 1.0000
55.2000 935.0000 1.0000
55.2100 954.0000 1.0000
55.2200 915.0000 1.0000
55.2300 898.0000 1.0000
55.2400 971.0000 1.0000
55.2500 1010.0000 1.0000
55.2600 1020.0000 1.0000
55.2700 1021.0000 1.0000
55.2800 1060.0000 1.0000
55.2900 1020.0000 1.0000
55.3000 1053.0000 1.0000
55.3100 1021.0000 1.0000
55.3200 1056.0000 1.0000
55.3300 1087.0000 1.0000
55.3400 1082.0000 1.0000
55.3500 981.0000 1.0000
55.3600 1040.0000 1.0000
55.3700 1047.0000 1.0000
55.3800 1022.0000 1.0000
55.3900 1055.0000 1.0000
55.4000 971.0000 1.0000
55.4100 998.0000 1.0000
55.4200 1004.0000 1.0000
55.4300 1005.0000 1.0000
55.4400 948.0000 1.0000
55.4500 956.0000 1.0000
55.4600 945.0000 1.0000
55.4700 944.0000 1.0000
55.4800 904.0000 1.0000
55.4900 903.0000 1.0000
55.5000 903.0000 1.0000
55.5100 907.0000 1.0000
55.5200 888.0000 1.0000
55.5300 857.0000 1.0000
55.5400 878.0000 1.0000
55.5500 833.0000 1.0000
55.5600 815.0000 1.0000
55.5700 813.0000 1.0000
55.5800 813.0000 1.0000
55.5900 798.0000 1.0000
55.6000 826.0000 1.0000
55.6100 786.0000 1.0000
55.6200 791.0000 1.0000
55.6300 779.0000 1.0000
55.6400 813.0000 1.0000
55.6500 764.0000 1.0000
55.6600 778.0000 1.0000
55.6700 780.0000 1.0000
55.6800 765.0000 1.0000
55.6900 756.0000 1.0000
55.7000 719.0000 1.0000
55.7100 741.0000 1.0000
55.7200 731.0000 1.0000
55.7300 737.0000 1.0000
55.7400 683.0000 1.0000
55.7500 702.0000 1.0000
55.7600 716.0000 1.0000
55.7700 722.0000 1.0000
55.7800 692.0000 1.0000
55.7900 669.0000 1.0000
55.8000 691.0000 1.0000
55.8100 750.0000 1.0000
55.8200 708.0000 1.0000
55.8300 685.0000 1.0000
55.8400 694.0000 1.0000
55.8500 668.0000 1.0000
55.8600 682.0000 1.0000
55.8700 679.0000 1.0000
55.8800 686.0000 1.0000
55.8900 709.0000 1.0000
55.9000 669.0000 1.0000
55.9100 697.0000 1.0000
55.9200 727.0000 1.0000
55.9300 742.0000 1.0000
55.9400 689.0000 1.0000
55.9500 660.0000 1.0000
55.9600 691.0000 1.0000
55.9700 681.0000 1.0000
55.9800 729.0000 1.0000
55.9900 692.0000 1.0000
56.0000 660.0000 1.0000
56.0100 702.0000 1.0000
56.0200 675.0000 1.0000
56.0300 675.0000 1.0000
56.0400 671.0000 1.0000
56.0500 670.0000 1.0000
56.0600 684.0000 1.0000
56.0700 653.0000 1.0000
56.0800 717.0000 1.0000
56.0900 676.0000 1.0000
56.1000 619.0000 1.0000
56.1100 671.0000 1.0000
56.1200 683.0000 1.0000
56.1300 666.0000 1.0000
56.1400 703.0000 1.0000
56.1500 650.0000 1.0000
56.1600 699.0000 1.0000
56.1700 715.0000 1.0000
56.1800 675.0000 1.0000
56.1900 691.0000 1.0000
56.2000 690.0000 1.0000
56.2100 709.0000 1.0000
56.2200 645.0000 1.0000
56.2300 655.0000 1.0000
56.2400 616.0000 1.0000
56.2500 633.0000 1.0000
56.2600 665.0000 1.0000
56.2700 661.0000 1.0000
56.2800 654.0000 1.0000
56.2900 649.0000 1.0000
56.3000 676.0000 1.0000
56.3100 654.0000 1.0000
56.3200 678.0000 1.0000
56.3300 711.0000 1.0000
56.3400 642.0000 1.0000
56.3500 691.0000 1.0000
56.3600 663.0000 1.0000
56.3700 660.0000 1.0000
56.3800 674.0000 1.0000
56.3900 672.0000 1.0000
56.4000 725.0000 1.0000
56.4100 661.0000 1.0000
56.4200 673.0000 1.0000
56.4300 689.0000 1.0000
56.4400 719.0000 1.0000
56.4500 687.0000 1.0000
56.4600 679.0000 1.0000
56.4700 645.0000 1.0000
56.4800 660.0000 1.0000
56.4900 667.0000 1.0000
56.5000 673.0000 1.0000
56.5100 689.0000 1.0000
56.5200 692.0000 1.0000
56.5300 646.0000 1.0000
56.5400 678.0000 1.0000
56.5500 659.0000 1.0000
56.5600 607.0000 1.0000
56.5700 674.0000 1.0000
56.5800 673.0000 1.0000
56.5900 631.0000 1.0000
56.6000 689.0000 1.0000
56.6100 647.0000 1.0000
56.6200 661.0000 1.0000
56.6300 667.0000 1.0000
56.6400 675.0000 1.0000
56.6500 673.0000 1.0000
56.6600 657.0000 1.0000
56.6700 647.0000 1.0000
56.6800 709.0000 1.0000
56.6900 674.0000 1.0000
56.7000 684.0000 1.0000
56.7100 712.0000 1.0000
56.7200 687.0000 1.0000
56.7300 693.0000 1.0000
56.7400 666.0000 1.0000
56.7500 674.0000 1.0000
56.7600 630.0000 1.0000
56.7700 604.0000 1.0000
56.7800 642.0000 1.0000
56.7900 645.0000 1.0000
56.8000 684.0000 1.0000
56.8100 668.0000 1.0000
56.8200 696.0000 1.0000
56.8300 666.0000 1.0000
56.8400 684.0000 1.0000
56.8500 604.0000 1.0000
56.8600 661.0000 1.0000
56.8700 640.0000 1.0000
56.8800 684.0000 1.0000
56.8900 683.0000 1.0000
56.9000 662.0000 1.0000
56.9100 641.0000 1.0000
56.9200 667.0000 1.0000
56.9300 694.0000 1.0000
56.9400 656.0000 1.0000
56.9500 655.0000 1.0000
56.9600 648.0000 1.0000
56.9700 685.0000 1.0000
56.9800 694.0000 1.0000
56.9900 656.0000 1.0000
57.0000 652.0000 1.0000
57.0100 678.0000 1.0000
57.0200 653.0000 1.0000
57.0300 634.0000 1.0000
57.0400 668.0000 1.0000
57.0500 682.0000 1.0000
57.0600 686.0000 1.0000
57.0700 709.0000 1.0000
57.0800 661.0000 1.0000
57.0900 656.0000 1.0000
57.1000 680.0000 1.0000
57.1100 666.0000 1.0000
57.1200 685.0000 1.0000
57.1300 640.0000 1.0000
57.1400 642.0000 1.0000
57.1500 650.0000 1.0000
57.1600 643.0000 1.0000
57.1700 620.0000 1.0000
57.1800 635.0000 1.0000
57.1900 657.0000 1.0000
57.2000 598.0000 1.0000
57.2100 648.0000 1.0000
57.2200 618.0000 1.0000
57.2300 689.0000 1.0000
57.2400 722.0000 1.0000
57.2500 650.0000 1.0000
57.2600 657.0000 1.0000
57.2700 633.0000 1.0000
57.2800 640.0000 1.0000
57.2900 659.0000 1.0000
57.3000 650.0000 1.0000
57.3100 673.0000 1.0000
57.3200 639.0000 1.0000
57.3300 622.0000 1.0000
57.3400 654.0000 1.0000
57.3500 649.0000 1.0000
57.3600 669.0000 1.0000
57.3700 626.0000 1.0000
57.3800 660.0000 1.0000
57.3900 660.0000 1.0000
57.4000 643.0000 1.0000
57.4100 605.0000 1.0000
57.4200 671.0000 1.0000
57.4300 676.0000 1.0000
57.4400 679.0000 1.0000
57.4500 682.0000 1.0000
57.4600 624.0000 1.0000
57.4700 631.0000 1.0000
57.4800 637.0000 1.0000
57.4900 656.0000 1.0000
57.5000 672.0000 1.0000
57.5100 644.0000 1.0000
57.5200 631.0000 1.0000
57.5300 625.0000 1.0000
57.5400 630.0000 1.0000
57.5500 641.0000 1.0000
57.5600 634.0000 1.0000
57.5700 665.0000 1.0000
57.5800 631.0000 1.0000
57.5900 621.0000 1.0000
57.6000 618.0000 1.0000
57.6100 592.0000 1.0000
57.6200 647.0000 1.0000
57.6300 649.0000 1.0000
57.6400 661.0000 1.0000
57.6500 672.0000 1.0000
57.6600 658.0000 1.0000
57.6700 694.0000 1.0000
57.6800 649.0000 1.0000
57.6900 669.0000 1.0000
57.7000 643.0000 1.0000
57.7100 649.0000 1.0000
57.7200 626.0000 1.0000
57.7300 613.0000 1.0000
57.7400 632.0000 1.0000
57.7500 663.0000 1.0000
57.7600 632.0000 1.0000
57.7700 631.0000 1.0000
57.7800 621.0000 1.0000
57.7900 631.0000 1.0000
57.8000 635.0000 1.0000
57.8100 623.0000 1.0000
57.8200 676.0000 1.0000
57.8300 653.0000 1.0000
57.8400 664.0000 1.0000
57.8500 678.0000 1.0000
57.8600 646.0000 1.0000
57.8700 660.0000 1.0000
57.8800 658.0000 1.0000
57.8900 679.0000 1.0000
57.9000 657.0000 1.0000
57.9100 650.0000 1.0000
57.9200 694.0000 1.0000
57.9300 686.0000 1.0000
57.9400 688.0000 1.0000
57.9500 659.0000 1.0000
57.9600 653.0000 1.0000
57.9700 657.0000 1.0000
57.9800 657.0000 1.0000
57.9900 709.0000 1.0000
58.0000 659.0000 1.0000
58.0100 656.0000 1.0000
58.0200 663.0000 1.0000
58.0300 668.0000 1.0000
58.0400 617.0000 1.0000
58.0500 657.0000 1.0000
58.0600 652.0000 1.0000
58.0700 700.0000 1.0000
58.0800 676.0000 1.0000
58.0900 672.0000 1.0000
58.1000 688.0000 1.0000
58.1100 649.0000 1.0000
58.1200 697.0000 1.0000
58.1300 668.0000 1.0000
58.1400 679.0000 1.0000
58.1500 652.0000 1.0000
58.1600 680.0000 1.0000
58.1700 694.0000 1.0000
58.1800 688.0000 1.0000
58.1900 686.0000 1.0000
58.2000 686.0000 1.0000
58.2100 682.0000 1.0000
58.2200 695.0000 1.0000
58.2300 661.0000 1.0000
58.2400 669.0000 1.0000
58.2500 715.0000 1.0000
58.2600 708.0000 1.0000
58.2700 709.0000 1.0000
58.2800 711.0000 1.0000
58.2900 701.0000 1.0000
58.3000 659.0000 1.0000
58.3100 703.0000 1.0000
58.3200 702.0000 1.0000
58.3300 735.0000 1.0000
58.3400 682.0000 1.0000
58.3500 648.0000 1.0000
58.3600 681.0000 1.0000
58.3700 700.0000 1.0000
58.3800 670.0000 1.0000
58.3900 679.0000 1.0000
58.4000 681.0000 1.0000
58.4100 648.0000 1.0000
58.4200 667.0000 1.0000
58.4300 657.0000 1.0000
58.4400 648.0000 1.0000
58.4500 687.0000 1.0000
58.4600 682.0000 1.0000
58.4700 648.0000 1.0000
58.4800 668.0000 1.0000
58.4900 666.0000 1.0000
58.5000 649.0000 1.0000
58.5100 670.0000 1.0000
58.5200 655.0000 1.0000
58.5300 685.0000 1.0000
58.5400 681.0000 1.0000
58.5500 679.0000 1.0000
58.5600 705.0000 1.0000
58.5700 686.0000 1.0000
58.5800 685.0000 1.0000
58.5900 722.0000 1.0000
58.6000 658.0000 1.0000
58.6100 664.0000 1.0000
58.6200 697.0000 1.0000
58.6300 700.0000 1.0000
58.6400 669.0000 1.0000
58.6500 671.0000 1.0000
58.6600 651.0000 1.0000
58.6700 657.0000 1.0000
58.6800 654.0000 1.0000
58.6900 622.0000 1.0000
58.7000 675.0000 1.0000
58.7100 640.0000 1.0000
58.7200 628.0000 1.0000
58.7300 633.0000 1.0000
58.7400 679.0000 1.0000
58.7500 659.0000 1.0000
58.7600 670.0000 1.0000
58.7700 645.0000 1.0000
58.7800 667.0000 1.0000
58.7900 632.0000 1.0000
58.8000 633.0000 1.0000
58.8100 681.0000 1.0000
58.8200 636.0000 1.0000
58.8300 702.0000 1.0000
58.8400 670.0000 1.0000
58.8500 608.0000 1.0000
58.8600 708.0000 1.0000
58.8700 661.0000 1.0000
58.8800 665.0000 1.0000
58.8900 631.0000 1.0000
58.9000 648.0000 1.0000
58.9100 638.0000 1.0000
58.9200 634.0000 1.0000
58.9300 654.0000 1.0000
58.9400 606.0000 1.0000
58.9500 686.0000 1.0000
58.9600 671.0000 1.0000
58.9700 691.0000 1.0000
58.9800 622.0000 1.0000
58.9900 614.0000 1.0000
59.0000 616.0000 1.0000
59.0100 652.0000 1.0000
59.0200 654.0000 1.0000
59.0300 644.0000 1.0000
59.0400 654.0000 1.0000
59.0500 682.0000 1.0000
59.0600 662.0000 1.0000
59.0700 664.0000 1.0000
59.0800 679.0000 1.0000
59.0900 663.0000 1.0000
59.1000 632.0000 1.0000
59.1100 618.0000 1.0000
59.1200 641.0000 1.0000
59.1300 668.0000 1.0000
59.1400 620.0000 1.0000
59.1500 645.0000 1.0000
59.1600 648.0000 1.0000
59.1700 668.0000 1.0000
59.1800 661.0000 1.0000
59.1900 664.0000 1.0000
59.2000 649.0000 1.0000
59.2100 597.0000 1.0000
59.2200 646.0000 1.0000
59.2300 675.0000 1.0000
59.2400 642.0000 1.0000
59.2500 675.0000 1.0000
59.2600 693.0000 1.0000
59.2700 682.0000 1.0000
59.2800 667.0000 1.0000
59.2900 649.0000 1.0000
59.3000 650.0000 1.0000
59.3100 684.0000 1.0000
59.3200 714.0000 1.0000
59.3300 673.0000 1.0000
59.3400 672.0000 1.0000
59.3500 665.0000 1.0000
59.3600 630.0000 1.0000
59.3700 728.0000 1.0000
59.3800 716.0000 1.0000
59.3900 617.0000 1.0000
59.4000 670.0000 1.0000
59.4100 633.0000 1.0000
59.4200 658.0000 1.0000
59.4300 732.0000 1.0000
59.4400 612.0000 1.0000
59.4500 673.0000 1.0000
59.4600 661.0000 1.0000
59.4700 663.0000 1.0000
59.4800 658.0000 1.0000
59.4900 689.0000 1.0000
59.5000 659.0000 1.0000
59.5100 714.0000 1.0000
59.5200 667.0000 1.0000
59.5300 607.0000 1.0000
59.5400 665.0000 1.0000
59.5500 654.0000 1.0000
59.5600 675.0000 1.0000
59.5700 744.0000 1.0000
59.5800 642.0000 1.0000
59.5900 643.0000 1.0000
59.6000 622.0000 1.0000
59.6100 666.0000 1.0000
59.6200 668.0000 1.0000
59.6300 629.0000 1.0000
59.6400 691.0000 1.0000
59.6500 665.0000 1.0000
59.6600 607.0000 1.0000
59.6700 702.0000 1.0000
59.6800 703.0000 1.0000
59.6900 651.0000 1.0000
59.7000 619.0000 1.0000
59.7100 626.0000 1.0000
59.7200 631.0000 1.0000
59.7300 636.0000 1.0000
59.7400 686.0000 1.0000
59.7500 647.0000 1.0000
59.7600 654.0000 1.0000
59.7700 653.0000 1.0000
59.7800 651.0000 1.0000
59.7900 654.0000 1.0000
59.8000 647.0000 1.0000
59.8100 630.0000 1.0000
59.8200 651.0000 1.0000
59.8300 636.0000 1.0000
59.8400 646.0000 1.0000
59.8500 662.0000 1.0000
59.8600 651.0000 1.0000
59.8700 648.0000 1.0000
59.8800 675.0000 1.0000
59.8900 646.0000 1.0000
59.9000 650.0000 1.0000
59.9100 671.0000 1.0000
59.9200 638.0000 1.0000
59.9300 695.0000 1.0000
59.9400 619.0000 1.0000
59.9500 661.0000 1.0000
59.9600 661.0000 1.0000
59.9700 649.0000 1.0000
59.9800 667.0000 1.0000
59.9900 622.0000 1.0000
60.0000 644.0000 1.0000
60.0100 631.0000 1.0000
60.0200 673.0000 1.0000
60.0300 642.0000 1.0000
60.0400 626.0000 1.0000
60.0500 635.0000 1.0000
60.0600 657.0000 1.0000
60.0700 678.0000 1.0000
60.0800 643.0000 1.0000
60.0900 638.0000 1.0000
60.1000 645.0000 1.0000
60.1100 652.0000 1.0000
60.1200 635.0000 1.0000
60.1300 644.0000 1.0000
60.1400 686.0000 1.0000
60.1500 675.0000 1.0000
60.1600 658.0000 1.0000
60.1700 665.0000 1.0000
60.1800 587.0000 1.0000
60.1900 644.0000 1.0000
60.2000 641.0000 1.0000
60.2100 682.0000 1.0000
60.2200 691.0000 1.0000
60.2300 624.0000 1.0000
60.2400 652.0000 1.0000
60.2500 617.0000 1.0000
60.2600 690.0000 1.0000
60.2700 694.0000 1.0000
60.2800 653.0000 1.0000
60.2900 637.0000 1.0000
60.3000 669.0000 1.0000
60.3100 663.0000 1.0000
60.3200 654.0000 1.0000
60.3300 672.0000 1.0000
60.3400 670.0000 1.0000
60.3500 644.0000 1.0000
60.3600 639.0000 1.0000
60.3700 607.0000 1.0000
60.3800 655.0000 1.0000
60.3900 685.0000 1.0000
60.4000 657.0000 1.0000
60.4100 644.0000 1.0000
60.4200 654.0000 1.0000
60.4300 667.0000 1.0000
60.4400 657.0000 1.0000
60.4500 659.0000 1.0000
60.4600 607.0000 1.0000
60.4700 658.0000 1.0000
60.4800 640.0000 1.0000
60.4900 620.0000 1.0000
60.5000 649.0000 1.0000
60.5100 628.0000 1.0000
60.5200 634.0000 1.0000
60.5300 632.0000 1.0000
60.5400 676.0000 1.0000
60.5500 639.0000 1.0000
60.5600 698.0000 1.0000
60.5700 644.0000 1.0000
60.5800 648.0000 1.0000
60.5900 610.0000 1.0000
60.6000 643.0000 1.0000
60.6100 641.0000 1.0000
60.6200 616.0000 1.0000
60.6300 625.0000 1.0000
60.6400 671.0000 1.0000
60.6500 675.0000 1.0000
60.6600 699.0000 1.0000
60.6700 633.0000 1.0000
60.6800 672.0000 1.0000
60.6900 632.0000 1.0000
60.7000 632.0000 1.0000
60.7100 715.0000 1.0000
60.7200 689.0000 1.0000
60.7300 650.0000 1.0000
60.7400 664.0000 1.0000
60.7500 636.0000 1.0000
60.7600 636.0000 1.0000
60.7700 617.0000 1.0000
60.7800 657.0000 1.0000
60.7900 652.0000 1.0000
60.8000 625.0000 1.0000
60.8100 646.0000 1.0000
60.8200 668.0000 1.0000
60.8300 641.0000 1.0000
60.8400 670.0000 1.0000
60.8500 650.0000 1.0000
60.8600 680.0000 1.0000
60.8700 646.0000 1.0000
60.8800 645.0000 1.0000
60.8900 677.0000 1.0000
60.9000 639.0000 1.0000
60.9100 642.0000 1.0000
60.9200 640.0000 1.0000
60.9300 604.0000 1.0000
60.9400 657.0000 1.0000
60.9500 662.0000 1.0000
60.9600 687.0000 1.0000
60.9700 675.0000 1.0000
60.9800 655.0000 1.0000
60.9900 654.0000 1.0000
61.0000 651.0000 1.0000
61.0100 626.0000 1.0000
61.0200 682.0000 1.0000
61.0300 705.0000 1.0000
61.0400 633.0000 1.0000
61.0500 666.0000 1.0000
61.0600 649.0000 1.0000
61.0700 647.0000 1.0000
61.0800 642.0000 1.0000
61.0900 631.0000 1.0000
61.1000 616.0000 1.0000
61.1100 635.0000 1.0000
61.1200 632.0000 1.0000
61.1300 637.0000 1.0000
61.1400 654.0000 1.0000
61.1500 663.0000 1.0000
61.1600 629.0000 1.0000
61.1700 632.0000 1.0000
61.1800 646.0000 1.0000
61.1900 653.0000 1.0000
61.2000 676.0000 1.0000
61.2100 632.0000 1.0000
61.2200 650.0000 1.0000
61.2300 627.0000 1.0000
61.2400 666.0000 1.0000
61.2500 684.0000 1.0000
61.2600 644.0000 1.0000
61.2700 662.0000 1.0000
61.2800 673.0000 1.0000
61.2900 675.0000 1.0000
61.3000 643.0000 1.0000
61.3100 627.0000 1.0000
61.3200 641.0000 1.0000
61.3300 697.0000 1.0000
61.3400 657.0000 1.0000
61.3500 638.0000 1.0000
61.3600 633.0000 1.0000
61.3700 683.0000 1.0000
61.3800 651.0000 1.0000
61.3900 616.0000 1.0000
61.4000 705.0000 1.0000
61.4100 626.0000 1.0000
61.4200 647.0000 1.0000
61.4300 706.0000 1.0000
61.4400 655.0000 1.0000
61.4500 662.0000 1.0000
61.4600 669.0000 1.0000
61.4700 677.0000 1.0000
61.4800 658.0000 1.0000
61.4900 659.0000 1.0000
61.5000 665.0000 1.0000
61.5100 686.0000 1.0000
61.5200 671.0000 1.0000
61.5300 667.0000 1.0000
61.5400 672.0000 1.0000
61.5500 647.0000 1.0000
61.5600 688.0000 1.0000
61.5700 670.0000 1.0000
61.5800 680.0000 1.0000
61.5900 702.0000 1.0000
61.6000 685.0000 1.0000
61.6100 669.0000 1.0000
61.6200 678.0000 1.0000
61.6300 723.0000 1.0000
61.6400 673.0000 1.0000
61.6500 652.0000 1.0000
61.6600 666.0000 1.0000
61.6700 677.0000 1.0000
61.6800 655.0000 1.0000
61.6900 710.0000 1.0000
61.7000 760.0000 1.0000
61.7100 712.0000 1.0000
61.7200 712.0000 1.0000
61.7300 693.0000 1.0000
61.7400 726.0000 1.0000
61.7500 707.0000 1.0000
61.7600 667.0000 1.0000
61.7700 701.0000 1.0000
61.7800 702.0000 1.0000
61.7900 726.0000 1.0000
61.8000 695.0000 1.0000
61.8100 659.0000 1.0000
61.8200 711.0000 1.0000
61.8300 742.0000 1.0000
61.8400 693.0000 1.0000
61.8500 726.0000 1.0000
61.8600 714.0000 1.0000
61.8700 756.0000 1.0000
61.8800 727.0000 1.0000
61.8900 725.0000 1.0000
61.9000 761.0000 1.0000
61.9100 712.0000 1.0000
61.9200 736.0000 1.0000
61.9300 738.0000 1.0000
61.9400 776.0000 1.0000
61.9500 794.0000 1.0000
61.9600 764.0000 1.0000
61.9700 758.0000 1.0000
61.9800 813.0000 1.0000
61.9900 807.0000 1.0000
62.0000 804.0000 1.0000
62.0100 822.0000 1.0000
62.0200 829.0000 1.0000
62.0300 820.0000 1.0000
62.0400 878.0000 1.0000
62.0500 858.0000 1.0000
62.0600 903.0000 1.0000
62.0700 859.0000 1.0000
62.0800 888.0000 1.0000
62.0900 925.0000 1.0000
62.1000 945.0000 1.0000
62.1100 986.0000 1.0000
62.1200 975.0000 1.0000
62.1300 1039.0000 1.0000
62.1400 1048.0000 1.0000
62.1500 1085.0000 1.0000
62.1600 1117.0000 1.0000
62.1700 1163.0000 1.0000
62.1800 1182.0000 1.0000
62.1900 1184.0000 1.0000
62.2000 1229.0000 1.0000
62.2100 1253.0000 1.0000
62.2200 1332.0000 1.0000
62.2300 1369.0000 1.0000
62.2400 1353.0000 1.0000
62.2500 1435.0000 1.0000
62.2600 1434.0000 1.0000
62.2700 1552.0000 1.0000
62.2800 1538.0000 1.0000
62.2900 1518.0000 1.0000
62.3000 1568.0000 1.0000
62.3100 1573.0000 1.0000
62.3200 1559.0000 1.0000
62.3300 1545.0000 1.0000
62.3400 1578.0000 1.0000
62.3500 1550.0000 1.0000
62.3600 1514.0000 1.0000
62.3700 1641.0000 1.0000
62.3800 1611.0000 1.0000
62.3900 1589.0000 1.0000
62.4000 1590.0000 1.0000
62.4100 1490.0000 1.0000
62.4200 1519.0000 1.0000
62.4300 1489.0000 1.0000
62.4400 1510.0000 1.0000
62.4500 1459.0000 1.0000
62.4600 1491.0000 1.0000
62.4700 1449.0000 1.0000
62.4800 1428.0000 1.0000
62.4900 1360.0000 1.0000
62.5000 1402.0000 1.0000
62.5100 1345.0000 1.0000
62.5200 1294.0000 1.0000
62.5300 1312.0000 1.0000
62.5400 1344.0000 1.0000
62.5500 1230.0000 1.0000
62.5600 1225.0000 1.0000
62.5700 1143.0000 1.0000
62.5800 1189.0000 1.0000
62.5900 1206.0000 1.0000
62.6000 1098.0000 1.0000
62.6100 1152.0000 1.0000
62.6200 1107.0000 1.0000
62.6300 1023.0000 1.0000
62.6400 1077.0000 1.0000
62.6500 1050.0000 1.0000
62.6600 1018.0000 1.0000
62.6700 981.0000 1.0000
62.6800 982.0000 1.0000
62.6900 910.0000 1.0000
62.7000 950.0000 1.0000
62.7100 971.0000 1.0000
62.7200 908.0000 1.0000
62.7300 869.0000 1.0000
62.7400 849.0000 1.0000
62.7500 859.0000 1.0000
62.7600 871.0000 1.0000
62.7700 885.0000 1.0000
62.7800 862.0000 1.0000
62.7900 820.0000 1.0000
62.8000 818.0000 1.0000
62.8100 802.0000 1.0000
62.8200 810.0000 1.0000
62.8300 786.0000 1.0000
62.8400 789.0000 1.0000
62.8500 790.0000 1.0000
62.8600 776.0000 1.0000
62.8700 775.0000 1.0000
62.8800 759.0000 1.0000
62.8900 769.0000 1.0000
62.9000 750.0000 1.0000
62.9100 712.0000 1.0000
62.9200 708.0000 1.0000
62.9300 798.0000 1.0000
62.9400 753.0000 1.0000
62.9500 721.0000 1.0000
62.9600 764.0000 1.0000
62.9700 757.0000 1.0000
62.9800 723.0000 1.0000
62.9900 730.0000 1.0000
63.0000 731.0000 1.0000
63.0100 725.0000 1.0000
63.0200 694.0000 1.0000
63.0300 734.0000 1.0000
63.0400 697.0000 1.0000
63.0500 719.0000 1.0000
63.0600 702.0000 1.0000
63.0700 727.0000 1.0000
63.0800 727.0000 1.0000
63.0900 687.0000 1.0000
63.1000 755.0000 1.0000
63.1100 758.0000 1.0000
63.1200 747.0000 1.0000
63.1300 693.0000 1.0000
63.1400 715.0000 1.0000
63.1500 728.0000 1.0000
63.1600 723.0000 1.0000
63.1700 704.0000 1.0000
63.1800 740.0000 1.0000
63.1900 707.0000 1.0000
63.2000 708.0000 1.0000
63.2100 712.0000 1.0000
63.2200 693.0000 1.0000
63.2300 758.0000 1.0000
63.2400 707.0000 1.0000
63.2500 678.0000 1.0000
63.2600 671.0000 1.0000
63.2700 653.0000 1.0000
63.2800 699.0000 1.0000
63.2900 695.0000 1.0000
63.3000 719.0000 1.0000
63.3100 719.0000 1.0000
63.3200 709.0000 1.0000
63.3300 703.0000 1.0000
63.3400 666.0000 1.0000
63.3500 668.0000 1.0000
63.3600 708.0000 1.0000
63.3700 693.0000 1.0000
63.3800 650.0000 1.0000
63.3900 695.0000 1.0000
63.4000 675.0000 1.0000
63.4100 684.0000 1.0000
63.4200 688.0000 1.0000
63.4300 676.0000 1.0000
63.4400 676.0000 1.0000
63.4500 682.0000 1.0000
63.4600 662.0000 1.0000
63.4700 649.0000 1.0000
63.4800 665.0000 1.0000
63.4900 673.0000 1.0000
63.5000 672.0000 1.0000
63.5100 648.0000 1.0000
63.5200 663.0000 1.0000
63.5300 687.0000 1.0000
63.5400 630.0000 1.0000
63.5500 644.0000 1.0000
63.5600 660.0000 1.0000
63.5700 665.0000 1.0000
63.5800 651.0000 1.0000
63.5900 673.0000 1.0000
63.6000 624.0000 1.0000
63.6100 662.0000 1.0000
63.6200 679.0000 1.0000
63.6300 666.0000 1.0000
63.6400 649.0000 1.0000
63.6500 649.0000 1.0000
63.6600 652.0000 1.0000
63.6700 680.0000 1.0000
63.6800 619.0000 1.0000
63.6900 638.0000 1.0000
63.7000 619.0000 1.0000
63.7100 672.0000 1.0000
63.7200 660.0000 1.0000
63.7300 648.0000 1.0000
63.7400 688.0000 1.0000
63.7500 702.0000 1.0000
63.7600 646.0000 1.0000
63.7700 674.0000 1.0000
63.7800 693.0000 1.0000
63.7900 664.0000 1.0000
63.8000 681.0000 1.0000
63.8100 621.0000 1.0000
63.8200 633.0000 1.0000
63.8300 652.0000 1.0000
63.8400 646.0000 1.0000
63.8500 628.0000 1.0000
63.8600 685.0000 1.0000
63.8700 657.0000 1.0000
63.8800 643.0000 1.0000
63.8900 679.0000 1.0000
63.9000 683.0000 1.0000
63.9100 626.0000 1.0000
63.9200 660.0000 1.0000
63.9300 669.0000 1.0000
63.9400 678.0000 1.0000
63.9500 676.0000 1.0000
63.9600 657.0000 1.0000
63.9700 657.0000 1.0000
63.9800 678.0000 1.0000
63.9900 677.0000 1.0000
64.0000 665.0000 1.0000
64.0100 714.0000 1.0000
64.0200 665.0000 1.0000
64.0300 658.0000 1.0000
64.0400 643.0000 1.0000
64.0500 640.0000 1.0000
64.0600 657.0000 1.0000
64.0700 635.0000 1.0000
64.0800 615.0000 1.0000
64.0900 663.0000 1.0000
64.1000 657.0000 1.0000
64.1100 678.0000 1.0000
64.1200 659.0000 1.0000
64.1300 639.0000 1.0000
64.1400 671.0000 1.0000
64.1500 656.0000 1.0000
64.1600 707.0000 1.0000
64.1700 677.0000 1.0000
64.1800 628.0000 1.0000
64.1900 688.0000 1.0000
64.2000 709.0000 1.0000
64.2100 693.0000 1.0000
64.2200 665.0000 1.0000
64.2300 643.0000 1.0000
64.2400 667.0000 1.0000
64.2500 642.0000 1.0000
64.2600 648.0000 1.0000
64.2700 675.0000 1.0000
64.2800 676.0000 1.0000
64.2900 631.0000 1.0000
64.3000 646.0000 1.0000
64.3100 647.0000 1.0000
64.3200 652.0000 1.0000
64.3300 636.0000 1.0000
64.3400 652.0000 1.0000
64.3500 666.0000 1.0000
64.3600 652.0000 1.0000
64.3700 667.0000 1.0000
64.3800 653.0000 1.0000
64.3900 666.0000 1.0000
64.4000 700.0000 1.0000
64.4100 643.0000 1.0000
64.4200 664.0000 1.0000
64.4300 716.0000 1.0000
64.4400 661.0000 1.0000
64.4500 684.0000 1.0000
64.4600 681.0000 1.0000
64.4700 654.0000 1.0000
64.4800 733.0000 1.0000
64.4900 672.0000 1.0000
64.5000 650.0000 1.0000
64.5100 658.0000 1.0000
64.5200 677.0000 1.0000
64.5300 654.0000 1.0000
64.5400 700.0000 1.0000
64.5500 707.0000 1.0000
64.5600 708.0000 1.0000
64.5700 738.0000 1.0000
64.5800 723.0000 1.0000
64.5900 739.0000 1.0000
64.6000 737.0000 1.0000
64.6100 762.0000 1.0000
64.6200 793.0000 1.0000
64.6300 818.0000 1.0000
64.6400 778.0000 1.0000
64.6500 780.0000 1.0000
64.6600 821.0000 1.0000
64.6700 816.0000 1.0000
64.6800 902.0000 1.0000
64.6900 888.0000 1.0000
64.7000 871.0000 1.0000
64.7100 928.0000 1.0000
64.7200 896.0000 1.0000
64.7300 887.0000 1.0000
64.7400 858.0000 1.0000
64.7500 821.0000 1.0000
64.7600 812.0000 1.0000
64.7700 824.0000 1.0000
64.7800 797.0000 1.0000
64.7900 855.0000 1.0000
64.8000 808.0000 1.0000
64.8100 786.0000 1.0000
64.8200 830.0000 1.0000
64.8300 813.0000 1.0000
64.8400 814.0000 1.0000
64.8500 787.0000 1.0000
64.8600 768.0000 1.0000
64.8700 827.0000 1.0000
64.8800 812.0000 1.0000
64.8900 771.0000 1.0000
64.9000 802.0000 1.0000
64.9100 790.0000 1.0000
64.9200 841.0000 1.0000
64.9300 789.0000 1.0000
64.9400 788.0000 1.0000
64.9500 796.0000 1.0000
64.9600 780.0000 1.0000
64.9700 717.0000 1.0000
64.9800 721.0000 1.0000
64.9900 711.0000 1.0000
65.0000 737.0000 1.0000
65.0100 728.0000 1.0000
65.0200 720.0000 1.0000
65.0300 728.0000 1.0000
65.0400 697.0000 1.0000
65.0500 729.0000 1.0000
65.0600 734.0000 1.0000
65.0700 727.0000 1.0000
65.0800 705.0000 1.0000
65.0900 697.0000 1.0000
65.1000 661.0000 1.0000
65.1100 714.0000 1.0000
65.1200 701.0000 1.0000
65.1300 678.0000 1.0000
65.1400 707.0000 1.0000
65.1500 681.0000 1.0000
65.1600 686.0000 1.0000
65.1700 675.0000 1.0000
65.1800 668.0000 1.0000
65.1900 710.0000 1.0000
65.2000 648.0000 1.0000
65.2100 671.0000 1.0000
65.2200 682.0000 1.0000
65.2300 707.0000 1.0000
65.2400 707.0000 1.0000
65.2500 703.0000 1.0000
65.2600 697.0000 1.0000
65.2700 680.0000 1.0000
65.2800 669.0000 1.0000
65.2900 715.0000 1.0000
65.3000 644.0000 1.0000
65.3100 678.0000 1.0000
65.3200 693.0000 1.0000
65.3300 660.0000 1.0000
65.3400 648.0000 1.0000
65.3500 658.0000 1.0000
65.3600 706.0000 1.0000
65.3700 696.0000 1.0000
65.3800 721.0000 1.0000
65.3900 651.0000 1.0000
65.4000 677.0000 1.0000
65.4100 694.0000 1.0000
65.4200 681.0000 1.0000
65.4300 680.0000 1.0000
65.4400 678.0000 1.0000
65.4500 676.0000 1.0000
65.4600 704.0000 1.0000
65.4700 720.0000 1.0000
65.4800 672.0000 1.0000
65.4900 646.0000 1.0000
65.5000 671.0000 1.0000
65.5100 658.0000 1.0000
65.5200 670.0000 1.0000
65.5300 683.0000 1.0000
65.5400 716.0000 1.0000
65.5500 694.0000 1.0000
65.5600 657.0000 1.0000
65.5700 704.0000 1.0000
65.5800 694.0000 1.0000
65.5900 687.0000 1.0000
65.6000 748.0000 1.0000
65.6100 684.0000 1.0000
65.6200 694.0000 1.0000
65.6300 675.0000 1.0000
65.6400 698.0000 1.0000
65.6500 664.0000 1.0000
65.6600 671.0000 1.0000
65.6700 682.0000 1.0000
65.6800 729.0000 1.0000
65.6900 691.0000 1.0000
65.7000 698.0000 1.0000
65.7100 766.0000 1.0000
65.7200 702.0000 1.0000
65.7300 740.0000 1.0000
65.7400 714.0000 1.0000
65.7500 736.0000 1.0000
65.7600 696.0000 1.0000
65.7700 701.0000 1.0000
65.7800 754.0000 1.0000
65.7900 720.0000 1.0000
65.8000 729.0000 1.0000
65.8100 764.0000 1.0000
65.8200 783.0000 1.0000
65.8300 744.0000 1.0000
65.8400 768.0000 1.0000
65.8500 775.0000 1.0000
65.8600 732.0000 1.0000
65.8700 756.0000 1.0000
65.8800 782.0000 1.0000
65.8900 783.0000 1.0000
65.9000 777.0000 1.0000
65.9100 786.0000 1.0000
65.9200 821.0000 1.0000
65.9300 831.0000 1.0000
65.9400 870.0000 1.0000
65.9500 863.0000 1.0000
65.9600 859.0000 1.0000
65.9700 883.0000 1.0000
65.9800 917.0000 1.0000
65.9900 884.0000 1.0000
66.0000 887.0000 1.0000
66.0100 927.0000 1.0000
66.0200 956.0000 1.0000
66.0300 985.0000 1.0000
66.0400 1033.0000 1.0000
66.0500 1110.0000 1.0000
66.0600 1065.0000 1.0000
66.0700 1105.0000 1.0000
66.0800 1146.0000 1.0000
66.0900 1207.0000 1.0000
66.1000 1243.0000 1.0000
66.1100 1287.0000 1.0000
66.1200 1361.0000 1.0000
66.1300 1402.0000 1.0000
66.1400 1472.0000 1.0000
66.1500 1468.0000 1.0000
66.1600 1593.0000 1.0000
66.1700 1664.0000 1.0000
66.1800 1716.0000 1.0000
66.1900 1776.0000 1.0000
66.2000 1939.0000 1.0000
66.2100 1967.0000 1.0000
66.2200 2111.0000 1.0000
66.2300 2238.0000 1.0000
66.2400 2427.0000 1.0000
66.2500 2518.0000 1.0000
66.2600 2553.0000 1.0000
66.2700 2543.0000 1.0000
66.2800 2656.0000 1.0000
66.2900 2670.0000 1.0000
66.3000 2654.0000 1.0000
66.3100 2574.0000 1.0000
66.3200 2591.0000 1.0000
66.3300 2617.0000 1.0000
66.3400 2598.0000 1.0000
66.3500 2530.0000 1.0000
66.3600 2412.0000 1.0000
66.3700 2376.0000 1.0000
66.3800 2386.0000 1.0000
66.3900 2386.0000 1.0000
66.4000 2343.0000 1.0000
66.4100 2250.0000 1.0000
66.4200 2241.0000 1.0000
66.4300 2247.0000 1.0000
66.4400 2143.0000 1.0000
66.4500 2119.0000 1.0000
66.4600 2127.0000 1.0000
66.4700 2087.0000 1.0000
66.4800 2062.0000 1.0000
66.4900 2024.0000 1.0000
66.5000 1978.0000 1.0000
66.5100 1890.0000 1.0000
66.5200 1749.0000 1.0000
66.5300 1687.0000 1.0000
66.5400 1639.0000 1.0000
66.5500 1613.0000 1.0000
66.5600 1535.0000 1.0000
66.5700 1509.0000 1.0000
66.5800 1392.0000 1.0000
66.5900 1379.0000 1.0000
66.6000 1276.0000 1.0000
66.6100 1257.0000 1.0000
66.6200 1199.0000 1.0000
66.6300 1211.0000 1.0000
66.6400 1180.0000 1.0000
66.6500 1128.0000 1.0000
66.6600 1143.0000 1.0000
66.6700 1068.0000 1.0000
66.6800 1021.0000 1.0000
66.6900 999.0000 1.0000
66.7000 970.0000 1.0000
66.7100 965.0000 1.0000
66.7200 919.0000 1.0000
66.7300 896.0000 1.0000
66.7400 908.0000 1.0000
66.7500 823.0000 1.0000
66.7600 865.0000 1.0000
66.7700 874.0000 1.0000
66.7800 818.0000 1.0000
66.7900 804.0000 1.0000
66.8000 794.0000 1.0000
66.8100 826.0000 1.0000
66.8200 762.0000 1.0000
66.8300 797.0000 1.0000
66.8400 781.0000 1.0000
66.8500 776.0000 1.0000
66.8600 786.0000 1.0000
66.8700 741.0000 1.0000
66.8800 779.0000 1.0000
66.8900 751.0000 1.0000
66.9000 741.0000 1.0000
66.9100 743.0000 1.0000
66.9200 722.0000 1.0000
66.9300 710.0000 1.0000
66.9400 694.0000 1.0000
66.9500 677.0000 1.0000
66.9600 676.0000 1.0000
66.9700 714.0000 1.0000
66.9800 700.0000 1.0000
66.9900 673.0000 1.0000
67.0000 662.0000 1.0000
67.0100 721.0000 1.0000
67.0200 749.0000 1.0000
67.0300 686.0000 1.0000
67.0400 691.0000 1.0000
67.0500 661.0000 1.0000
67.0600 658.0000 1.0000
67.0700 686.0000 1.0000
67.0800 675.0000 1.0000
67.0900 609.0000 1.0000
67.1000 679.0000 1.0000
67.1100 678.0000 1.0000
67.1200 687.0000 1.0000
67.1300 627.0000 1.0000
67.1400 624.0000 1.0000
67.1500 655.0000 1.0000
67.1600 673.0000 1.0000
67.1700 662.0000 1.0000
67.1800 677.0000 1.0000
67.1900 649.0000 1.0000
67.2000 628.0000 1.0000
67.2100 613.0000 1.0000
67.2200 634.0000 1.0000
67.2300 643.0000 1.0000
67.2400 641.0000 1.0000
67.2500 630.0000 1.0000
67.2600 617.0000 1.0000
67.2700 645.0000 1.0000
67.2800 603.0000 1.0000
67.2900 640.0000 1.0000
67.3000 665.0000 1.0000
67.3100 651.0000 1.0000
67.3200 598.0000 1.0000
67.3300 641.0000 1.0000
67.3400 625.0000 1.0000
67.3500 635.0000 1.0000
67.3600 610.0000 1.0000
67.3700 619.0000 1.0000
67.3800 594.0000 1.0000
67.3900 612.0000 1.0000
67.4000 595.0000 1.0000
67.4100 621.0000 1.0000
67.4200 623.0000 1.0000
67.4300 585.0000 1.0000
67.4400 607.0000 1.0000
67.4500 627.0000 1.0000
67.4600 634.0000 1.0000
67.4700 603.0000 1.0000
67.4800 641.0000 1.0000
67.4900 610.0000 1.0000
67.5000 662.0000 1.0000
67.5100 597.0000 1.0000
67.5200 615.0000 1.0000
67.5300 625.0000 1.0000
67.5400 616.0000 1.0000
67.5500 614.0000 1.0000
67.5600 608.0000 1.0000
67.5700 610.0000 1.0000
67.5800 629.0000 1.0000
67.5900 605.0000 1.0000
67.6000 604.0000 1.0000
67.6100 635.0000 1.0000
67.6200 644.0000 1.0000
67.6300 627.0000 1.0000
67.6400 610.0000 1.0000
67.6500 600.0000 1.0000
67.6600 653.0000 1.0000
67.6700 609.0000 1.0000
67.6800 601.0000 1.0000
67.6900 568.0000 1.0000
67.7000 583.0000 1.0000
67.7100 607.0000 1.0000
67.7200 606.0000 1.0000
67.7300 675.0000 1.0000
67.7400 645.0000 1.0000
67.7500 584.0000 1.0000
67.7600 604.0000 1.0000
67.7700 626.0000 1.0000
67.7800 625.0000 1.0000
67.7900 586.0000 1.0000
67.8000 589.0000 1.0000
67.8100 606.0000 1.0000
67.8200 651.0000 1.0000
67.8300 577.0000 1.0000
67.8400 625.0000 1.0000
67.8500 599.0000 1.0000
67.8600 582.0000 1.0000
67.8700 606.0000 1.0000
67.8800 609.0000 1.0000
67.8900 639.0000 1.0000
67.9000 605.0000 1.0000
67.9100 550.0000 1.0000
67.9200 596.0000 1.0000
67.9300 583.0000 1.0000
67.9400 617.0000 1.0000
67.9500 652.0000 1.0000
67.9600 641.0000 1.0000
67.9700 606.0000 1.0000
67.9800 600.0000 1.0000
67.9900 614.0000 1.0000
68.0000 593.0000 1.0000
68.0100 597.0000 1.0000
68.0200 571.0000 1.0000
68.0300 603.0000 1.0000
68.0400 596.0000 1.0000
68.0500 581.0000 1.0000
68.0600 618.0000 1.0000
68.0700 571.0000 1.0000
68.0800 584.0000 1.0000
68.0900 609.0000 1.0000
68.1000 614.0000 1.0000
68.1100 587.0000 1.0000
68.1200 582.0000 1.0000
68.1300 574.0000 1.0000
68.1400 572.0000 1.0000
68.1500 560.0000 1.0000
68.1600 608.0000 1.0000
68.1700 589.0000 1.0000
68.1800 630.0000 1.0000
68.1900 588.0000 1.0000
68.2000 586.0000 1.0000
68.2100 581.0000 1.0000
68.2200 619.0000 1.0000
68.2300 598.0000 1.0000
68.2400 590.0000 1.0000
68.2500 586.0000 1.0000
68.2600 571.0000 1.0000
68.2700 595.0000 1.0000
68.2800 560.0000 1.0000
68.2900 586.0000 1.0000
68.3000 561.0000 1.0000
68.3100 595.0000 1.0000
68.3200 555.0000 1.0000
68.3300 585.0000 1.0000
68.3400 580.0000 1.0000
68.3500 590.0000 1.0000
68.3600 590.0000 1.0000
68.3700 614.0000 1.0000
68.3800 613.0000 1.0000
68.3900 598.0000 1.0000
68.4000 590.0000 1.0000
68.4100 626.0000 1.0000
68.4200 601.0000 1.0000
68.4300 579.0000 1.0000
68.4400 633.0000 1.0000
68.4500 610.0000 1.0000
68.4600 607.0000 1.0000
68.4700 561.0000 1.0000
68.4800 570.0000 1.0000
68.4900 605.0000 1.0000
68.5000 589.0000 1.0000
68.5100 581.0000 1.0000
68.5200 550.0000 1.0000
68.5300 578.0000 1.0000
68.5400 575.0000 1.0000
68.5500 584.0000 1.0000
68.5600 629.0000 1.0000
68.5700 621.0000 1.0000
68.5800 576.0000 1.0000
68.5900 582.0000 1.0000
68.6000 582.0000 1.0000
68.6100 618.0000 1.0000
68.6200 571.0000 1.0000
68.6300 582.0000 1.0000
68.6400 591.0000 1.0000
68.6500 626.0000 1.0000
68.6600 581.0000 1.0000
68.6700 600.0000 1.0000
68.6800 571.0000 1.0000
68.6900 598.0000 1.0000
68.7000 597.0000 1.0000
68.7100 609.0000 1.0000
68.7200 560.0000 1.0000
68.7300 579.0000 1.0000
68.7400 591.0000 1.0000
68.7500 564.0000 1.0000
68.7600 558.0000 1.0000
68.7700 593.0000 1.0000
68.7800 592.0000 1.0000
68.7900 585.0000 1.0000
68.8000 585.0000 1.0000
68.8100 584.0000 1.0000
68.8200 578.0000 1.0000
68.8300 595.0000 1.0000
68.8400 585.0000 1.0000
68.8500 592.0000 1.0000
68.8600 576.0000 1.0000
68.8700 607.0000 1.0000
68.8800 570.0000 1.0000
68.8900 550.0000 1.0000
68.9000 570.0000 1.0000
68.9100 592.0000 1.0000
68.9200 570.0000 1.0000
68.9300 590.0000 1.0000
68.9400 566.0000 1.0000
68.9500 574.0000 1.0000
68.9600 612.0000 1.0000
68.9700 577.0000 1.0000
68.9800 553.0000 1.0000
68.9900 574.0000 1.0000
69.0000 552.0000 1.0000
69.0100 538.0000 1.0000
69.0200 586.0000 1.0000
69.0300 567.0000 1.0000
69.0400 577.0000 1.0000
69.0500 599.0000 1.0000
69.0600 539.0000 1.0000
69.0700 590.0000 1.0000
69.0800 585.0000 1.0000
69.0900 589.0000 1.0000
69.1000 558.0000 1.0000
69.1100 584.0000 1.0000
69.1200 586.0000 1.0000
69.1300 561.0000 1.0000
69.1400 578.0000 1.0000
69.1500 571.0000 1.0000
69.1600 566.0000 1.0000
69.1700 595.0000 1.0000
69.1800 569.0000 1.0000
69.1900 570.0000 1.0000
69.2000 570.0000 1.0000
69.2100 555.0000 1.0000
69.2200 573.0000 1.0000
69.2300 567.0000 1.0000
69.2400 561.0000 1.0000
69.2500 562.0000 1.0000
69.2600 548.0000 1.0000
69.2700 548.0000 1.0000
69.2800 527.0000 1.0000
69.2900 574.0000 1.0000
69.3000 558.0000 1.0000
69.3100 553.0000 1.0000
69.3200 549.0000 1.0000
69.3300 589.0000 1.0000
69.3400 598.0000 1.0000
69.3500 591.0000 1.0000
69.3600 593.0000 1.0000
69.3700 602.0000 1.0000
69.3800 601.0000 1.0000
69.3900 572.0000 1.0000
69.4000 597.0000 1.0000
69.4100 552.0000 1.0000
69.4200 600.0000 1.0000
69.4300 585.0000 1.0000
69.4400 564.0000 1.0000
69.4500 569.0000 1.0000
69.4600 570.0000 1.0000
69.4700 561.0000 1.0000
69.4800 573.0000 1.0000
69.4900 601.0000 1.0000
69.5000 581.0000 1.0000
69.5100 582.0000 1.0000
69.5200 579.0000 1.0000
69.5300 559.0000 1.0000
69.5400 521.0000 1.0000
69.5500 587.0000 1.0000
69.5600 575.0000 1.0000
69.5700 569.0000 1.0000
69.5800 643.0000 1.0000
69.5900 583.0000 1.0000
69.6000 583.0000 1.0000
69.6100 573.0000 1.0000
69.6200 576.0000 1.0000
69.6300 576.0000 1.0000
69.6400 601.0000 1.0000
69.6500 600.0000 1.0000
69.6600 586.0000 1.0000
69.6700 531.0000 1.0000
69.6800 551.0000 1.0000
69.6900 538.0000 1.0000
69.7000 605.0000 1.0000
69.7100 571.0000 1.0000
69.7200 554.0000 1.0000
69.7300 598.0000 1.0000
69.7400 594.0000 1.0000
69.7500 560.0000 1.0000
69.7600 576.0000 1.0000
69.7700 577.0000 1.0000
69.7800 570.0000 1.0000
69.7900 607.0000 1.0000
69.8000 612.0000 1.0000
69.8100 560.0000 1.0000
69.8200 521.0000 1.0000
69.8300 592.0000 1.0000
69.8400 597.0000 1.0000
69.8500 581.0000 1.0000
69.8600 594.0000 1.0000
69.8700 573.0000 1.0000
69.8800 571.0000 1.0000
69.8900 548.0000 1.0000
69.9000 543.0000 1.0000
69.9100 564.0000 1.0000
69.9200 561.0000 1.0000
69.9300 569.0000 1.0000
69.9400 577.0000 1.0000
69.9500 537.0000 1.0000
69.9600 540.0000 1.0000
69.9700 554.0000 1.0000
69.9800 578.0000 1.0000
69.9900 565.0000 1.0000
70.0000 550.0000 1.0000
*RAS_INT_END
*RAS_TEMPERATURE_START
*RAS_TEMPERATURE_END
*RAS_DATA_END
