*RAS_DATA_START
*RAS_HEADER_START
*DISP_FMT_X "%.2f"
*DISP_FMT_Y "%.0f"
*DISP_FULLSCALE "15140.0000000000"
*DISP_LINE_COLOR "255.0000000000"
*DISP_LINE_STYLE "0.0000000000"
*DISP_LINE_WIDTH "0.2500000000"
*DISP_NOTE "測定データ-5"
*DISP_OFFSET_Y "0.0000000000"
*DISP_PEAKSEARCH_UNIT_Y "cps"
*DISP_RANGE_BOTTOM "0.0000000000"
*DISP_RANGE_LEFT "20.0000000000"
*DISP_RANGE_LOGCUTOFF "0.0100000000"
*DISP_RANGE_RIGHT "70.0000000000"
*DISP_RANGE_TOP "15140.0000000000"
*DISP_SCALE_MODE_Y "0.0000000000"
*DISP_TAB_NAME "2θ/θ"
*DISP_TITLE_Y "強度"
*DISP_UNIT_Y "cps"
*DISP_WINDOW_NAME "MSG_MACROENGINE"
*FILE_COMMENT " "
*FILE_MD5 ""
*FILE_MEMO " "
*FILE_OPERATOR "Administrator"
*FILE_SAMPLE " "
*FILE_TYPE "RAS_RAW"
*FILE_USERGROUP "システムマネージャ"
*FILE_VERSION "1.0000000000"
*HW_ATTACHMENT_ID "ATT0025"
*HW_ATTACHMENT_NAME "標準|Standard"
*HW_COUNTER_ID-0 "CUT0025"
*HW_COUNTER_ID-1 "CUT0020"
*HW_COUNTER_ID-2 "CUT0020"
*HW_COUNTER_ID-3 "CSL0021"
*HW_COUNTER_ID-4 "CMC0021"
*HW_COUNTER_NAME-0 "D/teX Ultra|D/teX Ultra"
*HW_COUNTER_NAME-1 "None|None"
*HW_COUNTER_NAME-2 "None|None"
*HW_COUNTER_NAME-3 "BBM|BBM"
*HW_COUNTER_NAME-4 "検出器モノクロメータ|Detector monochromator"
*HW_COUNTER_SELECT_NAME "D/teX Ultra|D/teX Ultra"
*HW_GONIOMETER_ID "GON0023"
*HW_GONIOMETER_NAME "SmartLab|SmartLab"
*HW_GONIOMETER_RADIUS-0 "90.0"
*HW_GONIOMETER_RADIUS-1 "114.0"
*HW_GONIOMETER_RADIUS-2 "190.0"
*HW_GONIOMETER_RADIUS-3 "300.0"
*HW_GONIOMETER_RADIUS-4 "187.0"
*HW_GONIOMETER_RADIUS-5 "300.0"
*HW_GONIOMETER_RADIUS-6 "113.0"
*HW_GONIOMETER_RADIUS-7 "331.0"
*HW_I_OPT_ID-0 "CBO0021"
*HW_I_OPT_ID-1 "ICR0023"
*HW_I_OPT_ID-2 "ISL0021"
*HW_I_OPT_ID-3 "ISO0021"
*HW_I_OPT_ID-4 "IAD0021"
*HW_I_OPT_ID-5 "IPR0001"
*HW_I_OPT_NAME-0 "CBOユニット|CBO unit"
*HW_I_OPT_NAME-1 "標準入射光学ユニット|Standard incident optical unit"
*HW_I_OPT_NAME-2 "標準入射スリットボックス|Standard incident slit box"
*HW_I_OPT_NAME-3 "入射平行スリット|Incident parallel slit"
*HW_I_OPT_NAME-4 "長手制限スリット|Length limiting slit"
*HW_I_OPT_NAME-5 "None|None"
*HW_R_ATTENUATER_AUTOMODE "0"
*HW_R_OPT_ID-0 "RSS0021"
*HW_R_OPT_ID-1 "RCR0023"
*HW_R_OPT_ID-2 "RSO0021"
*HW_R_OPT_ID-3 "RRS0021"
*HW_R_OPT_ID-4 "ATN0021"
*HW_R_OPT_ID-5 "RFL0021"
*HW_R_OPT_ID-6 "RAD0021"
*HW_R_OPT_NAME-0 "標準受光スリットボックス1|Standard receiving slit box # 1"
*HW_R_OPT_NAME-1 "標準受光光学ユニット1|Standard receiving unit # 1"
*HW_R_OPT_NAME-2 "標準受光光学ユニット2|Standard receiving optical unit # 2"
*HW_R_OPT_NAME-3 "標準受光スリットボックス2|Standard receiving slit box # 2"
*HW_R_OPT_NAME-4 "標準アッテネータ|Standard Attenuator"
*HW_R_OPT_NAME-5 "Cu Kβ|Cu K-beta"
*HW_R_OPT_NAME-6 "調整用受光スリット|Alignment receiving slit"
*HW_SAMPLE_HOLDER_ID "SMP0023"
*HW_SAMPLE_HOLDER_NAME "標準Zステージ|Standard Z stage"
*HW_XG_CURRENT_MAX "50"
*HW_XG_CURRENT_MIN "2"
*HW_XG_CURRENT_RESOLUTION "1"
*HW_XG_CURRENT_UNIT "mA"
*HW_XG_FOCUS "1mm x 10mm"
*HW_XG_FOCUS_TYPE "Normal"
*HW_XG_ID ""
*HW_XG_NAME "3kW 封入管(ID:1200)|3kW Sealed tube(ID:1200)"
*HW_XG_TARGET_ATOMIC_NUMBER "29.0000000000"
*HW_XG_TARGET_NAME "Cu"
*HW_XG_TYPE "Hermetic"
*HW_XG_VOLTAGE_MAX "60"
*HW_XG_VOLTAGE_MIN "20"
*HW_XG_VOLTAGE_RESOLUTION "1"
*HW_XG_VOLTAGE_UNIT "kV"
*HW_XG_WATT_MAX "1.500"
*HW_XG_WATT_UNIT "kW"
*HW_XG_WAVE_LENGTH_ALPHA1 "1.540593"
*HW_XG_WAVE_LENGTH_ALPHA2 "1.544414"
*HW_XG_WAVE_LENGTH_BETA "1.392250"
*MEAS_COND_AXIS_NAME-0 "2θ/θ"
*MEAS_COND_AXIS_NAME-1 "2θ"
*MEAS_COND_AXIS_NAME-2 "ω"
*MEAS_COND_AXIS_NAME-3 "Z"
*MEAS_COND_AXIS_NAME-4 "2θ/ω"
*MEAS_COND_AXIS_NAME-5 "θs"
*MEAS_COND_AXIS_NAME-6 "θd"
*MEAS_COND_AXIS_NAME-7 "Ts"
*MEAS_COND_AXIS_NAME-8 "CBO選択スリット"
*MEAS_COND_AXIS_NAME-9 "M"
*MEAS_COND_AXIS_NAME-10 "入射平行スリット"
*MEAS_COND_AXIS_NAME-11 "入射スリット"
*MEAS_COND_AXIS_NAME-12 ""
*MEAS_COND_AXIS_NAME-13 "Zs"
*MEAS_COND_AXIS_NAME-14 "入射光学素子"
*MEAS_COND_AXIS_NAME-15 "長手制限スリット"
*MEAS_COND_AXIS_NAME-16 "センタースリット"
*MEAS_COND_AXIS_NAME-17 "フィルター"
*MEAS_COND_AXIS_NAME-18 "受光スリット1"
*MEAS_COND_AXIS_NAME-19 "受光スリット2"
*MEAS_COND_AXIS_NAME-20 "受光光学素子"
*MEAS_COND_AXIS_NAME-21 "受光平行スリット"
*MEAS_COND_AXIS_NAME-22 "調整用受光スリット"
*MEAS_COND_AXIS_NAME-23 ""
*MEAS_COND_AXIS_NAME-24 ""
*MEAS_COND_AXIS_NAME-25 "Zd"
*MEAS_COND_AXIS_NAME-26 "アッテネータ"
*MEAS_COND_AXIS_NAME-27 "検出器モノクロメータ"
*MEAS_COND_AXIS_NAME-28 "モノクロメータスリット"
*MEAS_COND_AXIS_NAME-29 "プライマリビーム"
*MEAS_COND_AXIS_NAME-30 "PHA"
*MEAS_COND_AXIS_NAME_INTERNAL-0 "TwoThetaTheta"
*MEAS_COND_AXIS_NAME_INTERNAL-1 "TwoTheta"
*MEAS_COND_AXIS_NAME_INTERNAL-2 "Omega"
*MEAS_COND_AXIS_NAME_INTERNAL-3 "Z"
*MEAS_COND_AXIS_NAME_INTERNAL-4 "TwoThetaOmega"
*MEAS_COND_AXIS_NAME_INTERNAL-5 "ThetaS"
*MEAS_COND_AXIS_NAME_INTERNAL-6 "ThetaD"
*MEAS_COND_AXIS_NAME_INTERNAL-7 "Ts"
*MEAS_COND_AXIS_NAME_INTERNAL-8 "CBO"
*MEAS_COND_AXIS_NAME_INTERNAL-9 "CBO-M"
*MEAS_COND_AXIS_NAME_INTERNAL-10 "IncidentSollerSlit"
*MEAS_COND_AXIS_NAME_INTERNAL-11 "IncidentSlitBox"
*MEAS_COND_AXIS_NAME_INTERNAL-12 "IncidentSlitBox-_Axis"
*MEAS_COND_AXIS_NAME_INTERNAL-13 "Zs"
*MEAS_COND_AXIS_NAME_INTERNAL-14 "IncidentMonochromator"
*MEAS_COND_AXIS_NAME_INTERNAL-15 "IncidentAxdSlit"
*MEAS_COND_AXIS_NAME_INTERNAL-16 "CenterSlit"
*MEAS_COND_AXIS_NAME_INTERNAL-17 "Filter"
*MEAS_COND_AXIS_NAME_INTERNAL-18 "ReceivingSlitBox1"
*MEAS_COND_AXIS_NAME_INTERNAL-19 "ReceivingSlitBox2"
*MEAS_COND_AXIS_NAME_INTERNAL-20 "ReceivingOptics"
*MEAS_COND_AXIS_NAME_INTERNAL-21 "ReceivingSollerSlit"
*MEAS_COND_AXIS_NAME_INTERNAL-22 "ReceivingAxdSlit"
*MEAS_COND_AXIS_NAME_INTERNAL-23 "ReceivingSlitBox1-_Axis"
*MEAS_COND_AXIS_NAME_INTERNAL-24 "ReceivingSlitBox2-_Axis"
*MEAS_COND_AXIS_NAME_INTERNAL-25 "ReceivingSlitBox2-Zd"
*MEAS_COND_AXIS_NAME_INTERNAL-26 "Attenuator"
*MEAS_COND_AXIS_NAME_INTERNAL-27 "CounterMonochromator"
*MEAS_COND_AXIS_NAME_INTERNAL-28 "CounterSlit"
*MEAS_COND_AXIS_NAME_INTERNAL-29 "IncidentPrimary"
*MEAS_COND_AXIS_NAME_INTERNAL-30 "PHA"
*MEAS_COND_AXIS_NAME_MAGICNO-0 "83951616.0000000000"
*MEAS_COND_AXIS_NAME_MAGICNO-1 "268632064.0000000000"
*MEAS_COND_AXIS_NAME_MAGICNO-2 "268500992.0000000000"
*MEAS_COND_AXIS_NAME_MAGICNO-3 "285278208.0000000000"
*MEAS_COND_AXIS_NAME_MAGICNO-4 "83951616.0000000000"
*MEAS_COND_AXIS_NAME_MAGICNO-5 "131072.0000000000"
*MEAS_COND_AXIS_NAME_MAGICNO-6 "131072.0000000000"
*MEAS_COND_AXIS_NAME_MAGICNO-7 "318898176.0000000000"
*MEAS_COND_AXIS_NAME_MAGICNO-8 "20971521.0000000000"
*MEAS_COND_AXIS_NAME_MAGICNO-9 "285343744.0000000000"
*MEAS_COND_AXIS_NAME_MAGICNO-10 "20971521.0000000000"
*MEAS_COND_AXIS_NAME_MAGICNO-11 "22020097.0000000000"
*MEAS_COND_AXIS_NAME_MAGICNO-12 "25165824.0000000000"
*MEAS_COND_AXIS_NAME_MAGICNO-13 "318898176.0000000000"
*MEAS_COND_AXIS_NAME_MAGICNO-14 "1.0000000000"
*MEAS_COND_AXIS_NAME_MAGICNO-15 "20971521.0000000000"
*MEAS_COND_AXIS_NAME_MAGICNO-16 "20971521.0000000000"
*MEAS_COND_AXIS_NAME_MAGICNO-17 "20971521.0000000000"
*MEAS_COND_AXIS_NAME_MAGICNO-18 "23068673.0000000000"
*MEAS_COND_AXIS_NAME_MAGICNO-19 "23068673.0000000000"
*MEAS_COND_AXIS_NAME_MAGICNO-20 "20971521.0000000000"
*MEAS_COND_AXIS_NAME_MAGICNO-21 "20971521.0000000000"
*MEAS_COND_AXIS_NAME_MAGICNO-22 "20971521.0000000000"
*MEAS_COND_AXIS_NAME_MAGICNO-23 "25165824.0000000000"
*MEAS_COND_AXIS_NAME_MAGICNO-24 "25165824.0000000000"
*MEAS_COND_AXIS_NAME_MAGICNO-25 "285343744.0000000000"
*MEAS_COND_AXIS_NAME_MAGICNO-26 "17301505.0000000000"
*MEAS_COND_AXIS_NAME_MAGICNO-27 "20971521.0000000000"
*MEAS_COND_AXIS_NAME_MAGICNO-28 "20971521.0000000000"
*MEAS_COND_AXIS_NAME_MAGICNO-29 "20971521.0000000000"
*MEAS_COND_AXIS_NAME_MAGICNO-30 "0.0000000000"
*MEAS_COND_AXIS_OFFSET-0 "-"
*MEAS_COND_AXIS_OFFSET-1 "-0.0310000000"
*MEAS_COND_AXIS_OFFSET-2 "0.3978000000"
*MEAS_COND_AXIS_OFFSET-3 "-"
*MEAS_COND_AXIS_OFFSET-4 "-"
*MEAS_COND_AXIS_OFFSET-5 "0.3978000000"
*MEAS_COND_AXIS_OFFSET-6 "-0.4288000000"
*MEAS_COND_AXIS_OFFSET-7 "-"
*MEAS_COND_AXIS_OFFSET-8 "-"
*MEAS_COND_AXIS_OFFSET-9 "-"
*MEAS_COND_AXIS_OFFSET-10 "-"
*MEAS_COND_AXIS_OFFSET-11 "-"
*MEAS_COND_AXIS_OFFSET-12 "-"
*MEAS_COND_AXIS_OFFSET-13 "-"
*MEAS_COND_AXIS_OFFSET-14 "-"
*MEAS_COND_AXIS_OFFSET-15 "-"
*MEAS_COND_AXIS_OFFSET-16 "-"
*MEAS_COND_AXIS_OFFSET-17 "-"
*MEAS_COND_AXIS_OFFSET-18 "-"
*MEAS_COND_AXIS_OFFSET-19 "-"
*MEAS_COND_AXIS_OFFSET-20 "-"
*MEAS_COND_AXIS_OFFSET-21 "-"
*MEAS_COND_AXIS_OFFSET-22 "-"
*MEAS_COND_AXIS_OFFSET-23 "-"
*MEAS_COND_AXIS_OFFSET-24 "-"
*MEAS_COND_AXIS_OFFSET-25 "-"
*MEAS_COND_AXIS_OFFSET-26 "-"
*MEAS_COND_AXIS_OFFSET-27 "-"
*MEAS_COND_AXIS_OFFSET-28 "-"
*MEAS_COND_AXIS_OFFSET-29 "-"
*MEAS_COND_AXIS_OFFSET-30 "-"
*MEAS_COND_AXIS_POSITION-0 "0.0000000000"
*MEAS_COND_AXIS_POSITION-1 "0.0000000000"
*MEAS_COND_AXIS_POSITION-2 "0.0000000000"
*MEAS_COND_AXIS_POSITION-3 "-2.9770000000"
*MEAS_COND_AXIS_POSITION-4 "0.0000000000"
*MEAS_COND_AXIS_POSITION-5 "0.0000000000"
*MEAS_COND_AXIS_POSITION-6 "0.0000000000"
*MEAS_COND_AXIS_POSITION-7 "-0.7498700000"
*MEAS_COND_AXIS_POSITION-8 "BB"
*MEAS_COND_AXIS_POSITION-9 "0.0000000000"
*MEAS_COND_AXIS_POSITION-10 "Soller_slit_5.0deg"
*MEAS_COND_AXIS_POSITION-11 "2/3deg"
*MEAS_COND_AXIS_POSITION-12 "2.2088000000"
*MEAS_COND_AXIS_POSITION-13 "-0.6412500000"
*MEAS_COND_AXIS_POSITION-14 "0.0000000000"
*MEAS_COND_AXIS_POSITION-15 "10.0mm"
*MEAS_COND_AXIS_POSITION-16 "None"
*MEAS_COND_AXIS_POSITION-17 "Cu_K-beta"
*MEAS_COND_AXIS_POSITION-18 "13.000mm"
*MEAS_COND_AXIS_POSITION-19 "13.000mm"
*MEAS_COND_AXIS_POSITION-20 "No_unit"
*MEAS_COND_AXIS_POSITION-21 "Soller_slit_5.0deg"
*MEAS_COND_AXIS_POSITION-22 "None"
*MEAS_COND_AXIS_POSITION-23 "13.0000000000"
*MEAS_COND_AXIS_POSITION-24 "13.0000000000"
*MEAS_COND_AXIS_POSITION-25 "0.0281300000"
*MEAS_COND_AXIS_POSITION-26 "Open"
*MEAS_COND_AXIS_POSITION-27 "None"
*MEAS_COND_AXIS_POSITION-28 "None"
*MEAS_COND_AXIS_POSITION-29 "None"
*MEAS_COND_AXIS_POSITION-30 "38.0000000000"
*MEAS_COND_AXIS_UNIT-0 "deg"
*MEAS_COND_AXIS_UNIT-1 "deg"
*MEAS_COND_AXIS_UNIT-2 "deg"
*MEAS_COND_AXIS_UNIT-3 "mm"
*MEAS_COND_AXIS_UNIT-4 "deg"
*MEAS_COND_AXIS_UNIT-5 "deg"
*MEAS_COND_AXIS_UNIT-6 "deg"
*MEAS_COND_AXIS_UNIT-7 "mm"
*MEAS_COND_AXIS_UNIT-8 ""
*MEAS_COND_AXIS_UNIT-9 "pulse"
*MEAS_COND_AXIS_UNIT-10 ""
*MEAS_COND_AXIS_UNIT-11 ""
*MEAS_COND_AXIS_UNIT-12 "mm"
*MEAS_COND_AXIS_UNIT-13 "mm"
*MEAS_COND_AXIS_UNIT-14 ""
*MEAS_COND_AXIS_UNIT-15 ""
*MEAS_COND_AXIS_UNIT-16 ""
*MEAS_COND_AXIS_UNIT-17 ""
*MEAS_COND_AXIS_UNIT-18 ""
*MEAS_COND_AXIS_UNIT-19 ""
*MEAS_COND_AXIS_UNIT-20 ""
*MEAS_COND_AXIS_UNIT-21 ""
*MEAS_COND_AXIS_UNIT-22 ""
*MEAS_COND_AXIS_UNIT-23 "mm"
*MEAS_COND_AXIS_UNIT-24 "mm"
*MEAS_COND_AXIS_UNIT-25 "mm"
*MEAS_COND_AXIS_UNIT-26 ""
*MEAS_COND_AXIS_UNIT-27 ""
*MEAS_COND_AXIS_UNIT-28 ""
*MEAS_COND_AXIS_UNIT-29 ""
*MEAS_COND_AXIS_UNIT-30 "div"
*MEAS_COND_COUNTER_CNTLOSS_CORR "0.0000000000"
*MEAS_COND_COUNTER_PHABASE "38.0000000000"
*MEAS_COND_COUNTER_PHAWINDOW "16.0000000000"
*MEAS_COND_COUNTER_PHA_UNIT "div"
*MEAS_COND_COUNTER_TAUDIFF "30.0000000000"
*MEAS_COND_COUNTER_TAUINT "0.0000000000"
*MEAS_COND_IRRADIATION_MODE "OFF"
*MEAS_COND_IRRADIATION_WIDTH ""
*MEAS_COND_OPT_ATTR "集中法"
*MEAS_COND_OPT_NAME "@集中法"
*MEAS_COND_UNSYMMETRIC_MODE "OFF"
*MEAS_COND_XG_CURRENT "30.0000000000"
*MEAS_COND_XG_VOLTAGE "40.0000000000"
*MEAS_COND_XG_WAVE_TYPE "Ka"
*MEAS_DATA_COUNT "5001.0000000000"
*MEAS_SCAN_AXIS_X "2θ/θ"
*MEAS_SCAN_AXIS_X_INTERNAL "TwoThetaTheta"
*MEAS_SCAN_END_TIME "05/18/23 19:46:57"
*MEAS_SCAN_MODE "CONTINUOUS"
*MEAS_SCAN_MONITOR "0"
*MEAS_SCAN_RESOLUTION_X "0.0002"
*MEAS_SCAN_SPEED "2.5"
*MEAS_SCAN_SPEED_UNIT "deg/min"
*MEAS_SCAN_START "20.0000000000"
*MEAS_SCAN_START_TIME "05/18/23 19:25:33"
*MEAS_SCAN_STEP "0.0100000000"
*MEAS_SCAN_STOP "70.0000000000"
*MEAS_SCAN_UNIT_X "deg"
*MEAS_SCAN_UNIT_Y "counts"
*RAS_HEADER_END
*RAS_INT_START
20.0000 908.0000 1.0000
20.0100 903.0000 1.0000
20.0200 915.0000 1.0000
20.0300 897.0000 1.0000
20.0400 923.0000 1.0000
20.0500 895.0000 1.0000
20.0600 918.0000 1.0000
20.0700 895.0000 1.0000
20.0800 896.0000 1.0000
20.0900 894.0000 1.0000
20.1000 848.0000 1.0000
20.1100 917.0000 1.0000
20.1200 879.0000 1.0000
20.1300 896.0000 1.0000
20.1400 886.0000 1.0000
20.1500 902.0000 1.0000
20.1600 867.0000 1.0000
20.1700 890.0000 1.0000
20.1800 922.0000 1.0000
20.1900 891.0000 1.0000
20.2000 893.0000 1.0000
20.2100 906.0000 1.0000
20.2200 906.0000 1.0000
20.2300 914.0000 1.0000
20.2400 861.0000 1.0000
20.2500 900.0000 1.0000
20.2600 932.0000 1.0000
20.2700 866.0000 1.0000
20.2800 879.0000 1.0000
20.2900 920.0000 1.0000
20.3000 911.0000 1.0000
20.3100 911.0000 1.0000
20.3200 931.0000 1.0000
20.3300 886.0000 1.0000
20.3400 956.0000 1.0000
20.3500 943.0000 1.0000
20.3600 883.0000 1.0000
20.3700 855.0000 1.0000
20.3800 868.0000 1.0000
20.3900 890.0000 1.0000
20.4000 898.0000 1.0000
20.4100 895.0000 1.0000
20.4200 892.0000 1.0000
20.4300 875.0000 1.0000
20.4400 856.0000 1.0000
20.4500 937.0000 1.0000
20.4600 942.0000 1.0000
20.4700 892.0000 1.0000
20.4800 878.0000 1.0000
20.4900 907.0000 1.0000
20.5000 886.0000 1.0000
20.5100 827.0000 1.0000
20.5200 868.0000 1.0000
20.5300 870.0000 1.0000
20.5400 874.0000 1.0000
20.5500 924.0000 1.0000
20.5600 903.0000 1.0000
20.5700 903.0000 1.0000
20.5800 900.0000 1.0000
20.5900 923.0000 1.0000
20.6000 872.0000 1.0000
20.6100 832.0000 1.0000
20.6200 888.0000 1.0000
20.6300 904.0000 1.0000
20.6400 849.0000 1.0000
20.6500 881.0000 1.0000
20.6600 846.0000 1.0000
20.6700 877.0000 1.0000
20.6800 840.0000 1.0000
20.6900 862.0000 1.0000
20.7000 901.0000 1.0000
20.7100 862.0000 1.0000
20.7200 894.0000 1.0000
20.7300 892.0000 1.0000
20.7400 889.0000 1.0000
20.7500 872.0000 1.0000
20.7600 884.0000 1.0000
20.7700 882.0000 1.0000
20.7800 901.0000 1.0000
20.7900 865.0000 1.0000
20.8000 874.0000 1.0000
20.8100 880.0000 1.0000
20.8200 856.0000 1.0000
20.8300 920.0000 1.0000
20.8400 922.0000 1.0000
20.8500 889.0000 1.0000
20.8600 861.0000 1.0000
20.8700 917.0000 1.0000
20.8800 892.0000 1.0000
20.8900 901.0000 1.0000
20.9000 914.0000 1.0000
20.9100 835.0000 1.0000
20.9200 893.0000 1.0000
20.9300 888.0000 1.0000
20.9400 907.0000 1.0000
20.9500 924.0000 1.0000
20.9600 848.0000 1.0000
20.9700 878.0000 1.0000
20.9800 899.0000 1.0000
20.9900 879.0000 1.0000
21.0000 845.0000 1.0000
21.0100 859.0000 1.0000
21.0200 865.0000 1.0000
21.0300 876.0000 1.0000
21.0400 893.0000 1.0000
21.0500 895.0000 1.0000
21.0600 902.0000 1.0000
21.0700 883.0000 1.0000
21.0800 870.0000 1.0000
21.0900 874.0000 1.0000
21.1000 863.0000 1.0000
21.1100 854.0000 1.0000
21.1200 867.0000 1.0000
21.1300 842.0000 1.0000
21.1400 859.0000 1.0000
21.1500 900.0000 1.0000
21.1600 835.0000 1.0000
21.1700 906.0000 1.0000
21.1800 937.0000 1.0000
21.1900 918.0000 1.0000
21.2000 859.0000 1.0000
21.2100 900.0000 1.0000
21.2200 859.0000 1.0000
21.2300 866.0000 1.0000
21.2400 850.0000 1.0000
21.2500 931.0000 1.0000
21.2600 885.0000 1.0000
21.2700 870.0000 1.0000
21.2800 862.0000 1.0000
21.2900 886.0000 1.0000
21.3000 892.0000 1.0000
21.3100 892.0000 1.0000
21.3200 870.0000 1.0000
21.3300 869.0000 1.0000
21.3400 860.0000 1.0000
21.3500 842.0000 1.0000
21.3600 845.0000 1.0000
21.3700 928.0000 1.0000
21.3800 907.0000 1.0000
21.3900 882.0000 1.0000
21.4000 898.0000 1.0000
21.4100 922.0000 1.0000
21.4200 894.0000 1.0000
21.4300 919.0000 1.0000
21.4400 857.0000 1.0000
21.4500 882.0000 1.0000
21.4600 872.0000 1.0000
21.4700 888.0000 1.0000
21.4800 893.0000 1.0000
21.4900 893.0000 1.0000
21.5000 912.0000 1.0000
21.5100 886.0000 1.0000
21.5200 847.0000 1.0000
21.5300 906.0000 1.0000
21.5400 906.0000 1.0000
21.5500 833.0000 1.0000
21.5600 905.0000 1.0000
21.5700 876.0000 1.0000
21.5800 877.0000 1.0000
21.5900 881.0000 1.0000
21.6000 883.0000 1.0000
21.6100 916.0000 1.0000
21.6200 953.0000 1.0000
21.6300 865.0000 1.0000
21.6400 876.0000 1.0000
21.6500 846.0000 1.0000
21.6600 888.0000 1.0000
21.6700 901.0000 1.0000
21.6800 860.0000 1.0000
21.6900 861.0000 1.0000
21.7000 907.0000 1.0000
21.7100 853.0000 1.0000
21.7200 899.0000 1.0000
21.7300 895.0000 1.0000
21.7400 851.0000 1.0000
21.7500 861.0000 1.0000
21.7600 864.0000 1.0000
21.7700 915.0000 1.0000
21.7800 841.0000 1.0000
21.7900 895.0000 1.0000
21.8000 859.0000 1.0000
21.8100 850.0000 1.0000
21.8200 877.0000 1.0000
21.8300 886.0000 1.0000
21.8400 854.0000 1.0000
21.8500 892.0000 1.0000
21.8600 884.0000 1.0000
21.8700 917.0000 1.0000
21.8800 911.0000 1.0000
21.8900 874.0000 1.0000
21.9000 898.0000 1.0000
21.9100 837.0000 1.0000
21.9200 893.0000 1.0000
21.9300 845.0000 1.0000
21.9400 870.0000 1.0000
21.9500 846.0000 1.0000
21.9600 884.0000 1.0000
21.9700 896.0000 1.0000
21.9800 878.0000 1.0000
21.9900 880.0000 1.0000
22.0000 889.0000 1.0000
22.0100 883.0000 1.0000
22.0200 865.0000 1.0000
22.0300 841.0000 1.0000
22.0400 868.0000 1.0000
22.0500 872.0000 1.0000
22.0600 849.0000 1.0000
22.0700 898.0000 1.0000
22.0800 837.0000 1.0000
22.0900 823.0000 1.0000
22.1000 845.0000 1.0000
22.1100 877.0000 1.0000
22.1200 869.0000 1.0000
22.1300 877.0000 1.0000
22.1400 917.0000 1.0000
22.1500 873.0000 1.0000
22.1600 864.0000 1.0000
22.1700 877.0000 1.0000
22.1800 905.0000 1.0000
22.1900 848.0000 1.0000
22.2000 859.0000 1.0000
22.2100 905.0000 1.0000
22.2200 883.0000 1.0000
22.2300 914.0000 1.0000
22.2400 924.0000 1.0000
22.2500 928.0000 1.0000
22.2600 857.0000 1.0000
22.2700 893.0000 1.0000
22.2800 853.0000 1.0000
22.2900 856.0000 1.0000
22.3000 893.0000 1.0000
22.3100 887.0000 1.0000
22.3200 884.0000 1.0000
22.3300 914.0000 1.0000
22.3400 907.0000 1.0000
22.3500 876.0000 1.0000
22.3600 865.0000 1.0000
22.3700 852.0000 1.0000
22.3800 864.0000 1.0000
22.3900 856.0000 1.0000
22.4000 830.0000 1.0000
22.4100 907.0000 1.0000
22.4200 838.0000 1.0000
22.4300 905.0000 1.0000
22.4400 842.0000 1.0000
22.4500 838.0000 1.0000
22.4600 844.0000 1.0000
22.4700 895.0000 1.0000
22.4800 901.0000 1.0000
22.4900 819.0000 1.0000
22.5000 866.0000 1.0000
22.5100 774.0000 1.0000
22.5200 892.0000 1.0000
22.5300 830.0000 1.0000
22.5400 901.0000 1.0000
22.5500 928.0000 1.0000
22.5600 864.0000 1.0000
22.5700 851.0000 1.0000
22.5800 822.0000 1.0000
22.5900 834.0000 1.0000
22.6000 840.0000 1.0000
22.6100 849.0000 1.0000
22.6200 900.0000 1.0000
22.6300 840.0000 1.0000
22.6400 836.0000 1.0000
22.6500 861.0000 1.0000
22.6600 854.0000 1.0000
22.6700 833.0000 1.0000
22.6800 854.0000 1.0000
22.6900 884.0000 1.0000
22.7000 843.0000 1.0000
22.7100 866.0000 1.0000
22.7200 868.0000 1.0000
22.7300 852.0000 1.0000
22.7400 882.0000 1.0000
22.7500 872.0000 1.0000
22.7600 888.0000 1.0000
22.7700 867.0000 1.0000
22.7800 866.0000 1.0000
22.7900 889.0000 1.0000
22.8000 871.0000 1.0000
22.8100 833.0000 1.0000
22.8200 795.0000 1.0000
22.8300 890.0000 1.0000
22.8400 883.0000 1.0000
22.8500 877.0000 1.0000
22.8600 858.0000 1.0000
22.8700 846.0000 1.0000
22.8800 895.0000 1.0000
22.8900 851.0000 1.0000
22.9000 885.0000 1.0000
22.9100 860.0000 1.0000
22.9200 825.0000 1.0000
22.9300 870.0000 1.0000
22.9400 844.0000 1.0000
22.9500 833.0000 1.0000
22.9600 853.0000 1.0000
22.9700 878.0000 1.0000
22.9800 860.0000 1.0000
22.9900 886.0000 1.0000
23.0000 839.0000 1.0000
23.0100 830.0000 1.0000
23.0200 833.0000 1.0000
23.0300 860.0000 1.0000
23.0400 882.0000 1.0000
23.0500 859.0000 1.0000
23.0600 870.0000 1.0000
23.0700 881.0000 1.0000
23.0800 857.0000 1.0000
23.0900 840.0000 1.0000
23.1000 862.0000 1.0000
23.1100 866.0000 1.0000
23.1200 836.0000 1.0000
23.1300 831.0000 1.0000
23.1400 834.0000 1.0000
23.1500 872.0000 1.0000
23.1600 875.0000 1.0000
23.1700 831.0000 1.0000
23.1800 848.0000 1.0000
23.1900 833.0000 1.0000
23.2000 824.0000 1.0000
23.2100 843.0000 1.0000
23.2200 878.0000 1.0000
23.2300 878.0000 1.0000
23.2400 868.0000 1.0000
23.2500 838.0000 1.0000
23.2600 885.0000 1.0000
23.2700 788.0000 1.0000
23.2800 850.0000 1.0000
23.2900 829.0000 1.0000
23.3000 843.0000 1.0000
23.3100 856.0000 1.0000
23.3200 869.0000 1.0000
23.3300 869.0000 1.0000
23.3400 809.0000 1.0000
23.3500 854.0000 1.0000
23.3600 870.0000 1.0000
23.3700 884.0000 1.0000
23.3800 876.0000 1.0000
23.3900 880.0000 1.0000
23.4000 834.0000 1.0000
23.4100 829.0000 1.0000
23.4200 858.0000 1.0000
23.4300 830.0000 1.0000
23.4400 839.0000 1.0000
23.4500 807.0000 1.0000
23.4600 846.0000 1.0000
23.4700 848.0000 1.0000
23.4800 857.0000 1.0000
23.4900 813.0000 1.0000
23.5000 841.0000 1.0000
23.5100 873.0000 1.0000
23.5200 870.0000 1.0000
23.5300 889.0000 1.0000
23.5400 882.0000 1.0000
23.5500 850.0000 1.0000
23.5600 881.0000 1.0000
23.5700 862.0000 1.0000
23.5800 841.0000 1.0000
23.5900 848.0000 1.0000
23.6000 867.0000 1.0000
23.6100 851.0000 1.0000
23.6200 863.0000 1.0000
23.6300 878.0000 1.0000
23.6400 902.0000 1.0000
23.6500 842.0000 1.0000
23.6600 805.0000 1.0000
23.6700 853.0000 1.0000
23.6800 870.0000 1.0000
23.6900 859.0000 1.0000
23.7000 894.0000 1.0000
23.7100 893.0000 1.0000
23.7200 828.0000 1.0000
23.7300 855.0000 1.0000
23.7400 877.0000 1.0000
23.7500 856.0000 1.0000
23.7600 856.0000 1.0000
23.7700 892.0000 1.0000
23.7800 876.0000 1.0000
23.7900 884.0000 1.0000
23.8000 850.0000 1.0000
23.8100 876.0000 1.0000
23.8200 850.0000 1.0000
23.8300 867.0000 1.0000
23.8400 831.0000 1.0000
23.8500 844.0000 1.0000
23.8600 860.0000 1.0000
23.8700 883.0000 1.0000
23.8800 855.0000 1.0000
23.8900 845.0000 1.0000
23.9000 835.0000 1.0000
23.9100 849.0000 1.0000
23.9200 857.0000 1.0000
23.9300 843.0000 1.0000
23.9400 912.0000 1.0000
23.9500 800.0000 1.0000
23.9600 810.0000 1.0000
23.9700 859.0000 1.0000
23.9800 901.0000 1.0000
23.9900 856.0000 1.0000
24.0000 872.0000 1.0000
24.0100 853.0000 1.0000
24.0200 897.0000 1.0000
24.0300 889.0000 1.0000
24.0400 885.0000 1.0000
24.0500 884.0000 1.0000
24.0600 892.0000 1.0000
24.0700 920.0000 1.0000
24.0800 881.0000 1.0000
24.0900 892.0000 1.0000
24.1000 867.0000 1.0000
24.1100 886.0000 1.0000
24.1200 851.0000 1.0000
24.1300 881.0000 1.0000
24.1400 874.0000 1.0000
24.1500 884.0000 1.0000
24.1600 915.0000 1.0000
24.1700 917.0000 1.0000
24.1800 889.0000 1.0000
24.1900 814.0000 1.0000
24.2000 894.0000 1.0000
24.2100 882.0000 1.0000
24.2200 875.0000 1.0000
24.2300 874.0000 1.0000
24.2400 874.0000 1.0000
24.2500 868.0000 1.0000
24.2600 885.0000 1.0000
24.2700 862.0000 1.0000
24.2800 865.0000 1.0000
24.2900 860.0000 1.0000
24.3000 852.0000 1.0000
24.3100 855.0000 1.0000
24.3200 908.0000 1.0000
24.3300 849.0000 1.0000
24.3400 856.0000 1.0000
24.3500 868.0000 1.0000
24.3600 848.0000 1.0000
24.3700 838.0000 1.0000
24.3800 920.0000 1.0000
24.3900 899.0000 1.0000
24.4000 868.0000 1.0000
24.4100 836.0000 1.0000
24.4200 843.0000 1.0000
24.4300 887.0000 1.0000
24.4400 853.0000 1.0000
24.4500 835.0000 1.0000
24.4600 808.0000 1.0000
24.4700 830.0000 1.0000
24.4800 851.0000 1.0000
24.4900 851.0000 1.0000
24.5000 825.0000 1.0000
24.5100 819.0000 1.0000
24.5200 826.0000 1.0000
24.5300 851.0000 1.0000
24.5400 816.0000 1.0000
24.5500 855.0000 1.0000
24.5600 843.0000 1.0000
24.5700 837.0000 1.0000
24.5800 855.0000 1.0000
24.5900 844.0000 1.0000
24.6000 796.0000 1.0000
24.6100 803.0000 1.0000
24.6200 834.0000 1.0000
24.6300 814.0000 1.0000
24.6400 874.0000 1.0000
24.6500 872.0000 1.0000
24.6600 892.0000 1.0000
24.6700 802.0000 1.0000
24.6800 829.0000 1.0000
24.6900 851.0000 1.0000
24.7000 855.0000 1.0000
24.7100 839.0000 1.0000
24.7200 894.0000 1.0000
24.7300 865.0000 1.0000
24.7400 843.0000 1.0000
24.7500 826.0000 1.0000
24.7600 828.0000 1.0000
24.7700 837.0000 1.0000
24.7800 854.0000 1.0000
24.7900 829.0000 1.0000
24.8000 833.0000 1.0000
24.8100 825.0000 1.0000
24.8200 824.0000 1.0000
24.8300 846.0000 1.0000
24.8400 828.0000 1.0000
24.8500 858.0000 1.0000
24.8600 837.0000 1.0000
24.8700 823.0000 1.0000
24.8800 872.0000 1.0000
24.8900 827.0000 1.0000
24.9000 826.0000 1.0000
24.9100 850.0000 1.0000
24.9200 808.0000 1.0000
24.9300 776.0000 1.0000
24.9400 841.0000 1.0000
24.9500 846.0000 1.0000
24.9600 766.0000 1.0000
24.9700 815.0000 1.0000
24.9800 837.0000 1.0000
24.9900 845.0000 1.0000
25.0000 810.0000 1.0000
25.0100 804.0000 1.0000
25.0200 857.0000 1.0000
25.0300 797.0000 1.0000
25.0400 833.0000 1.0000
25.0500 860.0000 1.0000
25.0600 830.0000 1.0000
25.0700 845.0000 1.0000
25.0800 812.0000 1.0000
25.0900 785.0000 1.0000
25.1000 771.0000 1.0000
25.1100 783.0000 1.0000
25.1200 773.0000 1.0000
25.1300 837.0000 1.0000
25.1400 774.0000 1.0000
25.1500 803.0000 1.0000
25.1600 847.0000 1.0000
25.1700 833.0000 1.0000
25.1800 807.0000 1.0000
25.1900 815.0000 1.0000
25.2000 841.0000 1.0000
25.2100 827.0000 1.0000
25.2200 868.0000 1.0000
25.2300 818.0000 1.0000
25.2400 799.0000 1.0000
25.2500 798.0000 1.0000
25.2600 822.0000 1.0000
25.2700 820.0000 1.0000
25.2800 799.0000 1.0000
25.2900 783.0000 1.0000
25.3000 786.0000 1.0000
25.3100 834.0000 1.0000
25.3200 841.0000 1.0000
25.3300 825.0000 1.0000
25.3400 822.0000 1.0000
25.3500 791.0000 1.0000
25.3600 813.0000 1.0000
25.3700 819.0000 1.0000
25.3800 868.0000 1.0000
25.3900 792.0000 1.0000
25.4000 870.0000 1.0000
25.4100 841.0000 1.0000
25.4200 874.0000 1.0000
25.4300 820.0000 1.0000
25.4400 834.0000 1.0000
25.4500 814.0000 1.0000
25.4600 843.0000 1.0000
25.4700 853.0000 1.0000
25.4800 845.0000 1.0000
25.4900 842.0000 1.0000
25.5000 856.0000 1.0000
25.5100 815.0000 1.0000
25.5200 858.0000 1.0000
25.5300 801.0000 1.0000
25.5400 803.0000 1.0000
25.5500 836.0000 1.0000
25.5600 853.0000 1.0000
25.5700 824.0000 1.0000
25.5800 799.0000 1.0000
25.5900 858.0000 1.0000
25.6000 848.0000 1.0000
25.6100 859.0000 1.0000
25.6200 849.0000 1.0000
25.6300 842.0000 1.0000
25.6400 855.0000 1.0000
25.6500 824.0000 1.0000
25.6600 876.0000 1.0000
25.6700 833.0000 1.0000
25.6800 819.0000 1.0000
25.6900 826.0000 1.0000
25.7000 914.0000 1.0000
25.7100 867.0000 1.0000
25.7200 824.0000 1.0000
25.7300 843.0000 1.0000
25.7400 829.0000 1.0000
25.7500 902.0000 1.0000
25.7600 865.0000 1.0000
25.7700 849.0000 1.0000
25.7800 860.0000 1.0000
25.7900 887.0000 1.0000
25.8000 884.0000 1.0000
25.8100 872.0000 1.0000
25.8200 871.0000 1.0000
25.8300 866.0000 1.0000
25.8400 891.0000 1.0000
25.8500 880.0000 1.0000
25.8600 901.0000 1.0000
25.8700 836.0000 1.0000
25.8800 848.0000 1.0000
25.8900 866.0000 1.0000
25.9000 893.0000 1.0000
25.9100 933.0000 1.0000
25.9200 887.0000 1.0000
25.9300 919.0000 1.0000
25.9400 837.0000 1.0000
25.9500 872.0000 1.0000
25.9600 909.0000 1.0000
25.9700 892.0000 1.0000
25.9800 904.0000 1.0000
25.9900 913.0000 1.0000
26.0000 930.0000 1.0000
26.0100 941.0000 1.0000
26.0200 924.0000 1.0000
26.0300 915.0000 1.0000
26.0400 905.0000 1.0000
26.0500 892.0000 1.0000
26.0600 984.0000 1.0000
26.0700 987.0000 1.0000
26.0800 1019.0000 1.0000
26.0900 989.0000 1.0000
26.1000 1024.0000 1.0000
26.1100 1063.0000 1.0000
26.1200 1077.0000 1.0000
26.1300 1115.0000 1.0000
26.1400 1104.0000 1.0000
26.1500 1105.0000 1.0000
26.1600 1129.0000 1.0000
26.1700 1183.0000 1.0000
26.1800 1188.0000 1.0000
26.1900 1223.0000 1.0000
26.2000 1232.0000 1.0000
26.2100 1301.0000 1.0000
26.2200 1266.0000 1.0000
26.2300 1346.0000 1.0000
26.2400 1396.0000 1.0000
26.2500 1405.0000 1.0000
26.2600 1534.0000 1.0000
26.2700 1542.0000 1.0000
26.2800 1577.0000 1.0000
26.2900 1746.0000 1.0000
26.3000 1809.0000 1.0000
26.3100 1888.0000 1.0000
26.3200 2027.0000 1.0000
26.3300 2095.0000 1.0000
26.3400 2200.0000 1.0000
26.3500 2348.0000 1.0000
26.3600 2452.0000 1.0000
26.3700 2554.0000 1.0000
26.3800 2675.0000 1.0000
26.3900 2776.0000 1.0000
26.4000 2905.0000 1.0000
26.4100 3028.0000 1.0000
26.4200 2989.0000 1.0000
26.4300 2970.0000 1.0000
26.4400 2947.0000 1.0000
26.4500 2935.0000 1.0000
26.4600 2847.0000 1.0000
26.4700 2749.0000 1.0000
26.4800 2724.0000 1.0000
26.4900 2556.0000 1.0000
26.5000 2375.0000 1.0000
26.5100 2277.0000 1.0000
26.5200 2248.0000 1.0000
26.5300 2077.0000 1.0000
26.5400 1877.0000 1.0000
26.5500 1868.0000 1.0000
26.5600 1721.0000 1.0000
26.5700 1650.0000 1.0000
26.5800 1575.0000 1.0000
26.5900 1517.0000 1.0000
26.6000 1433.0000 1.0000
26.6100 1398.0000 1.0000
26.6200 1330.0000 1.0000
26.6300 1316.0000 1.0000
26.6400 1284.0000 1.0000
26.6500 1223.0000 1.0000
26.6600 1121.0000 1.0000
26.6700 1148.0000 1.0000
26.6800 1152.0000 1.0000
26.6900 1100.0000 1.0000
26.7000 1070.0000 1.0000
26.7100 1019.0000 1.0000
26.7200 1067.0000 1.0000
26.7300 1014.0000 1.0000
26.7400 1023.0000 1.0000
26.7500 969.0000 1.0000
26.7600 966.0000 1.0000
26.7700 950.0000 1.0000
26.7800 976.0000 1.0000
26.7900 940.0000 1.0000
26.8000 887.0000 1.0000
26.8100 950.0000 1.0000
26.8200 916.0000 1.0000
26.8300 881.0000 1.0000
26.8400 902.0000 1.0000
26.8500 871.0000 1.0000
26.8600 868.0000 1.0000
26.8700 864.0000 1.0000
26.8800 894.0000 1.0000
26.8900 898.0000 1.0000
26.9000 862.0000 1.0000
26.9100 876.0000 1.0000
26.9200 902.0000 1.0000
26.9300 873.0000 1.0000
26.9400 871.0000 1.0000
26.9500 884.0000 1.0000
26.9600 805.0000 1.0000
26.9700 852.0000 1.0000
26.9800 813.0000 1.0000
26.9900 860.0000 1.0000
27.0000 807.0000 1.0000
27.0100 833.0000 1.0000
27.0200 791.0000 1.0000
27.0300 790.0000 1.0000
27.0400 775.0000 1.0000
27.0500 820.0000 1.0000
27.0600 831.0000 1.0000
27.0700 842.0000 1.0000
27.0800 829.0000 1.0000
27.0900 777.0000 1.0000
27.1000 787.0000 1.0000
27.1100 816.0000 1.0000
27.1200 798.0000 1.0000
27.1300 787.0000 1.0000
27.1400 781.0000 1.0000
27.1500 786.0000 1.0000
27.1600 773.0000 1.0000
27.1700 800.0000 1.0000
27.1800 806.0000 1.0000
27.1900 777.0000 1.0000
27.2000 807.0000 1.0000
27.2100 800.0000 1.0000
27.2200 804.0000 1.0000
27.2300 787.0000 1.0000
27.2400 747.0000 1.0000
27.2500 758.0000 1.0000
27.2600 795.0000 1.0000
27.2700 758.0000 1.0000
27.2800 766.0000 1.0000
27.2900 751.0000 1.0000
27.3000 782.0000 1.0000
27.3100 782.0000 1.0000
27.3200 777.0000 1.0000
27.3300 797.0000 1.0000
27.3400 763.0000 1.0000
27.3500 741.0000 1.0000
27.3600 755.0000 1.0000
27.3700 745.0000 1.0000
27.3800 779.0000 1.0000
27.3900 775.0000 1.0000
27.4000 768.0000 1.0000
27.4100 776.0000 1.0000
27.4200 762.0000 1.0000
27.4300 781.0000 1.0000
27.4400 765.0000 1.0000
27.4500 775.0000 1.0000
27.4600 761.0000 1.0000
27.4700 764.0000 1.0000
27.4800 746.0000 1.0000
27.4900 759.0000 1.0000
27.5000 787.0000 1.0000
27.5100 756.0000 1.0000
27.5200 766.0000 1.0000
27.5300 731.0000 1.0000
27.5400 765.0000 1.0000
27.5500 714.0000 1.0000
27.5600 724.0000 1.0000
27.5700 758.0000 1.0000
27.5800 722.0000 1.0000
27.5900 770.0000 1.0000
27.6000 778.0000 1.0000
27.6100 766.0000 1.0000
27.6200 784.0000 1.0000
27.6300 794.0000 1.0000
27.6400 795.0000 1.0000
27.6500 769.0000 1.0000
27.6600 755.0000 1.0000
27.6700 786.0000 1.0000
27.6800 733.0000 1.0000
27.6900 748.0000 1.0000
27.7000 751.0000 1.0000
27.7100 735.0000 1.0000
27.7200 717.0000 1.0000
27.7300 723.0000 1.0000
27.7400 687.0000 1.0000
27.7500 744.0000 1.0000
27.7600 746.0000 1.0000
27.7700 748.0000 1.0000
27.7800 763.0000 1.0000
27.7900 738.0000 1.0000
27.8000 725.0000 1.0000
27.8100 736.0000 1.0000
27.8200 728.0000 1.0000
27.8300 694.0000 1.0000
27.8400 766.0000 1.0000
27.8500 730.0000 1.0000
27.8600 752.0000 1.0000
27.8700 733.0000 1.0000
27.8800 744.0000 1.0000
27.8900 731.0000 1.0000
27.9000 734.0000 1.0000
27.9100 755.0000 1.0000
27.9200 776.0000 1.0000
27.9300 781.0000 1.0000
27.9400 741.0000 1.0000
27.9500 746.0000 1.0000
27.9600 740.0000 1.0000
27.9700 728.0000 1.0000
27.9800 729.0000 1.0000
27.9900 750.0000 1.0000
28.0000 761.0000 1.0000
28.0100 726.0000 1.0000
28.0200 759.0000 1.0000
28.0300 725.0000 1.0000
28.0400 688.0000 1.0000
28.0500 730.0000 1.0000
28.0600 787.0000 1.0000
28.0700 715.0000 1.0000
28.0800 754.0000 1.0000
28.0900 764.0000 1.0000
28.1000 693.0000 1.0000
28.1100 732.0000 1.0000
28.1200 742.0000 1.0000
28.1300 716.0000 1.0000
28.1400 703.0000 1.0000
28.1500 717.0000 1.0000
28.1600 722.0000 1.0000
28.1700 766.0000 1.0000
28.1800 747.0000 1.0000
28.1900 741.0000 1.0000
28.2000 681.0000 1.0000
28.2100 705.0000 1.0000
28.2200 723.0000 1.0000
28.2300 707.0000 1.0000
28.2400 765.0000 1.0000
28.2500 704.0000 1.0000
28.2600 738.0000 1.0000
28.2700 698.0000 1.0000
28.2800 741.0000 1.0000
28.2900 717.0000 1.0000
28.3000 700.0000 1.0000
28.3100 750.0000 1.0000
28.3200 743.0000 1.0000
28.3300 713.0000 1.0000
28.3400 709.0000 1.0000
28.3500 720.0000 1.0000
28.3600 733.0000 1.0000
28.3700 756.0000 1.0000
28.3800 752.0000 1.0000
28.3900 742.0000 1.0000
28.4000 723.0000 1.0000
28.4100 683.0000 1.0000
28.4200 679.0000 1.0000
28.4300 733.0000 1.0000
28.4400 722.0000 1.0000
28.4500 665.0000 1.0000
28.4600 691.0000 1.0000
28.4700 706.0000 1.0000
28.4800 748.0000 1.0000
28.4900 697.0000 1.0000
28.5000 741.0000 1.0000
28.5100 715.0000 1.0000
28.5200 722.0000 1.0000
28.5300 709.0000 1.0000
28.5400 689.0000 1.0000
28.5500 672.0000 1.0000
28.5600 685.0000 1.0000
28.5700 672.0000 1.0000
28.5800 722.0000 1.0000
28.5900 762.0000 1.0000
28.6000 725.0000 1.0000
28.6100 723.0000 1.0000
28.6200 690.0000 1.0000
28.6300 732.0000 1.0000
28.6400 689.0000 1.0000
28.6500 726.0000 1.0000
28.6600 649.0000 1.0000
28.6700 714.0000 1.0000
28.6800 747.0000 1.0000
28.6900 690.0000 1.0000
28.7000 732.0000 1.0000
28.7100 693.0000 1.0000
28.7200 688.0000 1.0000
28.7300 711.0000 1.0000
28.7400 722.0000 1.0000
28.7500 688.0000 1.0000
28.7600 696.0000 1.0000
28.7700 703.0000 1.0000
28.7800 707.0000 1.0000
28.7900 683.0000 1.0000
28.8000 689.0000 1.0000
28.8100 678.0000 1.0000
28.8200 705.0000 1.0000
28.8300 693.0000 1.0000
28.8400 716.0000 1.0000
28.8500 735.0000 1.0000
28.8600 681.0000 1.0000
28.8700 672.0000 1.0000
28.8800 673.0000 1.0000
28.8900 702.0000 1.0000
28.9000 715.0000 1.0000
28.9100 726.0000 1.0000
28.9200 698.0000 1.0000
28.9300 669.0000 1.0000
28.9400 689.0000 1.0000
28.9500 679.0000 1.0000
28.9600 688.0000 1.0000
28.9700 701.0000 1.0000
28.9800 667.0000 1.0000
28.9900 698.0000 1.0000
29.0000 688.0000 1.0000
29.0100 692.0000 1.0000
29.0200 738.0000 1.0000
29.0300 714.0000 1.0000
29.0400 702.0000 1.0000
29.0500 673.0000 1.0000
29.0600 694.0000 1.0000
29.0700 718.0000 1.0000
29.0800 708.0000 1.0000
29.0900 711.0000 1.0000
29.1000 712.0000 1.0000
29.1100 671.0000 1.0000
29.1200 658.0000 1.0000
29.1300 680.0000 1.0000
29.1400 675.0000 1.0000
29.1500 648.0000 1.0000
29.1600 667.0000 1.0000
29.1700 648.0000 1.0000
29.1800 737.0000 1.0000
29.1900 683.0000 1.0000
29.2000 682.0000 1.0000
29.2100 692.0000 1.0000
29.2200 682.0000 1.0000
29.2300 731.0000 1.0000
29.2400 644.0000 1.0000
29.2500 690.0000 1.0000
29.2600 686.0000 1.0000
29.2700 651.0000 1.0000
29.2800 724.0000 1.0000
29.2900 708.0000 1.0000
29.3000 680.0000 1.0000
29.3100 667.0000 1.0000
29.3200 698.0000 1.0000
29.3300 659.0000 1.0000
29.3400 665.0000 1.0000
29.3500 654.0000 1.0000
29.3600 712.0000 1.0000
29.3700 725.0000 1.0000
29.3800 664.0000 1.0000
29.3900 688.0000 1.0000
29.4000 665.0000 1.0000
29.4100 674.0000 1.0000
29.4200 672.0000 1.0000
29.4300 657.0000 1.0000
29.4400 679.0000 1.0000
29.4500 713.0000 1.0000
29.4600 701.0000 1.0000
29.4700 683.0000 1.0000
29.4800 698.0000 1.0000
29.4900 697.0000 1.0000
29.5000 735.0000 1.0000
29.5100 693.0000 1.0000
29.5200 687.0000 1.0000
29.5300 678.0000 1.0000
29.5400 661.0000 1.0000
29.5500 651.0000 1.0000
29.5600 704.0000 1.0000
29.5700 664.0000 1.0000
29.5800 674.0000 1.0000
29.5900 688.0000 1.0000
29.6000 669.0000 1.0000
29.6100 633.0000 1.0000
29.6200 671.0000 1.0000
29.6300 692.0000 1.0000
29.6400 731.0000 1.0000
29.6500 686.0000 1.0000
29.6600 634.0000 1.0000
29.6700 680.0000 1.0000
29.6800 668.0000 1.0000
29.6900 637.0000 1.0000
29.7000 700.0000 1.0000
29.7100 616.0000 1.0000
29.7200 657.0000 1.0000
29.7300 657.0000 1.0000
29.7400 655.0000 1.0000
29.7500 651.0000 1.0000
29.7600 654.0000 1.0000
29.7700 650.0000 1.0000
29.7800 694.0000 1.0000
29.7900 693.0000 1.0000
29.8000 666.0000 1.0000
29.8100 682.0000 1.0000
29.8200 694.0000 1.0000
29.8300 680.0000 1.0000
29.8400 647.0000 1.0000
29.8500 706.0000 1.0000
29.8600 666.0000 1.0000
29.8700 683.0000 1.0000
29.8800 653.0000 1.0000
29.8900 702.0000 1.0000
29.9000 703.0000 1.0000
29.9100 666.0000 1.0000
29.9200 644.0000 1.0000
29.9300 646.0000 1.0000
29.9400 655.0000 1.0000
29.9500 668.0000 1.0000
29.9600 676.0000 1.0000
29.9700 680.0000 1.0000
29.9800 672.0000 1.0000
29.9900 661.0000 1.0000
30.0000 713.0000 1.0000
30.0100 685.0000 1.0000
30.0200 682.0000 1.0000
30.0300 673.0000 1.0000
30.0400 703.0000 1.0000
30.0500 668.0000 1.0000
30.0600 647.0000 1.0000
30.0700 651.0000 1.0000
30.0800 664.0000 1.0000
30.0900 677.0000 1.0000
30.1000 673.0000 1.0000
30.1100 646.0000 1.0000
30.1200 615.0000 1.0000
30.1300 627.0000 1.0000
30.1400 666.0000 1.0000
30.1500 657.0000 1.0000
30.1600 700.0000 1.0000
30.1700 617.0000 1.0000
30.1800 695.0000 1.0000
30.1900 684.0000 1.0000
30.2000 623.0000 1.0000
30.2100 628.0000 1.0000
30.2200 698.0000 1.0000
30.2300 637.0000 1.0000
30.2400 675.0000 1.0000
30.2500 651.0000 1.0000
30.2600 674.0000 1.0000
30.2700 674.0000 1.0000
30.2800 635.0000 1.0000
30.2900 611.0000 1.0000
30.3000 666.0000 1.0000
30.3100 649.0000 1.0000
30.3200 659.0000 1.0000
30.3300 655.0000 1.0000
30.3400 644.0000 1.0000
30.3500 673.0000 1.0000
30.3600 680.0000 1.0000
30.3700 629.0000 1.0000
30.3800 666.0000 1.0000
30.3900 638.0000 1.0000
30.4000 658.0000 1.0000
30.4100 646.0000 1.0000
30.4200 665.0000 1.0000
30.4300 643.0000 1.0000
30.4400 663.0000 1.0000
30.4500 699.0000 1.0000
30.4600 637.0000 1.0000
30.4700 656.0000 1.0000
30.4800 656.0000 1.0000
30.4900 669.0000 1.0000
30.5000 663.0000 1.0000
30.5100 635.0000 1.0000
30.5200 656.0000 1.0000
30.5300 651.0000 1.0000
30.5400 637.0000 1.0000
30.5500 613.0000 1.0000
30.5600 611.0000 1.0000
30.5700 633.0000 1.0000
30.5800 653.0000 1.0000
30.5900 629.0000 1.0000
30.6000 653.0000 1.0000
30.6100 639.0000 1.0000
30.6200 729.0000 1.0000
30.6300 630.0000 1.0000
30.6400 636.0000 1.0000
30.6500 652.0000 1.0000
30.6600 677.0000 1.0000
30.6700 637.0000 1.0000
30.6800 623.0000 1.0000
30.6900 643.0000 1.0000
30.7000 641.0000 1.0000
30.7100 588.0000 1.0000
30.7200 602.0000 1.0000
30.7300 637.0000 1.0000
30.7400 675.0000 1.0000
30.7500 652.0000 1.0000
30.7600 650.0000 1.0000
30.7700 676.0000 1.0000
30.7800 643.0000 1.0000
30.7900 657.0000 1.0000
30.8000 626.0000 1.0000
30.8100 631.0000 1.0000
30.8200 634.0000 1.0000
30.8300 657.0000 1.0000
30.8400 663.0000 1.0000
30.8500 644.0000 1.0000
30.8600 632.0000 1.0000
30.8700 636.0000 1.0000
30.8800 612.0000 1.0000
30.8900 638.0000 1.0000
30.9000 627.0000 1.0000
30.9100 623.0000 1.0000
30.9200 606.0000 1.0000
30.9300 649.0000 1.0000
30.9400 644.0000 1.0000
30.9500 628.0000 1.0000
30.9600 619.0000 1.0000
30.9700 657.0000 1.0000
30.9800 651.0000 1.0000
30.9900 677.0000 1.0000
31.0000 621.0000 1.0000
31.0100 616.0000 1.0000
31.0200 665.0000 1.0000
31.0300 651.0000 1.0000
31.0400 667.0000 1.0000
31.0500 652.0000 1.0000
31.0600 614.0000 1.0000
31.0700 626.0000 1.0000
31.0800 626.0000 1.0000
31.0900 630.0000 1.0000
31.1000 636.0000 1.0000
31.1100 675.0000 1.0000
31.1200 661.0000 1.0000
31.1300 670.0000 1.0000
31.1400 633.0000 1.0000
31.1500 656.0000 1.0000
31.1600 661.0000 1.0000
31.1700 630.0000 1.0000
31.1800 677.0000 1.0000
31.1900 647.0000 1.0000
31.2000 649.0000 1.0000
31.2100 627.0000 1.0000
31.2200 665.0000 1.0000
31.2300 652.0000 1.0000
31.2400 639.0000 1.0000
31.2500 638.0000 1.0000
31.2600 613.0000 1.0000
31.2700 663.0000 1.0000
31.2800 649.0000 1.0000
31.2900 636.0000 1.0000
31.3000 639.0000 1.0000
31.3100 655.0000 1.0000
31.3200 651.0000 1.0000
31.3300 662.0000 1.0000
31.3400 626.0000 1.0000
31.3500 624.0000 1.0000
31.3600 618.0000 1.0000
31.3700 612.0000 1.0000
31.3800 644.0000 1.0000
31.3900 590.0000 1.0000
31.4000 597.0000 1.0000
31.4100 608.0000 1.0000
31.4200 627.0000 1.0000
31.4300 594.0000 1.0000
31.4400 600.0000 1.0000
31.4500 600.0000 1.0000
31.4600 619.0000 1.0000
31.4700 663.0000 1.0000
31.4800 636.0000 1.0000
31.4900 631.0000 1.0000
31.5000 628.0000 1.0000
31.5100 593.0000 1.0000
31.5200 674.0000 1.0000
31.5300 638.0000 1.0000
31.5400 634.0000 1.0000
31.5500 633.0000 1.0000
31.5600 659.0000 1.0000
31.5700 598.0000 1.0000
31.5800 593.0000 1.0000
31.5900 604.0000 1.0000
31.6000 574.0000 1.0000
31.6100 633.0000 1.0000
31.6200 618.0000 1.0000
31.6300 613.0000 1.0000
31.6400 604.0000 1.0000
31.6500 622.0000 1.0000
31.6600 681.0000 1.0000
31.6700 627.0000 1.0000
31.6800 609.0000 1.0000
31.6900 605.0000 1.0000
31.7000 584.0000 1.0000
31.7100 627.0000 1.0000
31.7200 619.0000 1.0000
31.7300 589.0000 1.0000
31.7400 629.0000 1.0000
31.7500 643.0000 1.0000
31.7600 657.0000 1.0000
31.7700 624.0000 1.0000
31.7800 620.0000 1.0000
31.7900 619.0000 1.0000
31.8000 625.0000 1.0000
31.8100 598.0000 1.0000
31.8200 618.0000 1.0000
31.8300 627.0000 1.0000
31.8400 649.0000 1.0000
31.8500 656.0000 1.0000
31.8600 658.0000 1.0000
31.8700 661.0000 1.0000
31.8800 616.0000 1.0000
31.8900 620.0000 1.0000
31.9000 599.0000 1.0000
31.9100 588.0000 1.0000
31.9200 567.0000 1.0000
31.9300 611.0000 1.0000
31.9400 621.0000 1.0000
31.9500 608.0000 1.0000
31.9600 628.0000 1.0000
31.9700 602.0000 1.0000
31.9800 647.0000 1.0000
31.9900 598.0000 1.0000
32.0000 626.0000 1.0000
32.0100 628.0000 1.0000
32.0200 637.0000 1.0000
32.0300 630.0000 1.0000
32.0400 619.0000 1.0000
32.0500 577.0000 1.0000
32.0600 619.0000 1.0000
32.0700 634.0000 1.0000
32.0800 671.0000 1.0000
32.0900 594.0000 1.0000
32.1000 645.0000 1.0000
32.1100 585.0000 1.0000
32.1200 646.0000 1.0000
32.1300 595.0000 1.0000
32.1400 628.0000 1.0000
32.1500 633.0000 1.0000
32.1600 577.0000 1.0000
32.1700 632.0000 1.0000
32.1800 616.0000 1.0000
32.1900 634.0000 1.0000
32.2000 627.0000 1.0000
32.2100 630.0000 1.0000
32.2200 597.0000 1.0000
32.2300 606.0000 1.0000
32.2400 598.0000 1.0000
32.2500 600.0000 1.0000
32.2600 601.0000 1.0000
32.2700 606.0000 1.0000
32.2800 599.0000 1.0000
32.2900 618.0000 1.0000
32.3000 589.0000 1.0000
32.3100 634.0000 1.0000
32.3200 606.0000 1.0000
32.3300 587.0000 1.0000
32.3400 599.0000 1.0000
32.3500 615.0000 1.0000
32.3600 609.0000 1.0000
32.3700 588.0000 1.0000
32.3800 624.0000 1.0000
32.3900 594.0000 1.0000
32.4000 613.0000 1.0000
32.4100 591.0000 1.0000
32.4200 591.0000 1.0000
32.4300 619.0000 1.0000
32.4400 615.0000 1.0000
32.4500 628.0000 1.0000
32.4600 609.0000 1.0000
32.4700 608.0000 1.0000
32.4800 570.0000 1.0000
32.4900 541.0000 1.0000
32.5000 581.0000 1.0000
32.5100 631.0000 1.0000
32.5200 602.0000 1.0000
32.5300 567.0000 1.0000
32.5400 559.0000 1.0000
32.5500 591.0000 1.0000
32.5600 610.0000 1.0000
32.5700 594.0000 1.0000
32.5800 631.0000 1.0000
32.5900 597.0000 1.0000
32.6000 616.0000 1.0000
32.6100 613.0000 1.0000
32.6200 624.0000 1.0000
32.6300 613.0000 1.0000
32.6400 578.0000 1.0000
32.6500 619.0000 1.0000
32.6600 599.0000 1.0000
32.6700 610.0000 1.0000
32.6800 608.0000 1.0000
32.6900 607.0000 1.0000
32.7000 589.0000 1.0000
32.7100 571.0000 1.0000
32.7200 592.0000 1.0000
32.7300 603.0000 1.0000
32.7400 624.0000 1.0000
32.7500 623.0000 1.0000
32.7600 607.0000 1.0000
32.7700 612.0000 1.0000
32.7800 641.0000 1.0000
32.7900 600.0000 1.0000
32.8000 618.0000 1.0000
32.8100 624.0000 1.0000
32.8200 608.0000 1.0000
32.8300 595.0000 1.0000
32.8400 581.0000 1.0000
32.8500 637.0000 1.0000
32.8600 668.0000 1.0000
32.8700 643.0000 1.0000
32.8800 608.0000 1.0000
32.8900 620.0000 1.0000
32.9000 606.0000 1.0000
32.9100 615.0000 1.0000
32.9200 618.0000 1.0000
32.9300 661.0000 1.0000
32.9400 589.0000 1.0000
32.9500 594.0000 1.0000
32.9600 654.0000 1.0000
32.9700 651.0000 1.0000
32.9800 639.0000 1.0000
32.9900 644.0000 1.0000
33.0000 602.0000 1.0000
33.0100 590.0000 1.0000
33.0200 615.0000 1.0000
33.0300 627.0000 1.0000
33.0400 660.0000 1.0000
33.0500 644.0000 1.0000
33.0600 627.0000 1.0000
33.0700 649.0000 1.0000
33.0800 628.0000 1.0000
33.0900 609.0000 1.0000
33.1000 652.0000 1.0000
33.1100 681.0000 1.0000
33.1200 663.0000 1.0000
33.1300 671.0000 1.0000
33.1400 680.0000 1.0000
33.1500 682.0000 1.0000
33.1600 618.0000 1.0000
33.1700 654.0000 1.0000
33.1800 653.0000 1.0000
33.1900 666.0000 1.0000
33.2000 616.0000 1.0000
33.2100 643.0000 1.0000
33.2200 635.0000 1.0000
33.2300 665.0000 1.0000
33.2400 642.0000 1.0000
33.2500 670.0000 1.0000
33.2600 677.0000 1.0000
33.2700 665.0000 1.0000
33.2800 615.0000 1.0000
33.2900 648.0000 1.0000
33.3000 673.0000 1.0000
33.3100 666.0000 1.0000
33.3200 684.0000 1.0000
33.3300 655.0000 1.0000
33.3400 671.0000 1.0000
33.3500 703.0000 1.0000
33.3600 684.0000 1.0000
33.3700 725.0000 1.0000
33.3800 756.0000 1.0000
33.3900 739.0000 1.0000
33.4000 707.0000 1.0000
33.4100 738.0000 1.0000
33.4200 756.0000 1.0000
33.4300 747.0000 1.0000
33.4400 787.0000 1.0000
33.4500 798.0000 1.0000
33.4600 829.0000 1.0000
33.4700 847.0000 1.0000
33.4800 890.0000 1.0000
33.4900 899.0000 1.0000
33.5000 936.0000 1.0000
33.5100 969.0000 1.0000
33.5200 997.0000 1.0000
33.5300 1101.0000 1.0000
33.5400 1096.0000 1.0000
33.5500 1168.0000 1.0000
33.5600 1231.0000 1.0000
33.5700 1328.0000 1.0000
33.5800 1326.0000 1.0000
33.5900 1365.0000 1.0000
33.6000 1474.0000 1.0000
33.6100 1451.0000 1.0000
33.6200 1494.0000 1.0000
33.6300 1480.0000 1.0000
33.6400 1493.0000 1.0000
33.6500 1511.0000 1.0000
33.6600 1435.0000 1.0000
33.6700 1461.0000 1.0000
33.6800 1418.0000 1.0000
33.6900 1284.0000 1.0000
33.7000 1352.0000 1.0000
33.7100 1287.0000 1.0000
33.7200 1220.0000 1.0000
33.7300 1150.0000 1.0000
33.7400 1105.0000 1.0000
33.7500 1109.0000 1.0000
33.7600 1084.0000 1.0000
33.7700 1016.0000 1.0000
33.7800 1005.0000 1.0000
33.7900 953.0000 1.0000
33.8000 927.0000 1.0000
33.8100 912.0000 1.0000
33.8200 862.0000 1.0000
33.8300 811.0000 1.0000
33.8400 802.0000 1.0000
33.8500 747.0000 1.0000
33.8600 783.0000 1.0000
33.8700 709.0000 1.0000
33.8800 716.0000 1.0000
33.8900 719.0000 1.0000
33.9000 681.0000 1.0000
33.9100 736.0000 1.0000
33.9200 719.0000 1.0000
33.9300 720.0000 1.0000
33.9400 700.0000 1.0000
33.9500 651.0000 1.0000
33.9600 678.0000 1.0000
33.9700 657.0000 1.0000
33.9800 687.0000 1.0000
33.9900 667.0000 1.0000
34.0000 653.0000 1.0000
34.0100 628.0000 1.0000
34.0200 624.0000 1.0000
34.0300 610.0000 1.0000
34.0400 612.0000 1.0000
34.0500 585.0000 1.0000
34.0600 649.0000 1.0000
34.0700 640.0000 1.0000
34.0800 581.0000 1.0000
34.0900 627.0000 1.0000
34.1000 611.0000 1.0000
34.1100 616.0000 1.0000
34.1200 614.0000 1.0000
34.1300 588.0000 1.0000
34.1400 580.0000 1.0000
34.1500 584.0000 1.0000
34.1600 610.0000 1.0000
34.1700 560.0000 1.0000
34.1800 599.0000 1.0000
34.1900 551.0000 1.0000
34.2000 569.0000 1.0000
34.2100 596.0000 1.0000
34.2200 568.0000 1.0000
34.2300 576.0000 1.0000
34.2400 567.0000 1.0000
34.2500 562.0000 1.0000
34.2600 599.0000 1.0000
34.2700 579.0000 1.0000
34.2800 575.0000 1.0000
34.2900 504.0000 1.0000
34.3000 581.0000 1.0000
34.3100 595.0000 1.0000
34.3200 567.0000 1.0000
34.3300 554.0000 1.0000
34.3400 541.0000 1.0000
34.3500 583.0000 1.0000
34.3600 557.0000 1.0000
34.3700 553.0000 1.0000
34.3800 544.0000 1.0000
34.3900 550.0000 1.0000
34.4000 512.0000 1.0000
34.4100 534.0000 1.0000
34.4200 549.0000 1.0000
34.4300 525.0000 1.0000
34.4400 555.0000 1.0000
34.4500 534.0000 1.0000
34.4600 540.0000 1.0000
34.4700 556.0000 1.0000
34.4800 588.0000 1.0000
34.4900 563.0000 1.0000
34.5000 548.0000 1.0000
34.5100 540.0000 1.0000
34.5200 529.0000 1.0000
34.5300 582.0000 1.0000
34.5400 534.0000 1.0000
34.5500 537.0000 1.0000
34.5600 537.0000 1.0000
34.5700 569.0000 1.0000
34.5800 543.0000 1.0000
34.5900 550.0000 1.0000
34.6000 572.0000 1.0000
34.6100 523.0000 1.0000
34.6200 485.0000 1.0000
34.6300 541.0000 1.0000
34.6400 557.0000 1.0000
34.6500 513.0000 1.0000
34.6600 517.0000 1.0000
34.6700 522.0000 1.0000
34.6800 512.0000 1.0000
34.6900 560.0000 1.0000
34.7000 516.0000 1.0000
34.7100 507.0000 1.0000
34.7200 517.0000 1.0000
34.7300 545.0000 1.0000
34.7400 465.0000 1.0000
34.7500 525.0000 1.0000
34.7600 524.0000 1.0000
34.7700 520.0000 1.0000
34.7800 520.0000 1.0000
34.7900 549.0000 1.0000
34.8000 513.0000 1.0000
34.8100 545.0000 1.0000
34.8200 537.0000 1.0000
34.8300 568.0000 1.0000
34.8400 528.0000 1.0000
34.8500 565.0000 1.0000
34.8600 520.0000 1.0000
34.8700 530.0000 1.0000
34.8800 564.0000 1.0000
34.8900 515.0000 1.0000
34.9000 541.0000 1.0000
34.9100 532.0000 1.0000
34.9200 487.0000 1.0000
34.9300 504.0000 1.0000
34.9400 503.0000 1.0000
34.9500 555.0000 1.0000
34.9600 552.0000 1.0000
34.9700 544.0000 1.0000
34.9800 534.0000 1.0000
34.9900 541.0000 1.0000
35.0000 499.0000 1.0000
35.0100 554.0000 1.0000
35.0200 531.0000 1.0000
35.0300 531.0000 1.0000
35.0400 523.0000 1.0000
35.0500 490.0000 1.0000
35.0600 520.0000 1.0000
35.0700 520.0000 1.0000
35.0800 516.0000 1.0000
35.0900 523.0000 1.0000
35.1000 543.0000 1.0000
35.1100 538.0000 1.0000
35.1200 542.0000 1.0000
35.1300 510.0000 1.0000
35.1400 523.0000 1.0000
35.1500 543.0000 1.0000
35.1600 560.0000 1.0000
35.1700 542.0000 1.0000
35.1800 592.0000 1.0000
35.1900 532.0000 1.0000
35.2000 535.0000 1.0000
35.2100 533.0000 1.0000
35.2200 549.0000 1.0000
35.2300 536.0000 1.0000
35.2400 564.0000 1.0000
35.2500 521.0000 1.0000
35.2600 563.0000 1.0000
35.2700 557.0000 1.0000
35.2800 571.0000 1.0000
35.2900 597.0000 1.0000
35.3000 571.0000 1.0000
35.3100 557.0000 1.0000
35.3200 566.0000 1.0000
35.3300 567.0000 1.0000
35.3400 583.0000 1.0000
35.3500 600.0000 1.0000
35.3600 604.0000 1.0000
35.3700 624.0000 1.0000
35.3800 608.0000 1.0000
35.3900 603.0000 1.0000
35.4000 629.0000 1.0000
35.4100 657.0000 1.0000
35.4200 643.0000 1.0000
35.4300 662.0000 1.0000
35.4400 705.0000 1.0000
35.4500 726.0000 1.0000
35.4600 686.0000 1.0000
35.4700 730.0000 1.0000
35.4800 735.0000 1.0000
35.4900 743.0000 1.0000
35.5000 774.0000 1.0000
35.5100 785.0000 1.0000
35.5200 833.0000 1.0000
35.5300 835.0000 1.0000
35.5400 808.0000 1.0000
35.5500 835.0000 1.0000
35.5600 819.0000 1.0000
35.5700 776.0000 1.0000
35.5800 772.0000 1.0000
35.5900 741.0000 1.0000
35.6000 800.0000 1.0000
35.6100 768.0000 1.0000
35.6200 743.0000 1.0000
35.6300 729.0000 1.0000
35.6400 727.0000 1.0000
35.6500 730.0000 1.0000
35.6600 698.0000 1.0000
35.6700 704.0000 1.0000
35.6800 693.0000 1.0000
35.6900 644.0000 1.0000
35.7000 683.0000 1.0000
35.7100 647.0000 1.0000
35.7200 648.0000 1.0000
35.7300 649.0000 1.0000
35.7400 603.0000 1.0000
35.7500 577.0000 1.0000
35.7600 569.0000 1.0000
35.7700 573.0000 1.0000
35.7800 573.0000 1.0000
35.7900 566.0000 1.0000
35.8000 556.0000 1.0000
35.8100 554.0000 1.0000
35.8200 556.0000 1.0000
35.8300 557.0000 1.0000
35.8400 495.0000 1.0000
35.8500 547.0000 1.0000
35.8600 533.0000 1.0000
35.8700 513.0000 1.0000
35.8800 525.0000 1.0000
35.8900 516.0000 1.0000
35.9000 521.0000 1.0000
35.9100 529.0000 1.0000
35.9200 513.0000 1.0000
35.9300 491.0000 1.0000
35.9400 520.0000 1.0000
35.9500 527.0000 1.0000
35.9600 533.0000 1.0000
35.9700 528.0000 1.0000
35.9800 515.0000 1.0000
35.9900 537.0000 1.0000
36.0000 500.0000 1.0000
36.0100 492.0000 1.0000
36.0200 482.0000 1.0000
36.0300 495.0000 1.0000
36.0400 499.0000 1.0000
36.0500 483.0000 1.0000
36.0600 491.0000 1.0000
36.0700 535.0000 1.0000
36.0800 550.0000 1.0000
36.0900 497.0000 1.0000
36.1000 462.0000 1.0000
36.1100 529.0000 1.0000
36.1200 463.0000 1.0000
36.1300 501.0000 1.0000
36.1400 488.0000 1.0000
36.1500 489.0000 1.0000
36.1600 480.0000 1.0000
36.1700 448.0000 1.0000
36.1800 517.0000 1.0000
36.1900 441.0000 1.0000
36.2000 467.0000 1.0000
36.2100 480.0000 1.0000
36.2200 484.0000 1.0000
36.2300 460.0000 1.0000
36.2400 508.0000 1.0000
36.2500 470.0000 1.0000
36.2600 514.0000 1.0000
36.2700 504.0000 1.0000
36.2800 491.0000 1.0000
36.2900 462.0000 1.0000
36.3000 485.0000 1.0000
36.3100 512.0000 1.0000
36.3200 499.0000 1.0000
36.3300 495.0000 1.0000
36.3400 507.0000 1.0000
36.3500 480.0000 1.0000
36.3600 480.0000 1.0000
36.3700 491.0000 1.0000
36.3800 514.0000 1.0000
36.3900 500.0000 1.0000
36.4000 505.0000 1.0000
36.4100 486.0000 1.0000
36.4200 500.0000 1.0000
36.4300 523.0000 1.0000
36.4400 466.0000 1.0000
36.4500 463.0000 1.0000
36.4600 461.0000 1.0000
36.4700 476.0000 1.0000
36.4800 473.0000 1.0000
36.4900 491.0000 1.0000
36.5000 483.0000 1.0000
36.5100 493.0000 1.0000
36.5200 500.0000 1.0000
36.5300 488.0000 1.0000
36.5400 459.0000 1.0000
36.5500 514.0000 1.0000
36.5600 505.0000 1.0000
36.5700 472.0000 1.0000
36.5800 496.0000 1.0000
36.5900 506.0000 1.0000
36.6000 457.0000 1.0000
36.6100 477.0000 1.0000
36.6200 492.0000 1.0000
36.6300 472.0000 1.0000
36.6400 449.0000 1.0000
36.6500 486.0000 1.0000
36.6600 494.0000 1.0000
36.6700 503.0000 1.0000
36.6800 476.0000 1.0000
36.6900 506.0000 1.0000
36.7000 458.0000 1.0000
36.7100 462.0000 1.0000
36.7200 492.0000 1.0000
36.7300 453.0000 1.0000
36.7400 463.0000 1.0000
36.7500 459.0000 1.0000
36.7600 492.0000 1.0000
36.7700 472.0000 1.0000
36.7800 493.0000 1.0000
36.7900 441.0000 1.0000
36.8000 489.0000 1.0000
36.8100 481.0000 1.0000
36.8200 483.0000 1.0000
36.8300 487.0000 1.0000
36.8400 469.0000 1.0000
36.8500 476.0000 1.0000
36.8600 488.0000 1.0000
36.8700 499.0000 1.0000
36.8800 486.0000 1.0000
36.8900 484.0000 1.0000
36.9000 507.0000 1.0000
36.9100 456.0000 1.0000
36.9200 459.0000 1.0000
36.9300 501.0000 1.0000
36.9400 445.0000 1.0000
36.9500 464.0000 1.0000
36.9600 459.0000 1.0000
36.9700 478.0000 1.0000
36.9800 491.0000 1.0000
36.9900 510.0000 1.0000
37.0000 485.0000 1.0000
37.0100 467.0000 1.0000
37.0200 466.0000 1.0000
37.0300 495.0000 1.0000
37.0400 502.0000 1.0000
37.0500 463.0000 1.0000
37.0600 473.0000 1.0000
37.0700 484.0000 1.0000
37.0800 472.0000 1.0000
37.0900 496.0000 1.0000
37.1000 487.0000 1.0000
37.1100 512.0000 1.0000
37.1200 508.0000 1.0000
37.1300 495.0000 1.0000
37.1400 500.0000 1.0000
37.1500 517.0000 1.0000
37.1600 488.0000 1.0000
37.1700 518.0000 1.0000
37.1800 474.0000 1.0000
37.1900 509.0000 1.0000
37.2000 507.0000 1.0000
37.2100 535.0000 1.0000
37.2200 508.0000 1.0000
37.2300 512.0000 1.0000
37.2400 517.0000 1.0000
37.2500 518.0000 1.0000
37.2600 501.0000 1.0000
37.2700 544.0000 1.0000
37.2800 549.0000 1.0000
37.2900 509.0000 1.0000
37.3000 527.0000 1.0000
37.3100 548.0000 1.0000
37.3200 572.0000 1.0000
37.3300 574.0000 1.0000
37.3400 568.0000 1.0000
37.3500 615.0000 1.0000
37.3600 585.0000 1.0000
37.3700 572.0000 1.0000
37.3800 582.0000 1.0000
37.3900 656.0000 1.0000
37.4000 667.0000 1.0000
37.4100 719.0000 1.0000
37.4200 736.0000 1.0000
37.4300 695.0000 1.0000
37.4400 754.0000 1.0000
37.4500 773.0000 1.0000
37.4600 821.0000 1.0000
37.4700 799.0000 1.0000
37.4800 902.0000 1.0000
37.4900 888.0000 1.0000
37.5000 983.0000 1.0000
37.5100 1017.0000 1.0000
37.5200 1074.0000 1.0000
37.5300 1146.0000 1.0000
37.5400 1225.0000 1.0000
37.5500 1281.0000 1.0000
37.5600 1353.0000 1.0000
37.5700 1478.0000 1.0000
37.5800 1564.0000 1.0000
37.5900 1683.0000 1.0000
37.6000 1855.0000 1.0000
37.6100 1840.0000 1.0000
37.6200 1893.0000 1.0000
37.6300 2116.0000 1.0000
37.6400 2161.0000 1.0000
37.6500 2230.0000 1.0000
37.6600 2373.0000 1.0000
37.6700 2331.0000 1.0000
37.6800 2242.0000 1.0000
37.6900 2323.0000 1.0000
37.7000 2372.0000 1.0000
37.7100 2342.0000 1.0000
37.7200 2374.0000 1.0000
37.7300 2317.0000 1.0000
37.7400 2258.0000 1.0000
37.7500 2137.0000 1.0000
37.7600 2085.0000 1.0000
37.7700 2007.0000 1.0000
37.7800 2012.0000 1.0000
37.7900 1913.0000 1.0000
37.8000 1771.0000 1.0000
37.8100 1706.0000 1.0000
37.8200 1551.0000 1.0000
37.8300 1476.0000 1.0000
37.8400 1423.0000 1.0000
37.8500 1315.0000 1.0000
37.8600 1214.0000 1.0000
37.8700 1198.0000 1.0000
37.8800 1077.0000 1.0000
37.8900 1071.0000 1.0000
37.9000 971.0000 1.0000
37.9100 976.0000 1.0000
37.9200 852.0000 1.0000
37.9300 802.0000 1.0000
37.9400 823.0000 1.0000
37.9500 795.0000 1.0000
37.9600 712.0000 1.0000
37.9700 684.0000 1.0000
37.9800 675.0000 1.0000
37.9900 631.0000 1.0000
38.0000 669.0000 1.0000
38.0100 645.0000 1.0000
38.0200 626.0000 1.0000
38.0300 608.0000 1.0000
38.0400 591.0000 1.0000
38.0500 559.0000 1.0000
38.0600 594.0000 1.0000
38.0700 549.0000 1.0000
38.0800 542.0000 1.0000
38.0900 545.0000 1.0000
38.1000 526.0000 1.0000
38.1100 502.0000 1.0000
38.1200 535.0000 1.0000
38.1300 516.0000 1.0000
38.1400 489.0000 1.0000
38.1500 506.0000 1.0000
38.1600 493.0000 1.0000
38.1700 493.0000 1.0000
38.1800 515.0000 1.0000
38.1900 432.0000 1.0000
38.2000 492.0000 1.0000
38.2100 491.0000 1.0000
38.2200 478.0000 1.0000
38.2300 464.0000 1.0000
38.2400 472.0000 1.0000
38.2500 453.0000 1.0000
38.2600 482.0000 1.0000
38.2700 452.0000 1.0000
38.2800 454.0000 1.0000
38.2900 449.0000 1.0000
38.3000 449.0000 1.0000
38.3100 416.0000 1.0000
38.3200 488.0000 1.0000
38.3300 452.0000 1.0000
38.3400 440.0000 1.0000
38.3500 432.0000 1.0000
38.3600 421.0000 1.0000
38.3700 464.0000 1.0000
38.3800 456.0000 1.0000
38.3900 430.0000 1.0000
38.4000 448.0000 1.0000
38.4100 452.0000 1.0000
38.4200 430.0000 1.0000
38.4300 485.0000 1.0000
38.4400 456.0000 1.0000
38.4500 438.0000 1.0000
38.4600 444.0000 1.0000
38.4700 427.0000 1.0000
38.4800 457.0000 1.0000
38.4900 432.0000 1.0000
38.5000 464.0000 1.0000
38.5100 438.0000 1.0000
38.5200 440.0000 1.0000
38.5300 441.0000 1.0000
38.5400 435.0000 1.0000
38.5500 438.0000 1.0000
38.5600 433.0000 1.0000
38.5700 445.0000 1.0000
38.5800 439.0000 1.0000
38.5900 464.0000 1.0000
38.6000 456.0000 1.0000
38.6100 453.0000 1.0000
38.6200 457.0000 1.0000
38.6300 456.0000 1.0000
38.6400 437.0000 1.0000
38.6500 430.0000 1.0000
38.6600 437.0000 1.0000
38.6700 444.0000 1.0000
38.6800 450.0000 1.0000
38.6900 457.0000 1.0000
38.7000 446.0000 1.0000
38.7100 437.0000 1.0000
38.7200 464.0000 1.0000
38.7300 459.0000 1.0000
38.7400 453.0000 1.0000
38.7500 429.0000 1.0000
38.7600 480.0000 1.0000
38.7700 454.0000 1.0000
38.7800 462.0000 1.0000
38.7900 468.0000 1.0000
38.8000 450.0000 1.0000
38.8100 458.0000 1.0000
38.8200 447.0000 1.0000
38.8300 469.0000 1.0000
38.8400 466.0000 1.0000
38.8500 404.0000 1.0000
38.8600 408.0000 1.0000
38.8700 434.0000 1.0000
38.8800 402.0000 1.0000
38.8900 439.0000 1.0000
38.9000 465.0000 1.0000
38.9100 471.0000 1.0000
38.9200 447.0000 1.0000
38.9300 434.0000 1.0000
38.9400 428.0000 1.0000
38.9500 428.0000 1.0000
38.9600 420.0000 1.0000
38.9700 431.0000 1.0000
38.9800 426.0000 1.0000
38.9900 408.0000 1.0000
39.0000 449.0000 1.0000
39.0100 425.0000 1.0000
39.0200 423.0000 1.0000
39.0300 455.0000 1.0000
39.0400 447.0000 1.0000
39.0500 408.0000 1.0000
39.0600 406.0000 1.0000
39.0700 394.0000 1.0000
39.0800 435.0000 1.0000
39.0900 397.0000 1.0000
39.1000 440.0000 1.0000
39.1100 399.0000 1.0000
39.1200 401.0000 1.0000
39.1300 401.0000 1.0000
39.1400 395.0000 1.0000
39.1500 414.0000 1.0000
39.1600 398.0000 1.0000
39.1700 417.0000 1.0000
39.1800 404.0000 1.0000
39.1900 419.0000 1.0000
39.2000 389.0000 1.0000
39.2100 383.0000 1.0000
39.2200 408.0000 1.0000
39.2300 400.0000 1.0000
39.2400 441.0000 1.0000
39.2500 416.0000 1.0000
39.2600 419.0000 1.0000
39.2700 436.0000 1.0000
39.2800 375.0000 1.0000
39.2900 414.0000 1.0000
39.3000 430.0000 1.0000
39.3100 423.0000 1.0000
39.3200 411.0000 1.0000
39.3300 407.0000 1.0000
39.3400 405.0000 1.0000
39.3500 411.0000 1.0000
39.3600 446.0000 1.0000
39.3700 403.0000 1.0000
39.3800 396.0000 1.0000
39.3900 418.0000 1.0000
39.4000 401.0000 1.0000
39.4100 405.0000 1.0000
39.4200 406.0000 1.0000
39.4300 401.0000 1.0000
39.4400 402.0000 1.0000
39.4500 395.0000 1.0000
39.4600 404.0000 1.0000
39.4700 424.0000 1.0000
39.4800 392.0000 1.0000
39.4900 419.0000 1.0000
39.5000 422.0000 1.0000
39.5100 393.0000 1.0000
39.5200 426.0000 1.0000
39.5300 386.0000 1.0000
39.5400 414.0000 1.0000
39.5500 454.0000 1.0000
39.5600 444.0000 1.0000
39.5700 421.0000 1.0000
39.5800 405.0000 1.0000
39.5900 411.0000 1.0000
39.6000 405.0000 1.0000
39.6100 386.0000 1.0000
39.6200 398.0000 1.0000
39.6300 407.0000 1.0000
39.6400 412.0000 1.0000
39.6500 402.0000 1.0000
39.6600 380.0000 1.0000
39.6700 411.0000 1.0000
39.6800 398.0000 1.0000
39.6900 400.0000 1.0000
39.7000 430.0000 1.0000
39.7100 418.0000 1.0000
39.7200 416.0000 1.0000
39.7300 434.0000 1.0000
39.7400 421.0000 1.0000
39.7500 402.0000 1.0000
39.7600 420.0000 1.0000
39.7700 396.0000 1.0000
39.7800 415.0000 1.0000
39.7900 419.0000 1.0000
39.8000 395.0000 1.0000
39.8100 396.0000 1.0000
39.8200 425.0000 1.0000
39.8300 420.0000 1.0000
39.8400 423.0000 1.0000
39.8500 405.0000 1.0000
39.8600 382.0000 1.0000
39.8700 419.0000 1.0000
39.8800 396.0000 1.0000
39.8900 395.0000 1.0000
39.9000 378.0000 1.0000
39.9100 390.0000 1.0000
39.9200 397.0000 1.0000
39.9300 384.0000 1.0000
39.9400 391.0000 1.0000
39.9500 381.0000 1.0000
39.9600 413.0000 1.0000
39.9700 427.0000 1.0000
39.9800 422.0000 1.0000
39.9900 399.0000 1.0000
40.0000 394.0000 1.0000
40.0100 417.0000 1.0000
40.0200 396.0000 1.0000
40.0300 392.0000 1.0000
40.0400 381.0000 1.0000
40.0500 398.0000 1.0000
40.0600 390.0000 1.0000
40.0700 457.0000 1.0000
40.0800 425.0000 1.0000
40.0900 410.0000 1.0000
40.1000 405.0000 1.0000
40.1100 409.0000 1.0000
40.1200 393.0000 1.0000
40.1300 411.0000 1.0000
40.1400 411.0000 1.0000
40.1500 376.0000 1.0000
40.1600 370.0000 1.0000
40.1700 370.0000 1.0000
40.1800 361.0000 1.0000
40.1900 384.0000 1.0000
40.2000 398.0000 1.0000
40.2100 421.0000 1.0000
40.2200 426.0000 1.0000
40.2300 391.0000 1.0000
40.2400 359.0000 1.0000
40.2500 360.0000 1.0000
40.2600 394.0000 1.0000
40.2700 407.0000 1.0000
40.2800 409.0000 1.0000
40.2900 387.0000 1.0000
40.3000 389.0000 1.0000
40.3100 416.0000 1.0000
40.3200 403.0000 1.0000
40.3300 401.0000 1.0000
40.3400 391.0000 1.0000
40.3500 373.0000 1.0000
40.3600 393.0000 1.0000
40.3700 400.0000 1.0000
40.3800 376.0000 1.0000
40.3900 404.0000 1.0000
40.4000 416.0000 1.0000
40.4100 407.0000 1.0000
40.4200 380.0000 1.0000
40.4300 397.0000 1.0000
40.4400 385.0000 1.0000
40.4500 383.0000 1.0000
40.4600 380.0000 1.0000
40.4700 397.0000 1.0000
40.4800 384.0000 1.0000
40.4900 405.0000 1.0000
40.5000 389.0000 1.0000
40.5100 390.0000 1.0000
40.5200 359.0000 1.0000
40.5300 383.0000 1.0000
40.5400 382.0000 1.0000
40.5500 367.0000 1.0000
40.5600 367.0000 1.0000
40.5700 395.0000 1.0000
40.5800 401.0000 1.0000
40.5900 385.0000 1.0000
40.6000 387.0000 1.0000
40.6100 396.0000 1.0000
40.6200 396.0000 1.0000
40.6300 420.0000 1.0000
40.6400 387.0000 1.0000
40.6500 405.0000 1.0000
40.6600 415.0000 1.0000
40.6700 370.0000 1.0000
40.6800 421.0000 1.0000
40.6900 397.0000 1.0000
40.7000 428.0000 1.0000
40.7100 390.0000 1.0000
40.7200 402.0000 1.0000
40.7300 385.0000 1.0000
40.7400 381.0000 1.0000
40.7500 395.0000 1.0000
40.7600 408.0000 1.0000
40.7700 379.0000 1.0000
40.7800 366.0000 1.0000
40.7900 406.0000 1.0000
40.8000 399.0000 1.0000
40.8100 400.0000 1.0000
40.8200 427.0000 1.0000
40.8300 429.0000 1.0000
40.8400 424.0000 1.0000
40.8500 411.0000 1.0000
40.8600 390.0000 1.0000
40.8700 412.0000 1.0000
40.8800 384.0000 1.0000
40.8900 382.0000 1.0000
40.9000 420.0000 1.0000
40.9100 381.0000 1.0000
40.9200 414.0000 1.0000
40.9300 412.0000 1.0000
40.9400 412.0000 1.0000
40.9500 388.0000 1.0000
40.9600 392.0000 1.0000
40.9700 421.0000 1.0000
40.9800 373.0000 1.0000
40.9900 361.0000 1.0000
41.0000 367.0000 1.0000
41.0100 421.0000 1.0000
41.0200 432.0000 1.0000
41.0300 371.0000 1.0000
41.0400 392.0000 1.0000
41.0500 424.0000 1.0000
41.0600 415.0000 1.0000
41.0700 374.0000 1.0000
41.0800 380.0000 1.0000
41.0900 386.0000 1.0000
41.1000 402.0000 1.0000
41.1100 428.0000 1.0000
41.1200 401.0000 1.0000
41.1300 371.0000 1.0000
41.1400 384.0000 1.0000
41.1500 391.0000 1.0000
41.1600 419.0000 1.0000
41.1700 385.0000 1.0000
41.1800 391.0000 1.0000
41.1900 431.0000 1.0000
41.2000 384.0000 1.0000
41.2100 395.0000 1.0000
41.2200 386.0000 1.0000
41.2300 404.0000 1.0000
41.2400 365.0000 1.0000
41.2500 404.0000 1.0000
41.2600 378.0000 1.0000
41.2700 357.0000 1.0000
41.2800 390.0000 1.0000
41.2900 381.0000 1.0000
41.3000 404.0000 1.0000
41.3100 372.0000 1.0000
41.3200 393.0000 1.0000
41.3300 379.0000 1.0000
41.3400 398.0000 1.0000
41.3500 374.0000 1.0000
41.3600 396.0000 1.0000
41.3700 384.0000 1.0000
41.3800 401.0000 1.0000
41.3900 399.0000 1.0000
41.4000 379.0000 1.0000
41.4100 384.0000 1.0000
41.4200 384.0000 1.0000
41.4300 372.0000 1.0000
41.4400 390.0000 1.0000
41.4500 391.0000 1.0000
41.4600 372.0000 1.0000
41.4700 396.0000 1.0000
41.4800 417.0000 1.0000
41.4900 414.0000 1.0000
41.5000 427.0000 1.0000
41.5100 396.0000 1.0000
41.5200 368.0000 1.0000
41.5300 387.0000 1.0000
41.5400 381.0000 1.0000
41.5500 385.0000 1.0000
41.5600 381.0000 1.0000
41.5700 408.0000 1.0000
41.5800 361.0000 1.0000
41.5900 378.0000 1.0000
41.6000 387.0000 1.0000
41.6100 389.0000 1.0000
41.6200 404.0000 1.0000
41.6300 392.0000 1.0000
41.6400 413.0000 1.0000
41.6500 385.0000 1.0000
41.6600 368.0000 1.0000
41.6700 409.0000 1.0000
41.6800 386.0000 1.0000
41.6900 423.0000 1.0000
41.7000 387.0000 1.0000
41.7100 404.0000 1.0000
41.7200 400.0000 1.0000
41.7300 365.0000 1.0000
41.7400 382.0000 1.0000
41.7500 414.0000 1.0000
41.7600 385.0000 1.0000
41.7700 366.0000 1.0000
41.7800 376.0000 1.0000
41.7900 394.0000 1.0000
41.8000 402.0000 1.0000
41.8100 399.0000 1.0000
41.8200 409.0000 1.0000
41.8300 386.0000 1.0000
41.8400 362.0000 1.0000
41.8500 411.0000 1.0000
41.8600 386.0000 1.0000
41.8700 379.0000 1.0000
41.8800 390.0000 1.0000
41.8900 355.0000 1.0000
41.9000 403.0000 1.0000
41.9100 368.0000 1.0000
41.9200 382.0000 1.0000
41.9300 345.0000 1.0000
41.9400 385.0000 1.0000
41.9500 412.0000 1.0000
41.9600 376.0000 1.0000
41.9700 409.0000 1.0000
41.9800 376.0000 1.0000
41.9900 377.0000 1.0000
42.0000 382.0000 1.0000
42.0100 410.0000 1.0000
42.0200 394.0000 1.0000
42.0300 402.0000 1.0000
42.0400 387.0000 1.0000
42.0500 368.0000 1.0000
42.0600 370.0000 1.0000
42.0700 380.0000 1.0000
42.0800 388.0000 1.0000
42.0900 373.0000 1.0000
42.1000 380.0000 1.0000
42.1100 365.0000 1.0000
42.1200 359.0000 1.0000
42.1300 403.0000 1.0000
42.1400 423.0000 1.0000
42.1500 400.0000 1.0000
42.1600 373.0000 1.0000
42.1700 386.0000 1.0000
42.1800 393.0000 1.0000
42.1900 373.0000 1.0000
42.2000 388.0000 1.0000
42.2100 368.0000 1.0000
42.2200 365.0000 1.0000
42.2300 386.0000 1.0000
42.2400 366.0000 1.0000
42.2500 400.0000 1.0000
42.2600 391.0000 1.0000
42.2700 401.0000 1.0000
42.2800 393.0000 1.0000
42.2900 418.0000 1.0000
42.3000 415.0000 1.0000
42.3100 437.0000 1.0000
42.3200 418.0000 1.0000
42.3300 422.0000 1.0000
42.3400 400.0000 1.0000
42.3500 417.0000 1.0000
42.3600 440.0000 1.0000
42.3700 396.0000 1.0000
42.3800 393.0000 1.0000
42.3900 423.0000 1.0000
42.4000 416.0000 1.0000
42.4100 421.0000 1.0000
42.4200 431.0000 1.0000
42.4300 411.0000 1.0000
42.4400 410.0000 1.0000
42.4500 403.0000 1.0000
42.4600 420.0000 1.0000
42.4700 434.0000 1.0000
42.4800 401.0000 1.0000
42.4900 394.0000 1.0000
42.5000 411.0000 1.0000
42.5100 405.0000 1.0000
42.5200 424.0000 1.0000
42.5300 413.0000 1.0000
42.5400 404.0000 1.0000
42.5500 395.0000 1.0000
42.5600 387.0000 1.0000
42.5700 395.0000 1.0000
42.5800 393.0000 1.0000
42.5900 378.0000 1.0000
42.6000 391.0000 1.0000
42.6100 378.0000 1.0000
42.6200 395.0000 1.0000
42.6300 393.0000 1.0000
42.6400 393.0000 1.0000
42.6500 362.0000 1.0000
42.6600 362.0000 1.0000
42.6700 381.0000 1.0000
42.6800 361.0000 1.0000
42.6900 408.0000 1.0000
42.7000 386.0000 1.0000
42.7100 368.0000 1.0000
42.7200 413.0000 1.0000
42.7300 366.0000 1.0000
42.7400 402.0000 1.0000
42.7500 375.0000 1.0000
42.7600 363.0000 1.0000
42.7700 389.0000 1.0000
42.7800 388.0000 1.0000
42.7900 377.0000 1.0000
42.8000 377.0000 1.0000
42.8100 395.0000 1.0000
42.8200 365.0000 1.0000
42.8300 358.0000 1.0000
42.8400 374.0000 1.0000
42.8500 343.0000 1.0000
42.8600 417.0000 1.0000
42.8700 393.0000 1.0000
42.8800 363.0000 1.0000
42.8900 383.0000 1.0000
42.9000 391.0000 1.0000
42.9100 395.0000 1.0000
42.9200 388.0000 1.0000
42.9300 374.0000 1.0000
42.9400 357.0000 1.0000
42.9500 365.0000 1.0000
42.9600 387.0000 1.0000
42.9700 387.0000 1.0000
42.9800 392.0000 1.0000
42.9900 371.0000 1.0000
43.0000 356.0000 1.0000
43.0100 373.0000 1.0000
43.0200 386.0000 1.0000
43.0300 361.0000 1.0000
43.0400 380.0000 1.0000
43.0500 373.0000 1.0000
43.0600 373.0000 1.0000
43.0700 377.0000 1.0000
43.0800 376.0000 1.0000
43.0900 383.0000 1.0000
43.1000 369.0000 1.0000
43.1100 388.0000 1.0000
43.1200 386.0000 1.0000
43.1300 352.0000 1.0000
43.1400 369.0000 1.0000
43.1500 349.0000 1.0000
43.1600 355.0000 1.0000
43.1700 371.0000 1.0000
43.1800 368.0000 1.0000
43.1900 385.0000 1.0000
43.2000 377.0000 1.0000
43.2100 384.0000 1.0000
43.2200 374.0000 1.0000
43.2300 401.0000 1.0000
43.2400 371.0000 1.0000
43.2500 358.0000 1.0000
43.2600 368.0000 1.0000
43.2700 389.0000 1.0000
43.2800 386.0000 1.0000
43.2900 355.0000 1.0000
43.3000 378.0000 1.0000
43.3100 379.0000 1.0000
43.3200 393.0000 1.0000
43.3300 397.0000 1.0000
43.3400 393.0000 1.0000
43.3500 379.0000 1.0000
43.3600 367.0000 1.0000
43.3700 363.0000 1.0000
43.3800 376.0000 1.0000
43.3900 378.0000 1.0000
43.4000 419.0000 1.0000
43.4100 377.0000 1.0000
43.4200 363.0000 1.0000
43.4300 382.0000 1.0000
43.4400 358.0000 1.0000
43.4500 375.0000 1.0000
43.4600 362.0000 1.0000
43.4700 382.0000 1.0000
43.4800 378.0000 1.0000
43.4900 381.0000 1.0000
43.5000 370.0000 1.0000
43.5100 367.0000 1.0000
43.5200 417.0000 1.0000
43.5300 379.0000 1.0000
43.5400 366.0000 1.0000
43.5500 368.0000 1.0000
43.5600 371.0000 1.0000
43.5700 382.0000 1.0000
43.5800 353.0000 1.0000
43.5900 364.0000 1.0000
43.6000 375.0000 1.0000
43.6100 362.0000 1.0000
43.6200 372.0000 1.0000
43.6300 384.0000 1.0000
43.6400 362.0000 1.0000
43.6500 405.0000 1.0000
43.6600 374.0000 1.0000
43.6700 358.0000 1.0000
43.6800 340.0000 1.0000
43.6900 350.0000 1.0000
43.7000 366.0000 1.0000
43.7100 354.0000 1.0000
43.7200 343.0000 1.0000
43.7300 363.0000 1.0000
43.7400 357.0000 1.0000
43.7500 354.0000 1.0000
43.7600 350.0000 1.0000
43.7700 386.0000 1.0000
43.7800 387.0000 1.0000
43.7900 343.0000 1.0000
43.8000 383.0000 1.0000
43.8100 371.0000 1.0000
43.8200 381.0000 1.0000
43.8300 403.0000 1.0000
43.8400 372.0000 1.0000
43.8500 363.0000 1.0000
43.8600 370.0000 1.0000
43.8700 365.0000 1.0000
43.8800 377.0000 1.0000
43.8900 351.0000 1.0000
43.9000 396.0000 1.0000
43.9100 372.0000 1.0000
43.9200 382.0000 1.0000
43.9300 377.0000 1.0000
43.9400 355.0000 1.0000
43.9500 354.0000 1.0000
43.9600 354.0000 1.0000
43.9700 360.0000 1.0000
43.9800 340.0000 1.0000
43.9900 374.0000 1.0000
44.0000 360.0000 1.0000
44.0100 351.0000 1.0000
44.0200 358.0000 1.0000
44.0300 381.0000 1.0000
44.0400 371.0000 1.0000
44.0500 371.0000 1.0000
44.0600 369.0000 1.0000
44.0700 387.0000 1.0000
44.0800 369.0000 1.0000
44.0900 344.0000 1.0000
44.1000 338.0000 1.0000
44.1100 332.0000 1.0000
44.1200 358.0000 1.0000
44.1300 367.0000 1.0000
44.1400 364.0000 1.0000
44.1500 374.0000 1.0000
44.1600 363.0000 1.0000
44.1700 373.0000 1.0000
44.1800 367.0000 1.0000
44.1900 367.0000 1.0000
44.2000 388.0000 1.0000
44.2100 397.0000 1.0000
44.2200 348.0000 1.0000
44.2300 375.0000 1.0000
44.2400 360.0000 1.0000
44.2500 362.0000 1.0000
44.2600 359.0000 1.0000
44.2700 370.0000 1.0000
44.2800 376.0000 1.0000
44.2900 361.0000 1.0000
44.3000 379.0000 1.0000
44.3100 357.0000 1.0000
44.3200 359.0000 1.0000
44.3300 369.0000 1.0000
44.3400 401.0000 1.0000
44.3500 370.0000 1.0000
44.3600 351.0000 1.0000
44.3700 387.0000 1.0000
44.3800 369.0000 1.0000
44.3900 391.0000 1.0000
44.4000 355.0000 1.0000
44.4100 378.0000 1.0000
44.4200 371.0000 1.0000
44.4300 377.0000 1.0000
44.4400 365.0000 1.0000
44.4500 366.0000 1.0000
44.4600 372.0000 1.0000
44.4700 363.0000 1.0000
44.4800 354.0000 1.0000
44.4900 325.0000 1.0000
44.5000 349.0000 1.0000
44.5100 317.0000 1.0000
44.5200 361.0000 1.0000
44.5300 339.0000 1.0000
44.5400 339.0000 1.0000
44.5500 335.0000 1.0000
44.5600 380.0000 1.0000
44.5700 337.0000 1.0000
44.5800 373.0000 1.0000
44.5900 345.0000 1.0000
44.6000 363.0000 1.0000
44.6100 369.0000 1.0000
44.6200 354.0000 1.0000
44.6300 358.0000 1.0000
44.6400 358.0000 1.0000
44.6500 348.0000 1.0000
44.6600 341.0000 1.0000
44.6700 342.0000 1.0000
44.6800 371.0000 1.0000
44.6900 323.0000 1.0000
44.7000 330.0000 1.0000
44.7100 323.0000 1.0000
44.7200 345.0000 1.0000
44.7300 367.0000 1.0000
44.7400 356.0000 1.0000
44.7500 371.0000 1.0000
44.7600 370.0000 1.0000
44.7700 352.0000 1.0000
44.7800 342.0000 1.0000
44.7900 332.0000 1.0000
44.8000 345.0000 1.0000
44.8100 319.0000 1.0000
44.8200 336.0000 1.0000
44.8300 344.0000 1.0000
44.8400 349.0000 1.0000
44.8500 326.0000 1.0000
44.8600 331.0000 1.0000
44.8700 362.0000 1.0000
44.8800 369.0000 1.0000
44.8900 367.0000 1.0000
44.9000 368.0000 1.0000
44.9100 351.0000 1.0000
44.9200 353.0000 1.0000
44.9300 349.0000 1.0000
44.9400 348.0000 1.0000
44.9500 347.0000 1.0000
44.9600 349.0000 1.0000
44.9700 347.0000 1.0000
44.9800 338.0000 1.0000
44.9900 327.0000 1.0000
45.0000 366.0000 1.0000
45.0100 346.0000 1.0000
45.0200 345.0000 1.0000
45.0300 350.0000 1.0000
45.0400 377.0000 1.0000
45.0500 357.0000 1.0000
45.0600 360.0000 1.0000
45.0700 315.0000 1.0000
45.0800 317.0000 1.0000
45.0900 318.0000 1.0000
45.1000 346.0000 1.0000
45.1100 378.0000 1.0000
45.1200 359.0000 1.0000
45.1300 377.0000 1.0000
45.1400 370.0000 1.0000
45.1500 344.0000 1.0000
45.1600 347.0000 1.0000
45.1700 358.0000 1.0000
45.1800 370.0000 1.0000
45.1900 352.0000 1.0000
45.2000 356.0000 1.0000
45.2100 385.0000 1.0000
45.2200 353.0000 1.0000
45.2300 316.0000 1.0000
45.2400 352.0000 1.0000
45.2500 353.0000 1.0000
45.2600 337.0000 1.0000
45.2700 336.0000 1.0000
45.2800 346.0000 1.0000
45.2900 349.0000 1.0000
45.3000 385.0000 1.0000
45.3100 372.0000 1.0000
45.3200 335.0000 1.0000
45.3300 359.0000 1.0000
45.3400 360.0000 1.0000
45.3500 331.0000 1.0000
45.3600 323.0000 1.0000
45.3700 346.0000 1.0000
45.3800 368.0000 1.0000
45.3900 347.0000 1.0000
45.4000 355.0000 1.0000
45.4100 356.0000 1.0000
45.4200 375.0000 1.0000
45.4300 384.0000 1.0000
45.4400 393.0000 1.0000
45.4500 344.0000 1.0000
45.4600 328.0000 1.0000
45.4700 328.0000 1.0000
45.4800 342.0000 1.0000
45.4900 348.0000 1.0000
45.5000 355.0000 1.0000
45.5100 358.0000 1.0000
45.5200 380.0000 1.0000
45.5300 331.0000 1.0000
45.5400 334.0000 1.0000
45.5500 329.0000 1.0000
45.5600 366.0000 1.0000
45.5700 367.0000 1.0000
45.5800 369.0000 1.0000
45.5900 337.0000 1.0000
45.6000 382.0000 1.0000
45.6100 359.0000 1.0000
45.6200 357.0000 1.0000
45.6300 364.0000 1.0000
45.6400 363.0000 1.0000
45.6500 359.0000 1.0000
45.6600 337.0000 1.0000
45.6700 325.0000 1.0000
45.6800 344.0000 1.0000
45.6900 362.0000 1.0000
45.7000 362.0000 1.0000
45.7100 337.0000 1.0000
45.7200 371.0000 1.0000
45.7300 381.0000 1.0000
45.7400 355.0000 1.0000
45.7500 354.0000 1.0000
45.7600 363.0000 1.0000
45.7700 365.0000 1.0000
45.7800 319.0000 1.0000
45.7900 344.0000 1.0000
45.8000 356.0000 1.0000
45.8100 361.0000 1.0000
45.8200 352.0000 1.0000
45.8300 332.0000 1.0000
45.8400 386.0000 1.0000
45.8500 339.0000 1.0000
45.8600 345.0000 1.0000
45.8700 331.0000 1.0000
45.8800 341.0000 1.0000
45.8900 323.0000 1.0000
45.9000 352.0000 1.0000
45.9100 353.0000 1.0000
45.9200 366.0000 1.0000
45.9300 313.0000 1.0000
45.9400 335.0000 1.0000
45.9500 331.0000 1.0000
45.9600 337.0000 1.0000
45.9700 344.0000 1.0000
45.9800 342.0000 1.0000
45.9900 318.0000 1.0000
46.0000 351.0000 1.0000
46.0100 367.0000 1.0000
46.0200 393.0000 1.0000
46.0300 352.0000 1.0000
46.0400 374.0000 1.0000
46.0500 370.0000 1.0000
46.0600 340.0000 1.0000
46.0700 326.0000 1.0000
46.0800 348.0000 1.0000
46.0900 340.0000 1.0000
46.1000 366.0000 1.0000
46.1100 363.0000 1.0000
46.1200 344.0000 1.0000
46.1300 340.0000 1.0000
46.1400 354.0000 1.0000
46.1500 347.0000 1.0000
46.1600 376.0000 1.0000
46.1700 376.0000 1.0000
46.1800 360.0000 1.0000
46.1900 394.0000 1.0000
46.2000 365.0000 1.0000
46.2100 369.0000 1.0000
46.2200 363.0000 1.0000
46.2300 350.0000 1.0000
46.2400 354.0000 1.0000
46.2500 353.0000 1.0000
46.2600 387.0000 1.0000
46.2700 344.0000 1.0000
46.2800 379.0000 1.0000
46.2900 362.0000 1.0000
46.3000 351.0000 1.0000
46.3100 357.0000 1.0000
46.3200 325.0000 1.0000
46.3300 356.0000 1.0000
46.3400 337.0000 1.0000
46.3500 337.0000 1.0000
46.3600 358.0000 1.0000
46.3700 316.0000 1.0000
46.3800 346.0000 1.0000
46.3900 362.0000 1.0000
46.4000 343.0000 1.0000
46.4100 345.0000 1.0000
46.4200 310.0000 1.0000
46.4300 332.0000 1.0000
46.4400 348.0000 1.0000
46.4500 355.0000 1.0000
46.4600 341.0000 1.0000
46.4700 347.0000 1.0000
46.4800 345.0000 1.0000
46.4900 341.0000 1.0000
46.5000 361.0000 1.0000
46.5100 335.0000 1.0000
46.5200 383.0000 1.0000
46.5300 349.0000 1.0000
46.5400 322.0000 1.0000
46.5500 346.0000 1.0000
46.5600 353.0000 1.0000
46.5700 361.0000 1.0000
46.5800 376.0000 1.0000
46.5900 359.0000 1.0000
46.6000 332.0000 1.0000
46.6100 331.0000 1.0000
46.6200 332.0000 1.0000
46.6300 363.0000 1.0000
46.6400 344.0000 1.0000
46.6500 359.0000 1.0000
46.6600 327.0000 1.0000
46.6700 341.0000 1.0000
46.6800 314.0000 1.0000
46.6900 345.0000 1.0000
46.7000 318.0000 1.0000
46.7100 316.0000 1.0000
46.7200 336.0000 1.0000
46.7300 323.0000 1.0000
46.7400 331.0000 1.0000
46.7500 356.0000 1.0000
46.7600 344.0000 1.0000
46.7700 358.0000 1.0000
46.7800 352.0000 1.0000
46.7900 341.0000 1.0000
46.8000 307.0000 1.0000
46.8100 305.0000 1.0000
46.8200 343.0000 1.0000
46.8300 340.0000 1.0000
46.8400 342.0000 1.0000
46.8500 336.0000 1.0000
46.8600 345.0000 1.0000
46.8700 353.0000 1.0000
46.8800 349.0000 1.0000
46.8900 344.0000 1.0000
46.9000 328.0000 1.0000
46.9100 345.0000 1.0000
46.9200 331.0000 1.0000
46.9300 356.0000 1.0000
46.9400 354.0000 1.0000
46.9500 336.0000 1.0000
46.9600 326.0000 1.0000
46.9700 352.0000 1.0000
46.9800 337.0000 1.0000
46.9900 350.0000 1.0000
47.0000 366.0000 1.0000
47.0100 351.0000 1.0000
47.0200 319.0000 1.0000
47.0300 330.0000 1.0000
47.0400 357.0000 1.0000
47.0500 360.0000 1.0000
47.0600 366.0000 1.0000
47.0700 304.0000 1.0000
47.0800 303.0000 1.0000
47.0900 331.0000 1.0000
47.1000 350.0000 1.0000
47.1100 338.0000 1.0000
47.1200 349.0000 1.0000
47.1300 347.0000 1.0000
47.1400 347.0000 1.0000
47.1500 331.0000 1.0000
47.1600 334.0000 1.0000
47.1700 354.0000 1.0000
47.1800 348.0000 1.0000
47.1900 325.0000 1.0000
47.2000 337.0000 1.0000
47.2100 350.0000 1.0000
47.2200 347.0000 1.0000
47.2300 368.0000 1.0000
47.2400 345.0000 1.0000
47.2500 319.0000 1.0000
47.2600 331.0000 1.0000
47.2700 329.0000 1.0000
47.2800 340.0000 1.0000
47.2900 346.0000 1.0000
47.3000 321.0000 1.0000
47.3100 337.0000 1.0000
47.3200 344.0000 1.0000
47.3300 331.0000 1.0000
47.3400 339.0000 1.0000
47.3500 343.0000 1.0000
47.3600 320.0000 1.0000
47.3700 333.0000 1.0000
47.3800 299.0000 1.0000
47.3900 300.0000 1.0000
47.4000 346.0000 1.0000
47.4100 352.0000 1.0000
47.4200 318.0000 1.0000
47.4300 355.0000 1.0000
47.4400 344.0000 1.0000
47.4500 319.0000 1.0000
47.4600 356.0000 1.0000
47.4700 318.0000 1.0000
47.4800 333.0000 1.0000
47.4900 327.0000 1.0000
47.5000 345.0000 1.0000
47.5100 353.0000 1.0000
47.5200 341.0000 1.0000
47.5300 316.0000 1.0000
47.5400 328.0000 1.0000
47.5500 338.0000 1.0000
47.5600 319.0000 1.0000
47.5700 340.0000 1.0000
47.5800 304.0000 1.0000
47.5900 334.0000 1.0000
47.6000 333.0000 1.0000
47.6100 301.0000 1.0000
47.6200 318.0000 1.0000
47.6300 348.0000 1.0000
47.6400 365.0000 1.0000
47.6500 334.0000 1.0000
47.6600 327.0000 1.0000
47.6700 353.0000 1.0000
47.6800 327.0000 1.0000
47.6900 346.0000 1.0000
47.7000 350.0000 1.0000
47.7100 347.0000 1.0000
47.7200 332.0000 1.0000
47.7300 325.0000 1.0000
47.7400 301.0000 1.0000
47.7500 313.0000 1.0000
47.7600 307.0000 1.0000
47.7700 339.0000 1.0000
47.7800 321.0000 1.0000
47.7900 315.0000 1.0000
47.8000 323.0000 1.0000
47.8100 329.0000 1.0000
47.8200 318.0000 1.0000
47.8300 319.0000 1.0000
47.8400 335.0000 1.0000
47.8500 371.0000 1.0000
47.8600 352.0000 1.0000
47.8700 319.0000 1.0000
47.8800 334.0000 1.0000
47.8900 340.0000 1.0000
47.9000 343.0000 1.0000
47.9100 332.0000 1.0000
47.9200 317.0000 1.0000
47.9300 324.0000 1.0000
47.9400 323.0000 1.0000
47.9500 339.0000 1.0000
47.9600 345.0000 1.0000
47.9700 338.0000 1.0000
47.9800 327.0000 1.0000
47.9900 325.0000 1.0000
48.0000 339.0000 1.0000
48.0100 315.0000 1.0000
48.0200 310.0000 1.0000
48.0300 336.0000 1.0000
48.0400 333.0000 1.0000
48.0500 324.0000 1.0000
48.0600 315.0000 1.0000
48.0700 310.0000 1.0000
48.0800 340.0000 1.0000
48.0900 330.0000 1.0000
48.1000 331.0000 1.0000
48.1100 341.0000 1.0000
48.1200 314.0000 1.0000
48.1300 331.0000 1.0000
48.1400 324.0000 1.0000
48.1500 327.0000 1.0000
48.1600 335.0000 1.0000
48.1700 343.0000 1.0000
48.1800 348.0000 1.0000
48.1900 313.0000 1.0000
48.2000 334.0000 1.0000
48.2100 319.0000 1.0000
48.2200 322.0000 1.0000
48.2300 298.0000 1.0000
48.2400 302.0000 1.0000
48.2500 307.0000 1.0000
48.2600 333.0000 1.0000
48.2700 319.0000 1.0000
48.2800 335.0000 1.0000
48.2900 328.0000 1.0000
48.3000 334.0000 1.0000
48.3100 369.0000 1.0000
48.3200 365.0000 1.0000
48.3300 337.0000 1.0000
48.3400 311.0000 1.0000
48.3500 315.0000 1.0000
48.3600 327.0000 1.0000
48.3700 332.0000 1.0000
48.3800 313.0000 1.0000
48.3900 309.0000 1.0000
48.4000 335.0000 1.0000
48.4100 309.0000 1.0000
48.4200 308.0000 1.0000
48.4300 339.0000 1.0000
48.4400 318.0000 1.0000
48.4500 307.0000 1.0000
48.4600 323.0000 1.0000
48.4700 306.0000 1.0000
48.4800 305.0000 1.0000
48.4900 313.0000 1.0000
48.5000 371.0000 1.0000
48.5100 329.0000 1.0000
48.5200 306.0000 1.0000
48.5300 359.0000 1.0000
48.5400 330.0000 1.0000
48.5500 344.0000 1.0000
48.5600 320.0000 1.0000
48.5700 327.0000 1.0000
48.5800 312.0000 1.0000
48.5900 357.0000 1.0000
48.6000 320.0000 1.0000
48.6100 307.0000 1.0000
48.6200 329.0000 1.0000
48.6300 354.0000 1.0000
48.6400 326.0000 1.0000
48.6500 319.0000 1.0000
48.6600 331.0000 1.0000
48.6700 348.0000 1.0000
48.6800 316.0000 1.0000
48.6900 330.0000 1.0000
48.7000 317.0000 1.0000
48.7100 370.0000 1.0000
48.7200 327.0000 1.0000
48.7300 327.0000 1.0000
48.7400 333.0000 1.0000
48.7500 301.0000 1.0000
48.7600 335.0000 1.0000
48.7700 327.0000 1.0000
48.7800 345.0000 1.0000
48.7900 340.0000 1.0000
48.8000 331.0000 1.0000
48.8100 354.0000 1.0000
48.8200 309.0000 1.0000
48.8300 294.0000 1.0000
48.8400 323.0000 1.0000
48.8500 332.0000 1.0000
48.8600 330.0000 1.0000
48.8700 304.0000 1.0000
48.8800 313.0000 1.0000
48.8900 341.0000 1.0000
48.9000 374.0000 1.0000
48.9100 326.0000 1.0000
48.9200 346.0000 1.0000
48.9300 316.0000 1.0000
48.9400 340.0000 1.0000
48.9500 352.0000 1.0000
48.9600 343.0000 1.0000
48.9700 345.0000 1.0000
48.9800 314.0000 1.0000
48.9900 338.0000 1.0000
49.0000 352.0000 1.0000
49.0100 314.0000 1.0000
49.0200 318.0000 1.0000
49.0300 366.0000 1.0000
49.0400 338.0000 1.0000
49.0500 352.0000 1.0000
49.0600 336.0000 1.0000
49.0700 319.0000 1.0000
49.0800 325.0000 1.0000
49.0900 321.0000 1.0000
49.1000 318.0000 1.0000
49.1100 334.0000 1.0000
49.1200 322.0000 1.0000
49.1300 298.0000 1.0000
49.1400 326.0000 1.0000
49.1500 335.0000 1.0000
49.1600 337.0000 1.0000
49.1700 339.0000 1.0000
49.1800 357.0000 1.0000
49.1900 316.0000 1.0000
49.2000 308.0000 1.0000
49.2100 302.0000 1.0000
49.2200 321.0000 1.0000
49.2300 344.0000 1.0000
49.2400 332.0000 1.0000
49.2500 355.0000 1.0000
49.2600 330.0000 1.0000
49.2700 323.0000 1.0000
49.2800 318.0000 1.0000
49.2900 326.0000 1.0000
49.3000 326.0000 1.0000
49.3100 314.0000 1.0000
49.3200 342.0000 1.0000
49.3300 321.0000 1.0000
49.3400 347.0000 1.0000
49.3500 343.0000 1.0000
49.3600 337.0000 1.0000
49.3700 330.0000 1.0000
49.3800 328.0000 1.0000
49.3900 319.0000 1.0000
49.4000 330.0000 1.0000
49.4100 325.0000 1.0000
49.4200 327.0000 1.0000
49.4300 334.0000 1.0000
49.4400 337.0000 1.0000
49.4500 313.0000 1.0000
49.4600 336.0000 1.0000
49.4700 340.0000 1.0000
49.4800 320.0000 1.0000
49.4900 353.0000 1.0000
49.5000 347.0000 1.0000
49.5100 353.0000 1.0000
49.5200 329.0000 1.0000
49.5300 341.0000 1.0000
49.5400 346.0000 1.0000
49.5500 405.0000 1.0000
49.5600 314.0000 1.0000
49.5700 328.0000 1.0000
49.5800 344.0000 1.0000
49.5900 336.0000 1.0000
49.6000 331.0000 1.0000
49.6100 339.0000 1.0000
49.6200 320.0000 1.0000
49.6300 337.0000 1.0000
49.6400 338.0000 1.0000
49.6500 373.0000 1.0000
49.6600 350.0000 1.0000
49.6700 372.0000 1.0000
49.6800 342.0000 1.0000
49.6900 343.0000 1.0000
49.7000 313.0000 1.0000
49.7100 324.0000 1.0000
49.7200 329.0000 1.0000
49.7300 341.0000 1.0000
49.7400 324.0000 1.0000
49.7500 331.0000 1.0000
49.7600 399.0000 1.0000
49.7700 325.0000 1.0000
49.7800 305.0000 1.0000
49.7900 335.0000 1.0000
49.8000 323.0000 1.0000
49.8100 334.0000 1.0000
49.8200 339.0000 1.0000
49.8300 323.0000 1.0000
49.8400 313.0000 1.0000
49.8500 327.0000 1.0000
49.8600 334.0000 1.0000
49.8700 326.0000 1.0000
49.8800 329.0000 1.0000
49.8900 330.0000 1.0000
49.9000 340.0000 1.0000
49.9100 299.0000 1.0000
49.9200 323.0000 1.0000
49.9300 323.0000 1.0000
49.9400 336.0000 1.0000
49.9500 338.0000 1.0000
49.9600 305.0000 1.0000
49.9700 318.0000 1.0000
49.9800 329.0000 1.0000
49.9900 343.0000 1.0000
50.0000 328.0000 1.0000
50.0100 363.0000 1.0000
50.0200 329.0000 1.0000
50.0300 309.0000 1.0000
50.0400 340.0000 1.0000
50.0500 325.0000 1.0000
50.0600 338.0000 1.0000
50.0700 320.0000 1.0000
50.0800 341.0000 1.0000
50.0900 348.0000 1.0000
50.1000 321.0000 1.0000
50.1100 322.0000 1.0000
50.1200 319.0000 1.0000
50.1300 316.0000 1.0000
50.1400 310.0000 1.0000
50.1500 324.0000 1.0000
50.1600 322.0000 1.0000
50.1700 319.0000 1.0000
50.1800 322.0000 1.0000
50.1900 313.0000 1.0000
50.2000 314.0000 1.0000
50.2100 329.0000 1.0000
50.2200 365.0000 1.0000
50.2300 368.0000 1.0000
50.2400 324.0000 1.0000
50.2500 305.0000 1.0000
50.2600 338.0000 1.0000
50.2700 295.0000 1.0000
50.2800 328.0000 1.0000
50.2900 315.0000 1.0000
50.3000 335.0000 1.0000
50.3100 307.0000 1.0000
50.3200 347.0000 1.0000
50.3300 337.0000 1.0000
50.3400 321.0000 1.0000
50.3500 320.0000 1.0000
50.3600 300.0000 1.0000
50.3700 329.0000 1.0000
50.3800 354.0000 1.0000
50.3900 338.0000 1.0000
50.4000 320.0000 1.0000
50.4100 339.0000 1.0000
50.4200 326.0000 1.0000
50.4300 319.0000 1.0000
50.4400 341.0000 1.0000
50.4500 338.0000 1.0000
50.4600 334.0000 1.0000
50.4700 347.0000 1.0000
50.4800 366.0000 1.0000
50.4900 331.0000 1.0000
50.5000 334.0000 1.0000
50.5100 311.0000 1.0000
50.5200 340.0000 1.0000
50.5300 347.0000 1.0000
50.5400 347.0000 1.0000
50.5500 315.0000 1.0000
50.5600 336.0000 1.0000
50.5700 337.0000 1.0000
50.5800 350.0000 1.0000
50.5900 338.0000 1.0000
50.6000 354.0000 1.0000
50.6100 351.0000 1.0000
50.6200 328.0000 1.0000
50.6300 352.0000 1.0000
50.6400 346.0000 1.0000
50.6500 359.0000 1.0000
50.6600 327.0000 1.0000
50.6700 375.0000 1.0000
50.6800 328.0000 1.0000
50.6900 322.0000 1.0000
50.7000 327.0000 1.0000
50.7100 327.0000 1.0000
50.7200 348.0000 1.0000
50.7300 372.0000 1.0000
50.7400 322.0000 1.0000
50.7500 324.0000 1.0000
50.7600 316.0000 1.0000
50.7700 349.0000 1.0000
50.7800 323.0000 1.0000
50.7900 348.0000 1.0000
50.8000 357.0000 1.0000
50.8100 352.0000 1.0000
50.8200 374.0000 1.0000
50.8300 333.0000 1.0000
50.8400 343.0000 1.0000
50.8500 367.0000 1.0000
50.8600 356.0000 1.0000
50.8700 364.0000 1.0000
50.8800 323.0000 1.0000
50.8900 351.0000 1.0000
50.9000 372.0000 1.0000
50.9100 370.0000 1.0000
50.9200 337.0000 1.0000
50.9300 354.0000 1.0000
50.9400 336.0000 1.0000
50.9500 383.0000 1.0000
50.9600 361.0000 1.0000
50.9700 336.0000 1.0000
50.9800 368.0000 1.0000
50.9900 377.0000 1.0000
51.0000 364.0000 1.0000
51.0100 362.0000 1.0000
51.0200 366.0000 1.0000
51.0300 371.0000 1.0000
51.0400 408.0000 1.0000
51.0500 388.0000 1.0000
51.0600 387.0000 1.0000
51.0700 405.0000 1.0000
51.0800 403.0000 1.0000
51.0900 368.0000 1.0000
51.1000 414.0000 1.0000
51.1100 425.0000 1.0000
51.1200 455.0000 1.0000
51.1300 451.0000 1.0000
51.1400 432.0000 1.0000
51.1500 506.0000 1.0000
51.1600 494.0000 1.0000
51.1700 490.0000 1.0000
51.1800 524.0000 1.0000
51.1900 473.0000 1.0000
51.2000 526.0000 1.0000
51.2100 564.0000 1.0000
51.2200 560.0000 1.0000
51.2300 559.0000 1.0000
51.2400 628.0000 1.0000
51.2500 607.0000 1.0000
51.2600 687.0000 1.0000
51.2700 676.0000 1.0000
51.2800 714.0000 1.0000
51.2900 739.0000 1.0000
51.3000 783.0000 1.0000
51.3100 832.0000 1.0000
51.3200 930.0000 1.0000
51.3300 976.0000 1.0000
51.3400 1054.0000 1.0000
51.3500 1122.0000 1.0000
51.3600 1309.0000 1.0000
51.3700 1390.0000 1.0000
51.3800 1512.0000 1.0000
51.3900 1562.0000 1.0000
51.4000 1652.0000 1.0000
51.4100 1825.0000 1.0000
51.4200 1845.0000 1.0000
51.4300 2056.0000 1.0000
51.4400 2070.0000 1.0000
51.4500 2277.0000 1.0000
51.4600 2276.0000 1.0000
51.4700 2205.0000 1.0000
51.4800 2229.0000 1.0000
51.4900 2174.0000 1.0000
51.5000 2187.0000 1.0000
51.5100 2147.0000 1.0000
51.5200 2068.0000 1.0000
51.5300 1976.0000 1.0000
51.5400 1882.0000 1.0000
51.5500 1851.0000 1.0000
51.5600 1811.0000 1.0000
51.5700 1715.0000 1.0000
51.5800 1690.0000 1.0000
51.5900 1658.0000 1.0000
51.6000 1578.0000 1.0000
51.6100 1554.0000 1.0000
51.6200 1471.0000 1.0000
51.6300 1423.0000 1.0000
51.6400 1334.0000 1.0000
51.6500 1244.0000 1.0000
51.6600 1142.0000 1.0000
51.6700 996.0000 1.0000
51.6800 999.0000 1.0000
51.6900 934.0000 1.0000
51.7000 816.0000 1.0000
51.7100 822.0000 1.0000
51.7200 729.0000 1.0000
51.7300 702.0000 1.0000
51.7400 689.0000 1.0000
51.7500 655.0000 1.0000
51.7600 587.0000 1.0000
51.7700 591.0000 1.0000
51.7800 542.0000 1.0000
51.7900 573.0000 1.0000
51.8000 552.0000 1.0000
51.8100 515.0000 1.0000
51.8200 499.0000 1.0000
51.8300 488.0000 1.0000
51.8400 446.0000 1.0000
51.8500 467.0000 1.0000
51.8600 468.0000 1.0000
51.8700 413.0000 1.0000
51.8800 465.0000 1.0000
51.8900 445.0000 1.0000
51.9000 409.0000 1.0000
51.9100 415.0000 1.0000
51.9200 409.0000 1.0000
51.9300 402.0000 1.0000
51.9400 379.0000 1.0000
51.9500 411.0000 1.0000
51.9600 385.0000 1.0000
51.9700 390.0000 1.0000
51.9800 378.0000 1.0000
51.9900 367.0000 1.0000
52.0000 338.0000 1.0000
52.0100 359.0000 1.0000
52.0200 340.0000 1.0000
52.0300 349.0000 1.0000
52.0400 349.0000 1.0000
52.0500 370.0000 1.0000
52.0600 358.0000 1.0000
52.0700 370.0000 1.0000
52.0800 340.0000 1.0000
52.0900 327.0000 1.0000
52.1000 331.0000 1.0000
52.1100 335.0000 1.0000
52.1200 307.0000 1.0000
52.1300 341.0000 1.0000
52.1400 337.0000 1.0000
52.1500 327.0000 1.0000
52.1600 330.0000 1.0000
52.1700 341.0000 1.0000
52.1800 360.0000 1.0000
52.1900 348.0000 1.0000
52.2000 346.0000 1.0000
52.2100 316.0000 1.0000
52.2200 352.0000 1.0000
52.2300 321.0000 1.0000
52.2400 334.0000 1.0000
52.2500 332.0000 1.0000
52.2600 329.0000 1.0000
52.2700 332.0000 1.0000
52.2800 313.0000 1.0000
52.2900 334.0000 1.0000
52.3000 318.0000 1.0000
52.3100 319.0000 1.0000
52.3200 325.0000 1.0000
52.3300 366.0000 1.0000
52.3400 333.0000 1.0000
52.3500 348.0000 1.0000
52.3600 358.0000 1.0000
52.3700 341.0000 1.0000
52.3800 334.0000 1.0000
52.3900 318.0000 1.0000
52.4000 326.0000 1.0000
52.4100 312.0000 1.0000
52.4200 298.0000 1.0000
52.4300 324.0000 1.0000
52.4400 332.0000 1.0000
52.4500 315.0000 1.0000
52.4600 319.0000 1.0000
52.4700 308.0000 1.0000
52.4800 323.0000 1.0000
52.4900 329.0000 1.0000
52.5000 314.0000 1.0000
52.5100 311.0000 1.0000
52.5200 327.0000 1.0000
52.5300 303.0000 1.0000
52.5400 314.0000 1.0000
52.5500 290.0000 1.0000
52.5600 317.0000 1.0000
52.5700 329.0000 1.0000
52.5800 332.0000 1.0000
52.5900 327.0000 1.0000
52.6000 364.0000 1.0000
52.6100 321.0000 1.0000
52.6200 304.0000 1.0000
52.6300 306.0000 1.0000
52.6400 336.0000 1.0000
52.6500 305.0000 1.0000
52.6600 331.0000 1.0000
52.6700 316.0000 1.0000
52.6800 309.0000 1.0000
52.6900 314.0000 1.0000
52.7000 292.0000 1.0000
52.7100 303.0000 1.0000
52.7200 322.0000 1.0000
52.7300 316.0000 1.0000
52.7400 307.0000 1.0000
52.7500 349.0000 1.0000
52.7600 304.0000 1.0000
52.7700 306.0000 1.0000
52.7800 307.0000 1.0000
52.7900 325.0000 1.0000
52.8000 348.0000 1.0000
52.8100 308.0000 1.0000
52.8200 293.0000 1.0000
52.8300 327.0000 1.0000
52.8400 312.0000 1.0000
52.8500 320.0000 1.0000
52.8600 326.0000 1.0000
52.8700 332.0000 1.0000
52.8800 308.0000 1.0000
52.8900 311.0000 1.0000
52.9000 324.0000 1.0000
52.9100 299.0000 1.0000
52.9200 309.0000 1.0000
52.9300 297.0000 1.0000
52.9400 316.0000 1.0000
52.9500 336.0000 1.0000
52.9600 297.0000 1.0000
52.9700 330.0000 1.0000
52.9800 329.0000 1.0000
52.9900 323.0000 1.0000
53.0000 321.0000 1.0000
53.0100 297.0000 1.0000
53.0200 331.0000 1.0000
53.0300 320.0000 1.0000
53.0400 323.0000 1.0000
53.0500 313.0000 1.0000
53.0600 332.0000 1.0000
53.0700 309.0000 1.0000
53.0800 295.0000 1.0000
53.0900 305.0000 1.0000
53.1000 326.0000 1.0000
53.1100 316.0000 1.0000
53.1200 332.0000 1.0000
53.1300 296.0000 1.0000
53.1400 317.0000 1.0000
53.1500 311.0000 1.0000
53.1600 310.0000 1.0000
53.1700 283.0000 1.0000
53.1800 281.0000 1.0000
53.1900 298.0000 1.0000
53.2000 311.0000 1.0000
53.2100 300.0000 1.0000
53.2200 325.0000 1.0000
53.2300 299.0000 1.0000
53.2400 320.0000 1.0000
53.2500 313.0000 1.0000
53.2600 308.0000 1.0000
53.2700 339.0000 1.0000
53.2800 307.0000 1.0000
53.2900 287.0000 1.0000
53.3000 283.0000 1.0000
53.3100 322.0000 1.0000
53.3200 314.0000 1.0000
53.3300 306.0000 1.0000
53.3400 302.0000 1.0000
53.3500 313.0000 1.0000
53.3600 337.0000 1.0000
53.3700 278.0000 1.0000
53.3800 330.0000 1.0000
53.3900 339.0000 1.0000
53.4000 296.0000 1.0000
53.4100 282.0000 1.0000
53.4200 319.0000 1.0000
53.4300 310.0000 1.0000
53.4400 311.0000 1.0000
53.4500 289.0000 1.0000
53.4600 280.0000 1.0000
53.4700 297.0000 1.0000
53.4800 294.0000 1.0000
53.4900 309.0000 1.0000
53.5000 297.0000 1.0000
53.5100 283.0000 1.0000
53.5200 296.0000 1.0000
53.5300 308.0000 1.0000
53.5400 323.0000 1.0000
53.5500 329.0000 1.0000
53.5600 314.0000 1.0000
53.5700 316.0000 1.0000
53.5800 290.0000 1.0000
53.5900 299.0000 1.0000
53.6000 340.0000 1.0000
53.6100 321.0000 1.0000
53.6200 302.0000 1.0000
53.6300 298.0000 1.0000
53.6400 312.0000 1.0000
53.6500 332.0000 1.0000
53.6600 325.0000 1.0000
53.6700 323.0000 1.0000
53.6800 284.0000 1.0000
53.6900 312.0000 1.0000
53.7000 302.0000 1.0000
53.7100 280.0000 1.0000
53.7200 318.0000 1.0000
53.7300 285.0000 1.0000
53.7400 330.0000 1.0000
53.7500 273.0000 1.0000
53.7600 307.0000 1.0000
53.7700 306.0000 1.0000
53.7800 311.0000 1.0000
53.7900 292.0000 1.0000
53.8000 294.0000 1.0000
53.8100 335.0000 1.0000
53.8200 291.0000 1.0000
53.8300 301.0000 1.0000
53.8400 320.0000 1.0000
53.8500 335.0000 1.0000
53.8600 329.0000 1.0000
53.8700 307.0000 1.0000
53.8800 313.0000 1.0000
53.8900 298.0000 1.0000
53.9000 336.0000 1.0000
53.9100 307.0000 1.0000
53.9200 296.0000 1.0000
53.9300 323.0000 1.0000
53.9400 333.0000 1.0000
53.9500 329.0000 1.0000
53.9600 306.0000 1.0000
53.9700 312.0000 1.0000
53.9800 314.0000 1.0000
53.9900 305.0000 1.0000
54.0000 318.0000 1.0000
54.0100 327.0000 1.0000
54.0200 302.0000 1.0000
54.0300 304.0000 1.0000
54.0400 317.0000 1.0000
54.0500 309.0000 1.0000
54.0600 315.0000 1.0000
54.0700 329.0000 1.0000
54.0800 317.0000 1.0000
54.0900 327.0000 1.0000
54.1000 330.0000 1.0000
54.1100 299.0000 1.0000
54.1200 320.0000 1.0000
54.1300 294.0000 1.0000
54.1400 301.0000 1.0000
54.1500 324.0000 1.0000
54.1600 322.0000 1.0000
54.1700 302.0000 1.0000
54.1800 315.0000 1.0000
54.1900 327.0000 1.0000
54.2000 316.0000 1.0000
54.2100 339.0000 1.0000
54.2200 328.0000 1.0000
54.2300 370.0000 1.0000
54.2400 356.0000 1.0000
54.2500 358.0000 1.0000
54.2600 345.0000 1.0000
54.2700 375.0000 1.0000
54.2800 337.0000 1.0000
54.2900 352.0000 1.0000
54.3000 355.0000 1.0000
54.3100 374.0000 1.0000
54.3200 351.0000 1.0000
54.3300 370.0000 1.0000
54.3400 381.0000 1.0000
54.3500 356.0000 1.0000
54.3600 367.0000 1.0000
54.3700 356.0000 1.0000
54.3800 399.0000 1.0000
54.3900 411.0000 1.0000
54.4000 431.0000 1.0000
54.4100 416.0000 1.0000
54.4200 449.0000 1.0000
54.4300 448.0000 1.0000
54.4400 432.0000 1.0000
54.4500 435.0000 1.0000
54.4600 455.0000 1.0000
54.4700 405.0000 1.0000
54.4800 445.0000 1.0000
54.4900 460.0000 1.0000
54.5000 445.0000 1.0000
54.5100 415.0000 1.0000
54.5200 423.0000 1.0000
54.5300 445.0000 1.0000
54.5400 446.0000 1.0000
54.5500 450.0000 1.0000
54.5600 450.0000 1.0000
54.5700 455.0000 1.0000
54.5800 451.0000 1.0000
54.5900 436.0000 1.0000
54.6000 433.0000 1.0000
54.6100 426.0000 1.0000
54.6200 428.0000 1.0000
54.6300 438.0000 1.0000
54.6400 415.0000 1.0000
54.6500 398.0000 1.0000
54.6600 419.0000 1.0000
54.6700 404.0000 1.0000
54.6800 372.0000 1.0000
54.6900 379.0000 1.0000
54.7000 381.0000 1.0000
54.7100 367.0000 1.0000
54.7200 363.0000 1.0000
54.7300 385.0000 1.0000
54.7400 374.0000 1.0000
54.7500 349.0000 1.0000
54.7600 354.0000 1.0000
54.7700 332.0000 1.0000
54.7800 335.0000 1.0000
54.7900 327.0000 1.0000
54.8000 363.0000 1.0000
54.8100 358.0000 1.0000
54.8200 328.0000 1.0000
54.8300 305.0000 1.0000
54.8400 320.0000 1.0000
54.8500 307.0000 1.0000
54.8600 315.0000 1.0000
54.8700 325.0000 1.0000
54.8800 327.0000 1.0000
54.8900 308.0000 1.0000
54.9000 296.0000 1.0000
54.9100 317.0000 1.0000
54.9200 315.0000 1.0000
54.9300 281.0000 1.0000
54.9400 300.0000 1.0000
54.9500 319.0000 1.0000
54.9600 304.0000 1.0000
54.9700 310.0000 1.0000
54.9800 312.0000 1.0000
54.9900 316.0000 1.0000
55.0000 284.0000 1.0000
55.0100 307.0000 1.0000
55.0200 294.0000 1.0000
55.0300 278.0000 1.0000
55.0400 290.0000 1.0000
55.0500 287.0000 1.0000
55.0600 317.0000 1.0000
55.0700 305.0000 1.0000
55.0800 306.0000 1.0000
55.0900 294.0000 1.0000
55.1000 257.0000 1.0000
55.1100 292.0000 1.0000
55.1200 301.0000 1.0000
55.1300 320.0000 1.0000
55.1400 317.0000 1.0000
55.1500 275.0000 1.0000
55.1600 290.0000 1.0000
55.1700 274.0000 1.0000
55.1800 325.0000 1.0000
55.1900 294.0000 1.0000
55.2000 283.0000 1.0000
55.2100 299.0000 1.0000
55.2200 316.0000 1.0000
55.2300 318.0000 1.0000
55.2400 285.0000 1.0000
55.2500 295.0000 1.0000
55.2600 280.0000 1.0000
55.2700 314.0000 1.0000
55.2800 289.0000 1.0000
55.2900 267.0000 1.0000
55.3000 295.0000 1.0000
55.3100 272.0000 1.0000
55.3200 297.0000 1.0000
55.3300 303.0000 1.0000
55.3400 293.0000 1.0000
55.3500 294.0000 1.0000
55.3600 304.0000 1.0000
55.3700 309.0000 1.0000
55.3800 311.0000 1.0000
55.3900 293.0000 1.0000
55.4000 322.0000 1.0000
55.4100 270.0000 1.0000
55.4200 304.0000 1.0000
55.4300 302.0000 1.0000
55.4400 322.0000 1.0000
55.4500 283.0000 1.0000
55.4600 295.0000 1.0000
55.4700 298.0000 1.0000
55.4800 300.0000 1.0000
55.4900 296.0000 1.0000
55.5000 277.0000 1.0000
55.5100 284.0000 1.0000
55.5200 294.0000 1.0000
55.5300 276.0000 1.0000
55.5400 269.0000 1.0000
55.5500 306.0000 1.0000
55.5600 308.0000 1.0000
55.5700 305.0000 1.0000
55.5800 310.0000 1.0000
55.5900 289.0000 1.0000
55.6000 276.0000 1.0000
55.6100 269.0000 1.0000
55.6200 265.0000 1.0000
55.6300 258.0000 1.0000
55.6400 293.0000 1.0000
55.6500 292.0000 1.0000
55.6600 280.0000 1.0000
55.6700 297.0000 1.0000
55.6800 288.0000 1.0000
55.6900 304.0000 1.0000
55.7000 266.0000 1.0000
55.7100 270.0000 1.0000
55.7200 276.0000 1.0000
55.7300 279.0000 1.0000
55.7400 283.0000 1.0000
55.7500 303.0000 1.0000
55.7600 296.0000 1.0000
55.7700 262.0000 1.0000
55.7800 285.0000 1.0000
55.7900 299.0000 1.0000
55.8000 310.0000 1.0000
55.8100 291.0000 1.0000
55.8200 286.0000 1.0000
55.8300 312.0000 1.0000
55.8400 298.0000 1.0000
55.8500 294.0000 1.0000
55.8600 280.0000 1.0000
55.8700 301.0000 1.0000
55.8800 309.0000 1.0000
55.8900 298.0000 1.0000
55.9000 310.0000 1.0000
55.9100 320.0000 1.0000
55.9200 255.0000 1.0000
55.9300 295.0000 1.0000
55.9400 309.0000 1.0000
55.9500 301.0000 1.0000
55.9600 293.0000 1.0000
55.9700 277.0000 1.0000
55.9800 282.0000 1.0000
55.9900 302.0000 1.0000
56.0000 284.0000 1.0000
56.0100 290.0000 1.0000
56.0200 266.0000 1.0000
56.0300 287.0000 1.0000
56.0400 289.0000 1.0000
56.0500 292.0000 1.0000
56.0600 286.0000 1.0000
56.0700 320.0000 1.0000
56.0800 264.0000 1.0000
56.0900 282.0000 1.0000
56.1000 256.0000 1.0000
56.1100 302.0000 1.0000
56.1200 295.0000 1.0000
56.1300 294.0000 1.0000
56.1400 290.0000 1.0000
56.1500 274.0000 1.0000
56.1600 280.0000 1.0000
56.1700 274.0000 1.0000
56.1800 295.0000 1.0000
56.1900 282.0000 1.0000
56.2000 297.0000 1.0000
56.2100 296.0000 1.0000
56.2200 255.0000 1.0000
56.2300 288.0000 1.0000
56.2400 297.0000 1.0000
56.2500 268.0000 1.0000
56.2600 235.0000 1.0000
56.2700 291.0000 1.0000
56.2800 270.0000 1.0000
56.2900 281.0000 1.0000
56.3000 267.0000 1.0000
56.3100 277.0000 1.0000
56.3200 297.0000 1.0000
56.3300 277.0000 1.0000
56.3400 296.0000 1.0000
56.3500 284.0000 1.0000
56.3600 298.0000 1.0000
56.3700 324.0000 1.0000
56.3800 303.0000 1.0000
56.3900 298.0000 1.0000
56.4000 286.0000 1.0000
56.4100 283.0000 1.0000
56.4200 294.0000 1.0000
56.4300 281.0000 1.0000
56.4400 292.0000 1.0000
56.4500 266.0000 1.0000
56.4600 312.0000 1.0000
56.4700 301.0000 1.0000
56.4800 286.0000 1.0000
56.4900 295.0000 1.0000
56.5000 283.0000 1.0000
56.5100 272.0000 1.0000
56.5200 275.0000 1.0000
56.5300 294.0000 1.0000
56.5400 317.0000 1.0000
56.5500 297.0000 1.0000
56.5600 297.0000 1.0000
56.5700 274.0000 1.0000
56.5800 279.0000 1.0000
56.5900 287.0000 1.0000
56.6000 301.0000 1.0000
56.6100 295.0000 1.0000
56.6200 298.0000 1.0000
56.6300 276.0000 1.0000
56.6400 294.0000 1.0000
56.6500 289.0000 1.0000
56.6600 289.0000 1.0000
56.6700 309.0000 1.0000
56.6800 271.0000 1.0000
56.6900 257.0000 1.0000
56.7000 276.0000 1.0000
56.7100 293.0000 1.0000
56.7200 286.0000 1.0000
56.7300 262.0000 1.0000
56.7400 309.0000 1.0000
56.7500 300.0000 1.0000
56.7600 273.0000 1.0000
56.7700 290.0000 1.0000
56.7800 292.0000 1.0000
56.7900 284.0000 1.0000
56.8000 288.0000 1.0000
56.8100 269.0000 1.0000
56.8200 268.0000 1.0000
56.8300 280.0000 1.0000
56.8400 275.0000 1.0000
56.8500 285.0000 1.0000
56.8600 290.0000 1.0000
56.8700 302.0000 1.0000
56.8800 288.0000 1.0000
56.8900 288.0000 1.0000
56.9000 276.0000 1.0000
56.9100 278.0000 1.0000
56.9200 281.0000 1.0000
56.9300 280.0000 1.0000
56.9400 303.0000 1.0000
56.9500 265.0000 1.0000
56.9600 267.0000 1.0000
56.9700 288.0000 1.0000
56.9800 275.0000 1.0000
56.9900 290.0000 1.0000
57.0000 276.0000 1.0000
57.0100 311.0000 1.0000
57.0200 291.0000 1.0000
57.0300 284.0000 1.0000
57.0400 273.0000 1.0000
57.0500 287.0000 1.0000
57.0600 318.0000 1.0000
57.0700 291.0000 1.0000
57.0800 285.0000 1.0000
57.0900 286.0000 1.0000
57.1000 299.0000 1.0000
57.1100 309.0000 1.0000
57.1200 302.0000 1.0000
57.1300 300.0000 1.0000
57.1400 286.0000 1.0000
57.1500 303.0000 1.0000
57.1600 301.0000 1.0000
57.1700 265.0000 1.0000
57.1800 280.0000 1.0000
57.1900 326.0000 1.0000
57.2000 313.0000 1.0000
57.2100 280.0000 1.0000
57.2200 282.0000 1.0000
57.2300 268.0000 1.0000
57.2400 281.0000 1.0000
57.2500 292.0000 1.0000
57.2600 281.0000 1.0000
57.2700 297.0000 1.0000
57.2800 294.0000 1.0000
57.2900 270.0000 1.0000
57.3000 284.0000 1.0000
57.3100 311.0000 1.0000
57.3200 280.0000 1.0000
57.3300 295.0000 1.0000
57.3400 305.0000 1.0000
57.3500 286.0000 1.0000
57.3600 304.0000 1.0000
57.3700 298.0000 1.0000
57.3800 278.0000 1.0000
57.3900 293.0000 1.0000
57.4000 270.0000 1.0000
57.4100 309.0000 1.0000
57.4200 285.0000 1.0000
57.4300 304.0000 1.0000
57.4400 337.0000 1.0000
57.4500 288.0000 1.0000
57.4600 317.0000 1.0000
57.4700 295.0000 1.0000
57.4800 304.0000 1.0000
57.4900 295.0000 1.0000
57.5000 309.0000 1.0000
57.5100 303.0000 1.0000
57.5200 305.0000 1.0000
57.5300 285.0000 1.0000
57.5400 264.0000 1.0000
57.5500 280.0000 1.0000
57.5600 294.0000 1.0000
57.5700 285.0000 1.0000
57.5800 289.0000 1.0000
57.5900 296.0000 1.0000
57.6000 301.0000 1.0000
57.6100 297.0000 1.0000
57.6200 303.0000 1.0000
57.6300 305.0000 1.0000
57.6400 285.0000 1.0000
57.6500 278.0000 1.0000
57.6600 285.0000 1.0000
57.6700 308.0000 1.0000
57.6800 283.0000 1.0000
57.6900 271.0000 1.0000
57.7000 306.0000 1.0000
57.7100 301.0000 1.0000
57.7200 299.0000 1.0000
57.7300 322.0000 1.0000
57.7400 282.0000 1.0000
57.7500 292.0000 1.0000
57.7600 275.0000 1.0000
57.7700 286.0000 1.0000
57.7800 259.0000 1.0000
57.7900 291.0000 1.0000
57.8000 297.0000 1.0000
57.8100 264.0000 1.0000
57.8200 282.0000 1.0000
57.8300 272.0000 1.0000
57.8400 312.0000 1.0000
57.8500 307.0000 1.0000
57.8600 280.0000 1.0000
57.8700 305.0000 1.0000
57.8800 303.0000 1.0000
57.8900 281.0000 1.0000
57.9000 279.0000 1.0000
57.9100 282.0000 1.0000
57.9200 310.0000 1.0000
57.9300 289.0000 1.0000
57.9400 279.0000 1.0000
57.9500 277.0000 1.0000
57.9600 264.0000 1.0000
57.9700 273.0000 1.0000
57.9800 277.0000 1.0000
57.9900 290.0000 1.0000
58.0000 300.0000 1.0000
58.0100 286.0000 1.0000
58.0200 267.0000 1.0000
58.0300 272.0000 1.0000
58.0400 288.0000 1.0000
58.0500 269.0000 1.0000
58.0600 312.0000 1.0000
58.0700 308.0000 1.0000
58.0800 287.0000 1.0000
58.0900 311.0000 1.0000
58.1000 301.0000 1.0000
58.1100 276.0000 1.0000
58.1200 297.0000 1.0000
58.1300 288.0000 1.0000
58.1400 265.0000 1.0000
58.1500 291.0000 1.0000
58.1600 271.0000 1.0000
58.1700 285.0000 1.0000
58.1800 302.0000 1.0000
58.1900 291.0000 1.0000
58.2000 297.0000 1.0000
58.2100 306.0000 1.0000
58.2200 293.0000 1.0000
58.2300 283.0000 1.0000
58.2400 277.0000 1.0000
58.2500 295.0000 1.0000
58.2600 258.0000 1.0000
58.2700 280.0000 1.0000
58.2800 294.0000 1.0000
58.2900 303.0000 1.0000
58.3000 265.0000 1.0000
58.3100 256.0000 1.0000
58.3200 310.0000 1.0000
58.3300 258.0000 1.0000
58.3400 262.0000 1.0000
58.3500 304.0000 1.0000
58.3600 275.0000 1.0000
58.3700 265.0000 1.0000
58.3800 290.0000 1.0000
58.3900 313.0000 1.0000
58.4000 293.0000 1.0000
58.4100 288.0000 1.0000
58.4200 279.0000 1.0000
58.4300 300.0000 1.0000
58.4400 272.0000 1.0000
58.4500 275.0000 1.0000
58.4600 278.0000 1.0000
58.4700 297.0000 1.0000
58.4800 291.0000 1.0000
58.4900 286.0000 1.0000
58.5000 291.0000 1.0000
58.5100 269.0000 1.0000
58.5200 295.0000 1.0000
58.5300 281.0000 1.0000
58.5400 277.0000 1.0000
58.5500 276.0000 1.0000
58.5600 295.0000 1.0000
58.5700 298.0000 1.0000
58.5800 283.0000 1.0000
58.5900 242.0000 1.0000
58.6000 290.0000 1.0000
58.6100 281.0000 1.0000
58.6200 290.0000 1.0000
58.6300 298.0000 1.0000
58.6400 278.0000 1.0000
58.6500 290.0000 1.0000
58.6600 290.0000 1.0000
58.6700 294.0000 1.0000
58.6800 284.0000 1.0000
58.6900 273.0000 1.0000
58.7000 293.0000 1.0000
58.7100 284.0000 1.0000
58.7200 285.0000 1.0000
58.7300 261.0000 1.0000
58.7400 283.0000 1.0000
58.7500 314.0000 1.0000
58.7600 290.0000 1.0000
58.7700 263.0000 1.0000
58.7800 276.0000 1.0000
58.7900 294.0000 1.0000
58.8000 306.0000 1.0000
58.8100 286.0000 1.0000
58.8200 263.0000 1.0000
58.8300 293.0000 1.0000
58.8400 293.0000 1.0000
58.8500 293.0000 1.0000
58.8600 292.0000 1.0000
58.8700 281.0000 1.0000
58.8800 279.0000 1.0000
58.8900 294.0000 1.0000
58.9000 292.0000 1.0000
58.9100 304.0000 1.0000
58.9200 298.0000 1.0000
58.9300 287.0000 1.0000
58.9400 287.0000 1.0000
58.9500 286.0000 1.0000
58.9600 319.0000 1.0000
58.9700 301.0000 1.0000
58.9800 303.0000 1.0000
58.9900 316.0000 1.0000
59.0000 276.0000 1.0000
59.0100 302.0000 1.0000
59.0200 294.0000 1.0000
59.0300 293.0000 1.0000
59.0400 281.0000 1.0000
59.0500 293.0000 1.0000
59.0600 300.0000 1.0000
59.0700 273.0000 1.0000
59.0800 283.0000 1.0000
59.0900 283.0000 1.0000
59.1000 299.0000 1.0000
59.1100 292.0000 1.0000
59.1200 280.0000 1.0000
59.1300 287.0000 1.0000
59.1400 281.0000 1.0000
59.1500 291.0000 1.0000
59.1600 309.0000 1.0000
59.1700 290.0000 1.0000
59.1800 247.0000 1.0000
59.1900 288.0000 1.0000
59.2000 272.0000 1.0000
59.2100 269.0000 1.0000
59.2200 298.0000 1.0000
59.2300 290.0000 1.0000
59.2400 295.0000 1.0000
59.2500 295.0000 1.0000
59.2600 280.0000 1.0000
59.2700 309.0000 1.0000
59.2800 289.0000 1.0000
59.2900 293.0000 1.0000
59.3000 263.0000 1.0000
59.3100 271.0000 1.0000
59.3200 289.0000 1.0000
59.3300 276.0000 1.0000
59.3400 278.0000 1.0000
59.3500 281.0000 1.0000
59.3600 303.0000 1.0000
59.3700 293.0000 1.0000
59.3800 288.0000 1.0000
59.3900 285.0000 1.0000
59.4000 288.0000 1.0000
59.4100 290.0000 1.0000
59.4200 302.0000 1.0000
59.4300 281.0000 1.0000
59.4400 300.0000 1.0000
59.4500 305.0000 1.0000
59.4600 303.0000 1.0000
59.4700 289.0000 1.0000
59.4800 282.0000 1.0000
59.4900 264.0000 1.0000
59.5000 282.0000 1.0000
59.5100 271.0000 1.0000
59.5200 290.0000 1.0000
59.5300 287.0000 1.0000
59.5400 299.0000 1.0000
59.5500 302.0000 1.0000
59.5600 275.0000 1.0000
59.5700 307.0000 1.0000
59.5800 306.0000 1.0000
59.5900 282.0000 1.0000
59.6000 286.0000 1.0000
59.6100 288.0000 1.0000
59.6200 290.0000 1.0000
59.6300 246.0000 1.0000
59.6400 269.0000 1.0000
59.6500 284.0000 1.0000
59.6600 283.0000 1.0000
59.6700 290.0000 1.0000
59.6800 307.0000 1.0000
59.6900 267.0000 1.0000
59.7000 255.0000 1.0000
59.7100 267.0000 1.0000
59.7200 281.0000 1.0000
59.7300 258.0000 1.0000
59.7400 278.0000 1.0000
59.7500 270.0000 1.0000
59.7600 303.0000 1.0000
59.7700 308.0000 1.0000
59.7800 292.0000 1.0000
59.7900 272.0000 1.0000
59.8000 282.0000 1.0000
59.8100 292.0000 1.0000
59.8200 291.0000 1.0000
59.8300 295.0000 1.0000
59.8400 282.0000 1.0000
59.8500 265.0000 1.0000
59.8600 272.0000 1.0000
59.8700 298.0000 1.0000
59.8800 295.0000 1.0000
59.8900 292.0000 1.0000
59.9000 255.0000 1.0000
59.9100 297.0000 1.0000
59.9200 271.0000 1.0000
59.9300 266.0000 1.0000
59.9400 272.0000 1.0000
59.9500 279.0000 1.0000
59.9600 304.0000 1.0000
59.9700 307.0000 1.0000
59.9800 272.0000 1.0000
59.9900 279.0000 1.0000
60.0000 288.0000 1.0000
60.0100 266.0000 1.0000
60.0200 284.0000 1.0000
60.0300 250.0000 1.0000
60.0400 289.0000 1.0000
60.0500 288.0000 1.0000
60.0600 269.0000 1.0000
60.0700 288.0000 1.0000
60.0800 304.0000 1.0000
60.0900 320.0000 1.0000
60.1000 304.0000 1.0000
60.1100 303.0000 1.0000
60.1200 295.0000 1.0000
60.1300 278.0000 1.0000
60.1400 298.0000 1.0000
60.1500 273.0000 1.0000
60.1600 257.0000 1.0000
60.1700 278.0000 1.0000
60.1800 309.0000 1.0000
60.1900 278.0000 1.0000
60.2000 285.0000 1.0000
60.2100 286.0000 1.0000
60.2200 273.0000 1.0000
60.2300 269.0000 1.0000
60.2400 295.0000 1.0000
60.2500 283.0000 1.0000
60.2600 287.0000 1.0000
60.2700 289.0000 1.0000
60.2800 304.0000 1.0000
60.2900 278.0000 1.0000
60.3000 269.0000 1.0000
60.3100 286.0000 1.0000
60.3200 287.0000 1.0000
60.3300 294.0000 1.0000
60.3400 296.0000 1.0000
60.3500 286.0000 1.0000
60.3600 292.0000 1.0000
60.3700 297.0000 1.0000
60.3800 289.0000 1.0000
60.3900 258.0000 1.0000
60.4000 299.0000 1.0000
60.4100 293.0000 1.0000
60.4200 284.0000 1.0000
60.4300 266.0000 1.0000
60.4400 280.0000 1.0000
60.4500 308.0000 1.0000
60.4600 289.0000 1.0000
60.4700 286.0000 1.0000
60.4800 282.0000 1.0000
60.4900 270.0000 1.0000
60.5000 255.0000 1.0000
60.5100 282.0000 1.0000
60.5200 282.0000 1.0000
60.5300 269.0000 1.0000
60.5400 289.0000 1.0000
60.5500 285.0000 1.0000
60.5600 257.0000 1.0000
60.5700 284.0000 1.0000
60.5800 306.0000 1.0000
60.5900 265.0000 1.0000
60.6000 268.0000 1.0000
60.6100 304.0000 1.0000
60.6200 277.0000 1.0000
60.6300 269.0000 1.0000
60.6400 271.0000 1.0000
60.6500 281.0000 1.0000
60.6600 291.0000 1.0000
60.6700 280.0000 1.0000
60.6800 296.0000 1.0000
60.6900 285.0000 1.0000
60.7000 273.0000 1.0000
60.7100 275.0000 1.0000
60.7200 295.0000 1.0000
60.7300 285.0000 1.0000
60.7400 290.0000 1.0000
60.7500 288.0000 1.0000
60.7600 272.0000 1.0000
60.7700 259.0000 1.0000
60.7800 299.0000 1.0000
60.7900 302.0000 1.0000
60.8000 305.0000 1.0000
60.8100 265.0000 1.0000
60.8200 265.0000 1.0000
60.8300 287.0000 1.0000
60.8400 261.0000 1.0000
60.8500 299.0000 1.0000
60.8600 279.0000 1.0000
60.8700 278.0000 1.0000
60.8800 304.0000 1.0000
60.8900 274.0000 1.0000
60.9000 297.0000 1.0000
60.9100 300.0000 1.0000
60.9200 278.0000 1.0000
60.9300 286.0000 1.0000
60.9400 260.0000 1.0000
60.9500 287.0000 1.0000
60.9600 276.0000 1.0000
60.9700 266.0000 1.0000
60.9800 273.0000 1.0000
60.9900 285.0000 1.0000
61.0000 254.0000 1.0000
61.0100 291.0000 1.0000
61.0200 291.0000 1.0000
61.0300 276.0000 1.0000
61.0400 287.0000 1.0000
61.0500 296.0000 1.0000
61.0600 317.0000 1.0000
61.0700 289.0000 1.0000
61.0800 313.0000 1.0000
61.0900 294.0000 1.0000
61.1000 311.0000 1.0000
61.1100 317.0000 1.0000
61.1200 331.0000 1.0000
61.1300 307.0000 1.0000
61.1400 320.0000 1.0000
61.1500 292.0000 1.0000
61.1600 307.0000 1.0000
61.1700 305.0000 1.0000
61.1800 328.0000 1.0000
61.1900 352.0000 1.0000
61.2000 317.0000 1.0000
61.2100 341.0000 1.0000
61.2200 341.0000 1.0000
61.2300 338.0000 1.0000
61.2400 364.0000 1.0000
61.2500 354.0000 1.0000
61.2600 361.0000 1.0000
61.2700 383.0000 1.0000
61.2800 376.0000 1.0000
61.2900 389.0000 1.0000
61.3000 399.0000 1.0000
61.3100 379.0000 1.0000
61.3200 394.0000 1.0000
61.3300 445.0000 1.0000
61.3400 437.0000 1.0000
61.3500 455.0000 1.0000
61.3600 435.0000 1.0000
61.3700 436.0000 1.0000
61.3800 497.0000 1.0000
61.3900 511.0000 1.0000
61.4000 464.0000 1.0000
61.4100 491.0000 1.0000
61.4200 486.0000 1.0000
61.4300 534.0000 1.0000
61.4400 560.0000 1.0000
61.4500 562.0000 1.0000
61.4600 577.0000 1.0000
61.4700 617.0000 1.0000
61.4800 594.0000 1.0000
61.4900 571.0000 1.0000
61.5000 593.0000 1.0000
61.5100 631.0000 1.0000
61.5200 595.0000 1.0000
61.5300 579.0000 1.0000
61.5400 559.0000 1.0000
61.5500 585.0000 1.0000
61.5600 601.0000 1.0000
61.5700 577.0000 1.0000
61.5800 605.0000 1.0000
61.5900 583.0000 1.0000
61.6000 573.0000 1.0000
61.6100 576.0000 1.0000
61.6200 580.0000 1.0000
61.6300 564.0000 1.0000
61.6400 566.0000 1.0000
61.6500 552.0000 1.0000
61.6600 505.0000 1.0000
61.6700 533.0000 1.0000
61.6800 509.0000 1.0000
61.6900 550.0000 1.0000
61.7000 500.0000 1.0000
61.7100 494.0000 1.0000
61.7200 490.0000 1.0000
61.7300 472.0000 1.0000
61.7400 476.0000 1.0000
61.7500 481.0000 1.0000
61.7600 439.0000 1.0000
61.7700 430.0000 1.0000
61.7800 418.0000 1.0000
61.7900 410.0000 1.0000
61.8000 404.0000 1.0000
61.8100 431.0000 1.0000
61.8200 416.0000 1.0000
61.8300 378.0000 1.0000
61.8400 389.0000 1.0000
61.8500 375.0000 1.0000
61.8600 362.0000 1.0000
61.8700 368.0000 1.0000
61.8800 354.0000 1.0000
61.8900 373.0000 1.0000
61.9000 352.0000 1.0000
61.9100 354.0000 1.0000
61.9200 341.0000 1.0000
61.9300 343.0000 1.0000
61.9400 337.0000 1.0000
61.9500 369.0000 1.0000
61.9600 336.0000 1.0000
61.9700 337.0000 1.0000
61.9800 353.0000 1.0000
61.9900 303.0000 1.0000
62.0000 310.0000 1.0000
62.0100 304.0000 1.0000
62.0200 307.0000 1.0000
62.0300 326.0000 1.0000
62.0400 311.0000 1.0000
62.0500 320.0000 1.0000
62.0600 301.0000 1.0000
62.0700 321.0000 1.0000
62.0800 334.0000 1.0000
62.0900 304.0000 1.0000
62.1000 325.0000 1.0000
62.1100 333.0000 1.0000
62.1200 289.0000 1.0000
62.1300 297.0000 1.0000
62.1400 339.0000 1.0000
62.1500 343.0000 1.0000
62.1600 307.0000 1.0000
62.1700 304.0000 1.0000
62.1800 307.0000 1.0000
62.1900 306.0000 1.0000
62.2000 320.0000 1.0000
62.2100 306.0000 1.0000
62.2200 317.0000 1.0000
62.2300 296.0000 1.0000
62.2400 284.0000 1.0000
62.2500 324.0000 1.0000
62.2600 321.0000 1.0000
62.2700 267.0000 1.0000
62.2800 276.0000 1.0000
62.2900 307.0000 1.0000
62.3000 277.0000 1.0000
62.3100 285.0000 1.0000
62.3200 276.0000 1.0000
62.3300 301.0000 1.0000
62.3400 324.0000 1.0000
62.3500 273.0000 1.0000
62.3600 307.0000 1.0000
62.3700 304.0000 1.0000
62.3800 298.0000 1.0000
62.3900 293.0000 1.0000
62.4000 280.0000 1.0000
62.4100 312.0000 1.0000
62.4200 329.0000 1.0000
62.4300 334.0000 1.0000
62.4400 305.0000 1.0000
62.4500 284.0000 1.0000
62.4600 291.0000 1.0000
62.4700 285.0000 1.0000
62.4800 313.0000 1.0000
62.4900 271.0000 1.0000
62.5000 312.0000 1.0000
62.5100 274.0000 1.0000
62.5200 301.0000 1.0000
62.5300 279.0000 1.0000
62.5400 286.0000 1.0000
62.5500 288.0000 1.0000
62.5600 268.0000 1.0000
62.5700 287.0000 1.0000
62.5800 279.0000 1.0000
62.5900 270.0000 1.0000
62.6000 277.0000 1.0000
62.6100 272.0000 1.0000
62.6200 307.0000 1.0000
62.6300 277.0000 1.0000
62.6400 311.0000 1.0000
62.6500 312.0000 1.0000
62.6600 269.0000 1.0000
62.6700 314.0000 1.0000
62.6800 281.0000 1.0000
62.6900 299.0000 1.0000
62.7000 270.0000 1.0000
62.7100 280.0000 1.0000
62.7200 296.0000 1.0000
62.7300 306.0000 1.0000
62.7400 287.0000 1.0000
62.7500 294.0000 1.0000
62.7600 295.0000 1.0000
62.7700 293.0000 1.0000
62.7800 299.0000 1.0000
62.7900 290.0000 1.0000
62.8000 254.0000 1.0000
62.8100 274.0000 1.0000
62.8200 284.0000 1.0000
62.8300 280.0000 1.0000
62.8400 276.0000 1.0000
62.8500 292.0000 1.0000
62.8600 288.0000 1.0000
62.8700 303.0000 1.0000
62.8800 291.0000 1.0000
62.8900 279.0000 1.0000
62.9000 279.0000 1.0000
62.9100 297.0000 1.0000
62.9200 287.0000 1.0000
62.9300 279.0000 1.0000
62.9400 304.0000 1.0000
62.9500 291.0000 1.0000
62.9600 287.0000 1.0000
62.9700 301.0000 1.0000
62.9800 299.0000 1.0000
62.9900 279.0000 1.0000
63.0000 268.0000 1.0000
63.0100 309.0000 1.0000
63.0200 294.0000 1.0000
63.0300 292.0000 1.0000
63.0400 275.0000 1.0000
63.0500 290.0000 1.0000
63.0600 283.0000 1.0000
63.0700 300.0000 1.0000
63.0800 287.0000 1.0000
63.0900 303.0000 1.0000
63.1000 279.0000 1.0000
63.1100 268.0000 1.0000
63.1200 308.0000 1.0000
63.1300 279.0000 1.0000
63.1400 323.0000 1.0000
63.1500 299.0000 1.0000
63.1600 298.0000 1.0000
63.1700 282.0000 1.0000
63.1800 310.0000 1.0000
63.1900 298.0000 1.0000
63.2000 280.0000 1.0000
63.2100 310.0000 1.0000
63.2200 314.0000 1.0000
63.2300 280.0000 1.0000
63.2400 287.0000 1.0000
63.2500 288.0000 1.0000
63.2600 293.0000 1.0000
63.2700 292.0000 1.0000
63.2800 296.0000 1.0000
63.2900 269.0000 1.0000
63.3000 295.0000 1.0000
63.3100 301.0000 1.0000
63.3200 314.0000 1.0000
63.3300 334.0000 1.0000
63.3400 302.0000 1.0000
63.3500 308.0000 1.0000
63.3600 275.0000 1.0000
63.3700 281.0000 1.0000
63.3800 295.0000 1.0000
63.3900 289.0000 1.0000
63.4000 301.0000 1.0000
63.4100 302.0000 1.0000
63.4200 290.0000 1.0000
63.4300 308.0000 1.0000
63.4400 306.0000 1.0000
63.4500 301.0000 1.0000
63.4600 310.0000 1.0000
63.4700 330.0000 1.0000
63.4800 329.0000 1.0000
63.4900 311.0000 1.0000
63.5000 327.0000 1.0000
63.5100 308.0000 1.0000
63.5200 292.0000 1.0000
63.5300 302.0000 1.0000
63.5400 303.0000 1.0000
63.5500 327.0000 1.0000
63.5600 305.0000 1.0000
63.5700 294.0000 1.0000
63.5800 287.0000 1.0000
63.5900 315.0000 1.0000
63.6000 294.0000 1.0000
63.6100 317.0000 1.0000
63.6200 300.0000 1.0000
63.6300 303.0000 1.0000
63.6400 319.0000 1.0000
63.6500 325.0000 1.0000
63.6600 318.0000 1.0000
63.6700 308.0000 1.0000
63.6800 311.0000 1.0000
63.6900 343.0000 1.0000
63.7000 310.0000 1.0000
63.7100 322.0000 1.0000
63.7200 297.0000 1.0000
63.7300 298.0000 1.0000
63.7400 318.0000 1.0000
63.7500 326.0000 1.0000
63.7600 338.0000 1.0000
63.7700 324.0000 1.0000
63.7800 321.0000 1.0000
63.7900 344.0000 1.0000
63.8000 354.0000 1.0000
63.8100 356.0000 1.0000
63.8200 372.0000 1.0000
63.8300 346.0000 1.0000
63.8400 359.0000 1.0000
63.8500 375.0000 1.0000
63.8600 365.0000 1.0000
63.8700 382.0000 1.0000
63.8800 366.0000 1.0000
63.8900 356.0000 1.0000
63.9000 375.0000 1.0000
63.9100 375.0000 1.0000
63.9200 371.0000 1.0000
63.9300 391.0000 1.0000
63.9400 405.0000 1.0000
63.9500 390.0000 1.0000
63.9600 386.0000 1.0000
63.9700 401.0000 1.0000
63.9800 404.0000 1.0000
63.9900 386.0000 1.0000
64.0000 381.0000 1.0000
64.0100 388.0000 1.0000
64.0200 384.0000 1.0000
64.0300 332.0000 1.0000
64.0400 386.0000 1.0000
64.0500 362.0000 1.0000
64.0600 368.0000 1.0000
64.0700 375.0000 1.0000
64.0800 368.0000 1.0000
64.0900 363.0000 1.0000
64.1000 336.0000 1.0000
64.1100 350.0000 1.0000
64.1200 356.0000 1.0000
64.1300 358.0000 1.0000
64.1400 387.0000 1.0000
64.1500 377.0000 1.0000
64.1600 364.0000 1.0000
64.1700 317.0000 1.0000
64.1800 321.0000 1.0000
64.1900 334.0000 1.0000
64.2000 321.0000 1.0000
64.2100 310.0000 1.0000
64.2200 318.0000 1.0000
64.2300 361.0000 1.0000
64.2400 344.0000 1.0000
64.2500 312.0000 1.0000
64.2600 315.0000 1.0000
64.2700 331.0000 1.0000
64.2800 340.0000 1.0000
64.2900 322.0000 1.0000
64.3000 310.0000 1.0000
64.3100 313.0000 1.0000
64.3200 300.0000 1.0000
64.3300 336.0000 1.0000
64.3400 346.0000 1.0000
64.3500 316.0000 1.0000
64.3600 311.0000 1.0000
64.3700 319.0000 1.0000
64.3800 322.0000 1.0000
64.3900 295.0000 1.0000
64.4000 310.0000 1.0000
64.4100 322.0000 1.0000
64.4200 299.0000 1.0000
64.4300 314.0000 1.0000
64.4400 327.0000 1.0000
64.4500 319.0000 1.0000
64.4600 321.0000 1.0000
64.4700 324.0000 1.0000
64.4800 286.0000 1.0000
64.4900 303.0000 1.0000
64.5000 304.0000 1.0000
64.5100 289.0000 1.0000
64.5200 307.0000 1.0000
64.5300 315.0000 1.0000
64.5400 298.0000 1.0000
64.5500 256.0000 1.0000
64.5600 307.0000 1.0000
64.5700 289.0000 1.0000
64.5800 291.0000 1.0000
64.5900 305.0000 1.0000
64.6000 299.0000 1.0000
64.6100 277.0000 1.0000
64.6200 274.0000 1.0000
64.6300 311.0000 1.0000
64.6400 276.0000 1.0000
64.6500 279.0000 1.0000
64.6600 308.0000 1.0000
64.6700 310.0000 1.0000
64.6800 292.0000 1.0000
64.6900 264.0000 1.0000
64.7000 281.0000 1.0000
64.7100 285.0000 1.0000
64.7200 284.0000 1.0000
64.7300 272.0000 1.0000
64.7400 300.0000 1.0000
64.7500 315.0000 1.0000
64.7600 289.0000 1.0000
64.7700 295.0000 1.0000
64.7800 309.0000 1.0000
64.7900 319.0000 1.0000
64.8000 301.0000 1.0000
64.8100 307.0000 1.0000
64.8200 325.0000 1.0000
64.8300 307.0000 1.0000
64.8400 279.0000 1.0000
64.8500 276.0000 1.0000
64.8600 284.0000 1.0000
64.8700 292.0000 1.0000
64.8800 309.0000 1.0000
64.8900 321.0000 1.0000
64.9000 295.0000 1.0000
64.9100 297.0000 1.0000
64.9200 299.0000 1.0000
64.9300 325.0000 1.0000
64.9400 316.0000 1.0000
64.9500 302.0000 1.0000
64.9600 329.0000 1.0000
64.9700 310.0000 1.0000
64.9800 316.0000 1.0000
64.9900 286.0000 1.0000
65.0000 279.0000 1.0000
65.0100 310.0000 1.0000
65.0200 298.0000 1.0000
65.0300 300.0000 1.0000
65.0400 315.0000 1.0000
65.0500 345.0000 1.0000
65.0600 342.0000 1.0000
65.0700 300.0000 1.0000
65.0800 325.0000 1.0000
65.0900 304.0000 1.0000
65.1000 344.0000 1.0000
65.1100 333.0000 1.0000
65.1200 311.0000 1.0000
65.1300 339.0000 1.0000
65.1400 321.0000 1.0000
65.1500 350.0000 1.0000
65.1600 341.0000 1.0000
65.1700 347.0000 1.0000
65.1800 349.0000 1.0000
65.1900 355.0000 1.0000
65.2000 361.0000 1.0000
65.2100 368.0000 1.0000
65.2200 386.0000 1.0000
65.2300 388.0000 1.0000
65.2400 403.0000 1.0000
65.2500 387.0000 1.0000
65.2600 446.0000 1.0000
65.2700 405.0000 1.0000
65.2800 456.0000 1.0000
65.2900 440.0000 1.0000
65.3000 462.0000 1.0000
65.3100 449.0000 1.0000
65.3200 505.0000 1.0000
65.3300 568.0000 1.0000
65.3400 556.0000 1.0000
65.3500 602.0000 1.0000
65.3600 611.0000 1.0000
65.3700 636.0000 1.0000
65.3800 677.0000 1.0000
65.3900 690.0000 1.0000
65.4000 717.0000 1.0000
65.4100 727.0000 1.0000
65.4200 787.0000 1.0000
65.4300 812.0000 1.0000
65.4400 842.0000 1.0000
65.4500 835.0000 1.0000
65.4600 904.0000 1.0000
65.4700 948.0000 1.0000
65.4800 974.0000 1.0000
65.4900 1063.0000 1.0000
65.5000 1062.0000 1.0000
65.5100 1030.0000 1.0000
65.5200 1092.0000 1.0000
65.5300 1057.0000 1.0000
65.5400 1070.0000 1.0000
65.5500 1039.0000 1.0000
65.5600 1010.0000 1.0000
65.5700 1029.0000 1.0000
65.5800 997.0000 1.0000
65.5900 965.0000 1.0000
65.6000 957.0000 1.0000
65.6100 938.0000 1.0000
65.6200 909.0000 1.0000
65.6300 893.0000 1.0000
65.6400 915.0000 1.0000
65.6500 869.0000 1.0000
65.6600 881.0000 1.0000
65.6700 834.0000 1.0000
65.6800 800.0000 1.0000
65.6900 806.0000 1.0000
65.7000 809.0000 1.0000
65.7100 813.0000 1.0000
65.7200 758.0000 1.0000
65.7300 704.0000 1.0000
65.7400 711.0000 1.0000
65.7500 681.0000 1.0000
65.7600 650.0000 1.0000
65.7700 660.0000 1.0000
65.7800 610.0000 1.0000
65.7900 602.0000 1.0000
65.8000 580.0000 1.0000
65.8100 525.0000 1.0000
65.8200 523.0000 1.0000
65.8300 486.0000 1.0000
65.8400 461.0000 1.0000
65.8500 478.0000 1.0000
65.8600 473.0000 1.0000
65.8700 439.0000 1.0000
65.8800 455.0000 1.0000
65.8900 428.0000 1.0000
65.9000 413.0000 1.0000
65.9100 434.0000 1.0000
65.9200 380.0000 1.0000
65.9300 402.0000 1.0000
65.9400 373.0000 1.0000
65.9500 401.0000 1.0000
65.9600 385.0000 1.0000
65.9700 359.0000 1.0000
65.9800 352.0000 1.0000
65.9900 385.0000 1.0000
66.0000 380.0000 1.0000
66.0100 351.0000 1.0000
66.0200 321.0000 1.0000
66.0300 324.0000 1.0000
66.0400 335.0000 1.0000
66.0500 334.0000 1.0000
66.0600 325.0000 1.0000
66.0700 312.0000 1.0000
66.0800 301.0000 1.0000
66.0900 338.0000 1.0000
66.1000 333.0000 1.0000
66.1100 302.0000 1.0000
66.1200 330.0000 1.0000
66.1300 299.0000 1.0000
66.1400 287.0000 1.0000
66.1500 308.0000 1.0000
66.1600 298.0000 1.0000
66.1700 317.0000 1.0000
66.1800 302.0000 1.0000
66.1900 269.0000 1.0000
66.2000 269.0000 1.0000
66.2100 295.0000 1.0000
66.2200 302.0000 1.0000
66.2300 297.0000 1.0000
66.2400 271.0000 1.0000
66.2500 262.0000 1.0000
66.2600 290.0000 1.0000
66.2700 291.0000 1.0000
66.2800 280.0000 1.0000
66.2900 300.0000 1.0000
66.3000 270.0000 1.0000
66.3100 277.0000 1.0000
66.3200 295.0000 1.0000
66.3300 276.0000 1.0000
66.3400 278.0000 1.0000
66.3500 280.0000 1.0000
66.3600 270.0000 1.0000
66.3700 294.0000 1.0000
66.3800 279.0000 1.0000
66.3900 253.0000 1.0000
66.4000 269.0000 1.0000
66.4100 272.0000 1.0000
66.4200 291.0000 1.0000
66.4300 263.0000 1.0000
66.4400 305.0000 1.0000
66.4500 285.0000 1.0000
66.4600 283.0000 1.0000
66.4700 273.0000 1.0000
66.4800 302.0000 1.0000
66.4900 274.0000 1.0000
66.5000 270.0000 1.0000
66.5100 286.0000 1.0000
66.5200 263.0000 1.0000
66.5300 278.0000 1.0000
66.5400 277.0000 1.0000
66.5500 253.0000 1.0000
66.5600 272.0000 1.0000
66.5700 245.0000 1.0000
66.5800 255.0000 1.0000
66.5900 263.0000 1.0000
66.6000 273.0000 1.0000
66.6100 281.0000 1.0000
66.6200 257.0000 1.0000
66.6300 261.0000 1.0000
66.6400 240.0000 1.0000
66.6500 288.0000 1.0000
66.6600 268.0000 1.0000
66.6700 268.0000 1.0000
66.6800 289.0000 1.0000
66.6900 277.0000 1.0000
66.7000 264.0000 1.0000
66.7100 247.0000 1.0000
66.7200 274.0000 1.0000
66.7300 260.0000 1.0000
66.7400 264.0000 1.0000
66.7500 278.0000 1.0000
66.7600 266.0000 1.0000
66.7700 270.0000 1.0000
66.7800 265.0000 1.0000
66.7900 228.0000 1.0000
66.8000 262.0000 1.0000
66.8100 263.0000 1.0000
66.8200 284.0000 1.0000
66.8300 246.0000 1.0000
66.8400 257.0000 1.0000
66.8500 272.0000 1.0000
66.8600 249.0000 1.0000
66.8700 255.0000 1.0000
66.8800 255.0000 1.0000
66.8900 260.0000 1.0000
66.9000 257.0000 1.0000
66.9100 275.0000 1.0000
66.9200 272.0000 1.0000
66.9300 264.0000 1.0000
66.9400 268.0000 1.0000
66.9500 258.0000 1.0000
66.9600 279.0000 1.0000
66.9700 264.0000 1.0000
66.9800 257.0000 1.0000
66.9900 263.0000 1.0000
67.0000 256.0000 1.0000
67.0100 250.0000 1.0000
67.0200 247.0000 1.0000
67.0300 247.0000 1.0000
67.0400 278.0000 1.0000
67.0500 273.0000 1.0000
67.0600 278.0000 1.0000
67.0700 262.0000 1.0000
67.0800 264.0000 1.0000
67.0900 248.0000 1.0000
67.1000 247.0000 1.0000
67.1100 248.0000 1.0000
67.1200 254.0000 1.0000
67.1300 265.0000 1.0000
67.1400 259.0000 1.0000
67.1500 247.0000 1.0000
67.1600 263.0000 1.0000
67.1700 252.0000 1.0000
67.1800 213.0000 1.0000
67.1900 256.0000 1.0000
67.2000 246.0000 1.0000
67.2100 230.0000 1.0000
67.2200 272.0000 1.0000
67.2300 263.0000 1.0000
67.2400 264.0000 1.0000
67.2500 252.0000 1.0000
67.2600 274.0000 1.0000
67.2700 274.0000 1.0000
67.2800 264.0000 1.0000
67.2900 252.0000 1.0000
67.3000 254.0000 1.0000
67.3100 247.0000 1.0000
67.3200 244.0000 1.0000
67.3300 278.0000 1.0000
67.3400 244.0000 1.0000
67.3500 284.0000 1.0000
67.3600 274.0000 1.0000
67.3700 269.0000 1.0000
67.3800 264.0000 1.0000
67.3900 249.0000 1.0000
67.4000 250.0000 1.0000
67.4100 258.0000 1.0000
67.4200 245.0000 1.0000
67.4300 233.0000 1.0000
67.4400 260.0000 1.0000
67.4500 270.0000 1.0000
67.4600 267.0000 1.0000
67.4700 267.0000 1.0000
67.4800 290.0000 1.0000
67.4900 240.0000 1.0000
67.5000 247.0000 1.0000
67.5100 270.0000 1.0000
67.5200 230.0000 1.0000
67.5300 235.0000 1.0000
67.5400 282.0000 1.0000
67.5500 263.0000 1.0000
67.5600 244.0000 1.0000
67.5700 260.0000 1.0000
67.5800 256.0000 1.0000
67.5900 261.0000 1.0000
67.6000 256.0000 1.0000
67.6100 249.0000 1.0000
67.6200 239.0000 1.0000
67.6300 248.0000 1.0000
67.6400 234.0000 1.0000
67.6500 245.0000 1.0000
67.6600 269.0000 1.0000
67.6700 259.0000 1.0000
67.6800 265.0000 1.0000
67.6900 257.0000 1.0000
67.7000 294.0000 1.0000
67.7100 218.0000 1.0000
67.7200 247.0000 1.0000
67.7300 238.0000 1.0000
67.7400 239.0000 1.0000
67.7500 247.0000 1.0000
67.7600 236.0000 1.0000
67.7700 243.0000 1.0000
67.7800 262.0000 1.0000
67.7900 233.0000 1.0000
67.8000 241.0000 1.0000
67.8100 222.0000 1.0000
67.8200 245.0000 1.0000
67.8300 265.0000 1.0000
67.8400 261.0000 1.0000
67.8500 245.0000 1.0000
67.8600 254.0000 1.0000
67.8700 240.0000 1.0000
67.8800 230.0000 1.0000
67.8900 277.0000 1.0000
67.9000 254.0000 1.0000
67.9100 262.0000 1.0000
67.9200 266.0000 1.0000
67.9300 273.0000 1.0000
67.9400 250.0000 1.0000
67.9500 259.0000 1.0000
67.9600 250.0000 1.0000
67.9700 273.0000 1.0000
67.9800 263.0000 1.0000
67.9900 264.0000 1.0000
68.0000 236.0000 1.0000
68.0100 238.0000 1.0000
68.0200 240.0000 1.0000
68.0300 246.0000 1.0000
68.0400 255.0000 1.0000
68.0500 239.0000 1.0000
68.0600 254.0000 1.0000
68.0700 245.0000 1.0000
68.0800 252.0000 1.0000
68.0900 256.0000 1.0000
68.1000 229.0000 1.0000
68.1100 258.0000 1.0000
68.1200 254.0000 1.0000
68.1300 260.0000 1.0000
68.1400 241.0000 1.0000
68.1500 243.0000 1.0000
68.1600 247.0000 1.0000
68.1700 241.0000 1.0000
68.1800 249.0000 1.0000
68.1900 257.0000 1.0000
68.2000 254.0000 1.0000
68.2100 240.0000 1.0000
68.2200 245.0000 1.0000
68.2300 258.0000 1.0000
68.2400 237.0000 1.0000
68.2500 239.0000 1.0000
68.2600 282.0000 1.0000
68.2700 275.0000 1.0000
68.2800 269.0000 1.0000
68.2900 271.0000 1.0000
68.3000 267.0000 1.0000
68.3100 270.0000 1.0000
68.3200 248.0000 1.0000
68.3300 236.0000 1.0000
68.3400 258.0000 1.0000
68.3500 284.0000 1.0000
68.3600 274.0000 1.0000
68.3700 244.0000 1.0000
68.3800 266.0000 1.0000
68.3900 231.0000 1.0000
68.4000 266.0000 1.0000
68.4100 249.0000 1.0000
68.4200 241.0000 1.0000
68.4300 244.0000 1.0000
68.4400 241.0000 1.0000
68.4500 252.0000 1.0000
68.4600 243.0000 1.0000
68.4700 245.0000 1.0000
68.4800 261.0000 1.0000
68.4900 251.0000 1.0000
68.5000 259.0000 1.0000
68.5100 257.0000 1.0000
68.5200 261.0000 1.0000
68.5300 253.0000 1.0000
68.5400 253.0000 1.0000
68.5500 276.0000 1.0000
68.5600 261.0000 1.0000
68.5700 246.0000 1.0000
68.5800 231.0000 1.0000
68.5900 236.0000 1.0000
68.6000 246.0000 1.0000
68.6100 263.0000 1.0000
68.6200 257.0000 1.0000
68.6300 288.0000 1.0000
68.6400 248.0000 1.0000
68.6500 270.0000 1.0000
68.6600 253.0000 1.0000
68.6700 254.0000 1.0000
68.6800 251.0000 1.0000
68.6900 238.0000 1.0000
68.7000 229.0000 1.0000
68.7100 250.0000 1.0000
68.7200 244.0000 1.0000
68.7300 231.0000 1.0000
68.7400 246.0000 1.0000
68.7500 281.0000 1.0000
68.7600 268.0000 1.0000
68.7700 267.0000 1.0000
68.7800 243.0000 1.0000
68.7900 269.0000 1.0000
68.8000 269.0000 1.0000
68.8100 268.0000 1.0000
68.8200 265.0000 1.0000
68.8300 245.0000 1.0000
68.8400 242.0000 1.0000
68.8500 225.0000 1.0000
68.8600 234.0000 1.0000
68.8700 242.0000 1.0000
68.8800 246.0000 1.0000
68.8900 273.0000 1.0000
68.9000 246.0000 1.0000
68.9100 226.0000 1.0000
68.9200 236.0000 1.0000
68.9300 253.0000 1.0000
68.9400 256.0000 1.0000
68.9500 230.0000 1.0000
68.9600 257.0000 1.0000
68.9700 235.0000 1.0000
68.9800 243.0000 1.0000
68.9900 243.0000 1.0000
69.0000 250.0000 1.0000
69.0100 251.0000 1.0000
69.0200 248.0000 1.0000
69.0300 251.0000 1.0000
69.0400 228.0000 1.0000
69.0500 238.0000 1.0000
69.0600 256.0000 1.0000
69.0700 267.0000 1.0000
69.0800 276.0000 1.0000
69.0900 262.0000 1.0000
69.1000 237.0000 1.0000
69.1100 250.0000 1.0000
69.1200 233.0000 1.0000
69.1300 244.0000 1.0000
69.1400 252.0000 1.0000
69.1500 239.0000 1.0000
69.1600 270.0000 1.0000
69.1700 254.0000 1.0000
69.1800 251.0000 1.0000
69.1900 242.0000 1.0000
69.2000 250.0000 1.0000
69.2100 240.0000 1.0000
69.2200 253.0000 1.0000
69.2300 230.0000 1.0000
69.2400 244.0000 1.0000
69.2500 253.0000 1.0000
69.2600 240.0000 1.0000
69.2700 257.0000 1.0000
69.2800 264.0000 1.0000
69.2900 241.0000 1.0000
69.3000 240.0000 1.0000
69.3100 260.0000 1.0000
69.3200 253.0000 1.0000
69.3300 237.0000 1.0000
69.3400 228.0000 1.0000
69.3500 227.0000 1.0000
69.3600 237.0000 1.0000
69.3700 236.0000 1.0000
69.3800 246.0000 1.0000
69.3900 242.0000 1.0000
69.4000 228.0000 1.0000
69.4100 251.0000 1.0000
69.4200 254.0000 1.0000
69.4300 250.0000 1.0000
69.4400 238.0000 1.0000
69.4500 250.0000 1.0000
69.4600 233.0000 1.0000
69.4700 225.0000 1.0000
69.4800 252.0000 1.0000
69.4900 227.0000 1.0000
69.5000 222.0000 1.0000
69.5100 254.0000 1.0000
69.5200 229.0000 1.0000
69.5300 217.0000 1.0000
69.5400 222.0000 1.0000
69.5500 256.0000 1.0000
69.5600 238.0000 1.0000
69.5700 256.0000 1.0000
69.5800 240.0000 1.0000
69.5900 250.0000 1.0000
69.6000 232.0000 1.0000
69.6100 237.0000 1.0000
69.6200 230.0000 1.0000
69.6300 234.0000 1.0000
69.6400 244.0000 1.0000
69.6500 239.0000 1.0000
69.6600 263.0000 1.0000
69.6700 241.0000 1.0000
69.6800 225.0000 1.0000
69.6900 221.0000 1.0000
69.7000 235.0000 1.0000
69.7100 240.0000 1.0000
69.7200 239.0000 1.0000
69.7300 223.0000 1.0000
69.7400 214.0000 1.0000
69.7500 248.0000 1.0000
69.7600 243.0000 1.0000
69.7700 235.0000 1.0000
69.7800 225.0000 1.0000
69.7900 219.0000 1.0000
69.8000 241.0000 1.0000
69.8100 243.0000 1.0000
69.8200 248.0000 1.0000
69.8300 245.0000 1.0000
69.8400 281.0000 1.0000
69.8500 254.0000 1.0000
69.8600 245.0000 1.0000
69.8700 236.0000 1.0000
69.8800 246.0000 1.0000
69.8900 249.0000 1.0000
69.9000 252.0000 1.0000
69.9100 252.0000 1.0000
69.9200 234.0000 1.0000
69.9300 221.0000 1.0000
69.9400 248.0000 1.0000
69.9500 239.0000 1.0000
69.9600 253.0000 1.0000
69.9700 246.0000 1.0000
69.9800 241.0000 1.0000
69.9900 218.0000 1.0000
70.0000 247.0000 1.0000
*RAS_INT_END
*RAS_TEMPERATURE_START
*RAS_TEMPERATURE_END
*RAS_DATA_END
