*RAS_DATA_START
*RAS_HEADER_START
*DISP_FMT_X "%.2f"
*DISP_FMT_Y "%.0f"
*DISP_FULLSCALE "14465.0000000000"
*DISP_LINE_COLOR "255.0000000000"
*DISP_LINE_STYLE "0.0000000000"
*DISP_LINE_WIDTH "0.2500000000"
*DISP_NOTE "測定データ-6"
*DISP_OFFSET_Y "0.0000000000"
*DISP_PEAKSEARCH_UNIT_Y "cps"
*DISP_RANGE_BOTTOM "0.0000000000"
*DISP_RANGE_LEFT "20.0000000000"
*DISP_RANGE_LOGCUTOFF "0.0100000000"
*DISP_RANGE_RIGHT "70.0000000000"
*DISP_RANGE_TOP "14465.0000000000"
*DISP_SCALE_MODE_Y "0.0000000000"
*DISP_TAB_NAME "2θ/θ"
*DISP_TITLE_Y "強度"
*DISP_UNIT_Y "cps"
*DISP_WINDOW_NAME "MSG_MACROENGINE"
*FILE_COMMENT " "
*FILE_MD5 ""
*FILE_MEMO " "
*FILE_OPERATOR "Administrator"
*FILE_SAMPLE " "
*FILE_TYPE "RAS_RAW"
*FILE_USERGROUP "システムマネージャ"
*FILE_VERSION "1.0000000000"
*HW_ATTACHMENT_ID "ATT0025"
*HW_ATTACHMENT_NAME "標準|Standard"
*HW_COUNTER_ID-0 "CUT0025"
*HW_COUNTER_ID-1 "CUT0020"
*HW_COUNTER_ID-2 "CUT0020"
*HW_COUNTER_ID-3 "CSL0021"
*HW_COUNTER_ID-4 "CMC0021"
*HW_COUNTER_NAME-0 "D/teX Ultra|D/teX Ultra"
*HW_COUNTER_NAME-1 "None|None"
*HW_COUNTER_NAME-2 "None|None"
*HW_COUNTER_NAME-3 "BBM|BBM"
*HW_COUNTER_NAME-4 "検出器モノクロメータ|Detector monochromator"
*HW_COUNTER_SELECT_NAME "D/teX Ultra|D/teX Ultra"
*HW_GONIOMETER_ID "GON0023"
*HW_GONIOMETER_NAME "SmartLab|SmartLab"
*HW_GONIOMETER_RADIUS-0 "90.0"
*HW_GONIOMETER_RADIUS-1 "114.0"
*HW_GONIOMETER_RADIUS-2 "190.0"
*HW_GONIOMETER_RADIUS-3 "300.0"
*HW_GONIOMETER_RADIUS-4 "187.0"
*HW_GONIOMETER_RADIUS-5 "300.0"
*HW_GONIOMETER_RADIUS-6 "113.0"
*HW_GONIOMETER_RADIUS-7 "331.0"
*HW_I_OPT_ID-0 "CBO0021"
*HW_I_OPT_ID-1 "ICR0023"
*HW_I_OPT_ID-2 "ISL0021"
*HW_I_OPT_ID-3 "ISO0021"
*HW_I_OPT_ID-4 "IAD0021"
*HW_I_OPT_ID-5 "IPR0001"
*HW_I_OPT_NAME-0 "CBOユニット|CBO unit"
*HW_I_OPT_NAME-1 "標準入射光学ユニット|Standard incident optical unit"
*HW_I_OPT_NAME-2 "標準入射スリットボックス|Standard incident slit box"
*HW_I_OPT_NAME-3 "入射平行スリット|Incident parallel slit"
*HW_I_OPT_NAME-4 "長手制限スリット|Length limiting slit"
*HW_I_OPT_NAME-5 "None|None"
*HW_R_ATTENUATER_AUTOMODE "0"
*HW_R_OPT_ID-0 "RSS0021"
*HW_R_OPT_ID-1 "RCR0023"
*HW_R_OPT_ID-2 "RSO0021"
*HW_R_OPT_ID-3 "RRS0021"
*HW_R_OPT_ID-4 "ATN0021"
*HW_R_OPT_ID-5 "RFL0021"
*HW_R_OPT_ID-6 "RAD0021"
*HW_R_OPT_NAME-0 "標準受光スリットボックス1|Standard receiving slit box # 1"
*HW_R_OPT_NAME-1 "標準受光光学ユニット1|Standard receiving unit # 1"
*HW_R_OPT_NAME-2 "標準受光光学ユニット2|Standard receiving optical unit # 2"
*HW_R_OPT_NAME-3 "標準受光スリットボックス2|Standard receiving slit box # 2"
*HW_R_OPT_NAME-4 "標準アッテネータ|Standard Attenuator"
*HW_R_OPT_NAME-5 "Cu Kβ|Cu K-beta"
*HW_R_OPT_NAME-6 "調整用受光スリット|Alignment receiving slit"
*HW_SAMPLE_HOLDER_ID "SMP0023"
*HW_SAMPLE_HOLDER_NAME "標準Zステージ|Standard Z stage"
*HW_XG_CURRENT_MAX "50"
*HW_XG_CURRENT_MIN "2"
*HW_XG_CURRENT_RESOLUTION "1"
*HW_XG_CURRENT_UNIT "mA"
*HW_XG_FOCUS "1mm x 10mm"
*HW_XG_FOCUS_TYPE "Normal"
*HW_XG_ID ""
*HW_XG_NAME "3kW 封入管(ID:1200)|3kW Sealed tube(ID:1200)"
*HW_XG_TARGET_ATOMIC_NUMBER "29.0000000000"
*HW_XG_TARGET_NAME "Cu"
*HW_XG_TYPE "Hermetic"
*HW_XG_VOLTAGE_MAX "60"
*HW_XG_VOLTAGE_MIN "20"
*HW_XG_VOLTAGE_RESOLUTION "1"
*HW_XG_VOLTAGE_UNIT "kV"
*HW_XG_WATT_MAX "1.500"
*HW_XG_WATT_UNIT "kW"
*HW_XG_WAVE_LENGTH_ALPHA1 "1.540593"
*HW_XG_WAVE_LENGTH_ALPHA2 "1.544414"
*HW_XG_WAVE_LENGTH_BETA "1.392250"
*MEAS_COND_AXIS_NAME-0 "2θ/θ"
*MEAS_COND_AXIS_NAME-1 "2θ"
*MEAS_COND_AXIS_NAME-2 "ω"
*MEAS_COND_AXIS_NAME-3 "Z"
*MEAS_COND_AXIS_NAME-4 "2θ/ω"
*MEAS_COND_AXIS_NAME-5 "θs"
*MEAS_COND_AXIS_NAME-6 "θd"
*MEAS_COND_AXIS_NAME-7 "Ts"
*MEAS_COND_AXIS_NAME-8 "CBO選択スリット"
*MEAS_COND_AXIS_NAME-9 "M"
*MEAS_COND_AXIS_NAME-10 "入射平行スリット"
*MEAS_COND_AXIS_NAME-11 "入射スリット"
*MEAS_COND_AXIS_NAME-12 ""
*MEAS_COND_AXIS_NAME-13 "Zs"
*MEAS_COND_AXIS_NAME-14 "入射光学素子"
*MEAS_COND_AXIS_NAME-15 "長手制限スリット"
*MEAS_COND_AXIS_NAME-16 "センタースリット"
*MEAS_COND_AXIS_NAME-17 "フィルター"
*MEAS_COND_AXIS_NAME-18 "受光スリット1"
*MEAS_COND_AXIS_NAME-19 "受光スリット2"
*MEAS_COND_AXIS_NAME-20 "受光光学素子"
*MEAS_COND_AXIS_NAME-21 "受光平行スリット"
*MEAS_COND_AXIS_NAME-22 "調整用受光スリット"
*MEAS_COND_AXIS_NAME-23 ""
*MEAS_COND_AXIS_NAME-24 ""
*MEAS_COND_AXIS_NAME-25 "Zd"
*MEAS_COND_AXIS_NAME-26 "アッテネータ"
*MEAS_COND_AXIS_NAME-27 "検出器モノクロメータ"
*MEAS_COND_AXIS_NAME-28 "モノクロメータスリット"
*MEAS_COND_AXIS_NAME-29 "プライマリビーム"
*MEAS_COND_AXIS_NAME-30 "PHA"
*MEAS_COND_AXIS_NAME_INTERNAL-0 "TwoThetaTheta"
*MEAS_COND_AXIS_NAME_INTERNAL-1 "TwoTheta"
*MEAS_COND_AXIS_NAME_INTERNAL-2 "Omega"
*MEAS_COND_AXIS_NAME_INTERNAL-3 "Z"
*MEAS_COND_AXIS_NAME_INTERNAL-4 "TwoThetaOmega"
*MEAS_COND_AXIS_NAME_INTERNAL-5 "ThetaS"
*MEAS_COND_AXIS_NAME_INTERNAL-6 "ThetaD"
*MEAS_COND_AXIS_NAME_INTERNAL-7 "Ts"
*MEAS_COND_AXIS_NAME_INTERNAL-8 "CBO"
*MEAS_COND_AXIS_NAME_INTERNAL-9 "CBO-M"
*MEAS_COND_AXIS_NAME_INTERNAL-10 "IncidentSollerSlit"
*MEAS_COND_AXIS_NAME_INTERNAL-11 "IncidentSlitBox"
*MEAS_COND_AXIS_NAME_INTERNAL-12 "IncidentSlitBox-_Axis"
*MEAS_COND_AXIS_NAME_INTERNAL-13 "Zs"
*MEAS_COND_AXIS_NAME_INTERNAL-14 "IncidentMonochromator"
*MEAS_COND_AXIS_NAME_INTERNAL-15 "IncidentAxdSlit"
*MEAS_COND_AXIS_NAME_INTERNAL-16 "CenterSlit"
*MEAS_COND_AXIS_NAME_INTERNAL-17 "Filter"
*MEAS_COND_AXIS_NAME_INTERNAL-18 "ReceivingSlitBox1"
*MEAS_COND_AXIS_NAME_INTERNAL-19 "ReceivingSlitBox2"
*MEAS_COND_AXIS_NAME_INTERNAL-20 "ReceivingOptics"
*MEAS_COND_AXIS_NAME_INTERNAL-21 "ReceivingSollerSlit"
*MEAS_COND_AXIS_NAME_INTERNAL-22 "ReceivingAxdSlit"
*MEAS_COND_AXIS_NAME_INTERNAL-23 "ReceivingSlitBox1-_Axis"
*MEAS_COND_AXIS_NAME_INTERNAL-24 "ReceivingSlitBox2-_Axis"
*MEAS_COND_AXIS_NAME_INTERNAL-25 "ReceivingSlitBox2-Zd"
*MEAS_COND_AXIS_NAME_INTERNAL-26 "Attenuator"
*MEAS_COND_AXIS_NAME_INTERNAL-27 "CounterMonochromator"
*MEAS_COND_AXIS_NAME_INTERNAL-28 "CounterSlit"
*MEAS_COND_AXIS_NAME_INTERNAL-29 "IncidentPrimary"
*MEAS_COND_AXIS_NAME_INTERNAL-30 "PHA"
*MEAS_COND_AXIS_NAME_MAGICNO-0 "83951616.0000000000"
*MEAS_COND_AXIS_NAME_MAGICNO-1 "268632064.0000000000"
*MEAS_COND_AXIS_NAME_MAGICNO-2 "268500992.0000000000"
*MEAS_COND_AXIS_NAME_MAGICNO-3 "285278208.0000000000"
*MEAS_COND_AXIS_NAME_MAGICNO-4 "83951616.0000000000"
*MEAS_COND_AXIS_NAME_MAGICNO-5 "131072.0000000000"
*MEAS_COND_AXIS_NAME_MAGICNO-6 "131072.0000000000"
*MEAS_COND_AXIS_NAME_MAGICNO-7 "318898176.0000000000"
*MEAS_COND_AXIS_NAME_MAGICNO-8 "20971521.0000000000"
*MEAS_COND_AXIS_NAME_MAGICNO-9 "285343744.0000000000"
*MEAS_COND_AXIS_NAME_MAGICNO-10 "20971521.0000000000"
*MEAS_COND_AXIS_NAME_MAGICNO-11 "22020097.0000000000"
*MEAS_COND_AXIS_NAME_MAGICNO-12 "25165824.0000000000"
*MEAS_COND_AXIS_NAME_MAGICNO-13 "318898176.0000000000"
*MEAS_COND_AXIS_NAME_MAGICNO-14 "1.0000000000"
*MEAS_COND_AXIS_NAME_MAGICNO-15 "20971521.0000000000"
*MEAS_COND_AXIS_NAME_MAGICNO-16 "20971521.0000000000"
*MEAS_COND_AXIS_NAME_MAGICNO-17 "20971521.0000000000"
*MEAS_COND_AXIS_NAME_MAGICNO-18 "23068673.0000000000"
*MEAS_COND_AXIS_NAME_MAGICNO-19 "23068673.0000000000"
*MEAS_COND_AXIS_NAME_MAGICNO-20 "20971521.0000000000"
*MEAS_COND_AXIS_NAME_MAGICNO-21 "20971521.0000000000"
*MEAS_COND_AXIS_NAME_MAGICNO-22 "20971521.0000000000"
*MEAS_COND_AXIS_NAME_MAGICNO-23 "25165824.0000000000"
*MEAS_COND_AXIS_NAME_MAGICNO-24 "25165824.0000000000"
*MEAS_COND_AXIS_NAME_MAGICNO-25 "285343744.0000000000"
*MEAS_COND_AXIS_NAME_MAGICNO-26 "17301505.0000000000"
*MEAS_COND_AXIS_NAME_MAGICNO-27 "20971521.0000000000"
*MEAS_COND_AXIS_NAME_MAGICNO-28 "20971521.0000000000"
*MEAS_COND_AXIS_NAME_MAGICNO-29 "20971521.0000000000"
*MEAS_COND_AXIS_NAME_MAGICNO-30 "0.0000000000"
*MEAS_COND_AXIS_OFFSET-0 "-"
*MEAS_COND_AXIS_OFFSET-1 "-0.0310000000"
*MEAS_COND_AXIS_OFFSET-2 "0.3978000000"
*MEAS_COND_AXIS_OFFSET-3 "-"
*MEAS_COND_AXIS_OFFSET-4 "-"
*MEAS_COND_AXIS_OFFSET-5 "0.3978000000"
*MEAS_COND_AXIS_OFFSET-6 "-0.4288000000"
*MEAS_COND_AXIS_OFFSET-7 "-"
*MEAS_COND_AXIS_OFFSET-8 "-"
*MEAS_COND_AXIS_OFFSET-9 "-"
*MEAS_COND_AXIS_OFFSET-10 "-"
*MEAS_COND_AXIS_OFFSET-11 "-"
*MEAS_COND_AXIS_OFFSET-12 "-"
*MEAS_COND_AXIS_OFFSET-13 "-"
*MEAS_COND_AXIS_OFFSET-14 "-"
*MEAS_COND_AXIS_OFFSET-15 "-"
*MEAS_COND_AXIS_OFFSET-16 "-"
*MEAS_COND_AXIS_OFFSET-17 "-"
*MEAS_COND_AXIS_OFFSET-18 "-"
*MEAS_COND_AXIS_OFFSET-19 "-"
*MEAS_COND_AXIS_OFFSET-20 "-"
*MEAS_COND_AXIS_OFFSET-21 "-"
*MEAS_COND_AXIS_OFFSET-22 "-"
*MEAS_COND_AXIS_OFFSET-23 "-"
*MEAS_COND_AXIS_OFFSET-24 "-"
*MEAS_COND_AXIS_OFFSET-25 "-"
*MEAS_COND_AXIS_OFFSET-26 "-"
*MEAS_COND_AXIS_OFFSET-27 "-"
*MEAS_COND_AXIS_OFFSET-28 "-"
*MEAS_COND_AXIS_OFFSET-29 "-"
*MEAS_COND_AXIS_OFFSET-30 "-"
*MEAS_COND_AXIS_POSITION-0 "0.0000000000"
*MEAS_COND_AXIS_POSITION-1 "0.0000000000"
*MEAS_COND_AXIS_POSITION-2 "0.0000000000"
*MEAS_COND_AXIS_POSITION-3 "-2.9770000000"
*MEAS_COND_AXIS_POSITION-4 "0.0000000000"
*MEAS_COND_AXIS_POSITION-5 "0.0000000000"
*MEAS_COND_AXIS_POSITION-6 "0.0000000000"
*MEAS_COND_AXIS_POSITION-7 "-0.7498700000"
*MEAS_COND_AXIS_POSITION-8 "BB"
*MEAS_COND_AXIS_POSITION-9 "0.0000000000"
*MEAS_COND_AXIS_POSITION-10 "Soller_slit_5.0deg"
*MEAS_COND_AXIS_POSITION-11 "2/3deg"
*MEAS_COND_AXIS_POSITION-12 "2.2088000000"
*MEAS_COND_AXIS_POSITION-13 "-0.6412500000"
*MEAS_COND_AXIS_POSITION-14 "0.0000000000"
*MEAS_COND_AXIS_POSITION-15 "10.0mm"
*MEAS_COND_AXIS_POSITION-16 "None"
*MEAS_COND_AXIS_POSITION-17 "Cu_K-beta"
*MEAS_COND_AXIS_POSITION-18 "13.000mm"
*MEAS_COND_AXIS_POSITION-19 "13.000mm"
*MEAS_COND_AXIS_POSITION-20 "No_unit"
*MEAS_COND_AXIS_POSITION-21 "Soller_slit_5.0deg"
*MEAS_COND_AXIS_POSITION-22 "None"
*MEAS_COND_AXIS_POSITION-23 "13.0000000000"
*MEAS_COND_AXIS_POSITION-24 "13.0000000000"
*MEAS_COND_AXIS_POSITION-25 "0.0281300000"
*MEAS_COND_AXIS_POSITION-26 "Open"
*MEAS_COND_AXIS_POSITION-27 "None"
*MEAS_COND_AXIS_POSITION-28 "None"
*MEAS_COND_AXIS_POSITION-29 "None"
*MEAS_COND_AXIS_POSITION-30 "38.0000000000"
*MEAS_COND_AXIS_UNIT-0 "deg"
*MEAS_COND_AXIS_UNIT-1 "deg"
*MEAS_COND_AXIS_UNIT-2 "deg"
*MEAS_COND_AXIS_UNIT-3 "mm"
*MEAS_COND_AXIS_UNIT-4 "deg"
*MEAS_COND_AXIS_UNIT-5 "deg"
*MEAS_COND_AXIS_UNIT-6 "deg"
*MEAS_COND_AXIS_UNIT-7 "mm"
*MEAS_COND_AXIS_UNIT-8 ""
*MEAS_COND_AXIS_UNIT-9 "pulse"
*MEAS_COND_AXIS_UNIT-10 ""
*MEAS_COND_AXIS_UNIT-11 ""
*MEAS_COND_AXIS_UNIT-12 "mm"
*MEAS_COND_AXIS_UNIT-13 "mm"
*MEAS_COND_AXIS_UNIT-14 ""
*MEAS_COND_AXIS_UNIT-15 ""
*MEAS_COND_AXIS_UNIT-16 ""
*MEAS_COND_AXIS_UNIT-17 ""
*MEAS_COND_AXIS_UNIT-18 ""
*MEAS_COND_AXIS_UNIT-19 ""
*MEAS_COND_AXIS_UNIT-20 ""
*MEAS_COND_AXIS_UNIT-21 ""
*MEAS_COND_AXIS_UNIT-22 ""
*MEAS_COND_AXIS_UNIT-23 "mm"
*MEAS_COND_AXIS_UNIT-24 "mm"
*MEAS_COND_AXIS_UNIT-25 "mm"
*MEAS_COND_AXIS_UNIT-26 ""
*MEAS_COND_AXIS_UNIT-27 ""
*MEAS_COND_AXIS_UNIT-28 ""
*MEAS_COND_AXIS_UNIT-29 ""
*MEAS_COND_AXIS_UNIT-30 "div"
*MEAS_COND_COUNTER_CNTLOSS_CORR "0.0000000000"
*MEAS_COND_COUNTER_PHABASE "38.0000000000"
*MEAS_COND_COUNTER_PHAWINDOW "16.0000000000"
*MEAS_COND_COUNTER_PHA_UNIT "div"
*MEAS_COND_COUNTER_TAUDIFF "30.0000000000"
*MEAS_COND_COUNTER_TAUINT "0.0000000000"
*MEAS_COND_IRRADIATION_MODE "OFF"
*MEAS_COND_IRRADIATION_WIDTH ""
*MEAS_COND_OPT_ATTR "集中法"
*MEAS_COND_OPT_NAME "@集中法"
*MEAS_COND_UNSYMMETRIC_MODE "OFF"
*MEAS_COND_XG_CURRENT "30.0000000000"
*MEAS_COND_XG_VOLTAGE "40.0000000000"
*MEAS_COND_XG_WAVE_TYPE "Ka"
*MEAS_DATA_COUNT "5001.0000000000"
*MEAS_SCAN_AXIS_X "2θ/θ"
*MEAS_SCAN_AXIS_X_INTERNAL "TwoThetaTheta"
*MEAS_SCAN_END_TIME "05/18/23 20:09:29"
*MEAS_SCAN_MODE "CONTINUOUS"
*MEAS_SCAN_MONITOR "0"
*MEAS_SCAN_RESOLUTION_X "0.0002"
*MEAS_SCAN_SPEED "2.5"
*MEAS_SCAN_SPEED_UNIT "deg/min"
*MEAS_SCAN_START "20.0000000000"
*MEAS_SCAN_START_TIME "05/18/23 19:48:05"
*MEAS_SCAN_STEP "0.0100000000"
*MEAS_SCAN_STOP "70.0000000000"
*MEAS_SCAN_UNIT_X "deg"
*MEAS_SCAN_UNIT_Y "counts"
*RAS_HEADER_END
*RAS_INT_START
20.0000 893.0000 1.0000
20.0100 806.0000 1.0000
20.0200 872.0000 1.0000
20.0300 880.0000 1.0000
20.0400 876.0000 1.0000
20.0500 820.0000 1.0000
20.0600 858.0000 1.0000
20.0700 871.0000 1.0000
20.0800 846.0000 1.0000
20.0900 874.0000 1.0000
20.1000 868.0000 1.0000
20.1100 897.0000 1.0000
20.1200 870.0000 1.0000
20.1300 856.0000 1.0000
20.1400 880.0000 1.0000
20.1500 878.0000 1.0000
20.1600 853.0000 1.0000
20.1700 826.0000 1.0000
20.1800 900.0000 1.0000
20.1900 908.0000 1.0000
20.2000 857.0000 1.0000
20.2100 838.0000 1.0000
20.2200 862.0000 1.0000
20.2300 866.0000 1.0000
20.2400 862.0000 1.0000
20.2500 831.0000 1.0000
20.2600 826.0000 1.0000
20.2700 833.0000 1.0000
20.2800 863.0000 1.0000
20.2900 920.0000 1.0000
20.3000 828.0000 1.0000
20.3100 868.0000 1.0000
20.3200 882.0000 1.0000
20.3300 830.0000 1.0000
20.3400 904.0000 1.0000
20.3500 932.0000 1.0000
20.3600 909.0000 1.0000
20.3700 855.0000 1.0000
20.3800 886.0000 1.0000
20.3900 878.0000 1.0000
20.4000 912.0000 1.0000
20.4100 869.0000 1.0000
20.4200 834.0000 1.0000
20.4300 827.0000 1.0000
20.4400 905.0000 1.0000
20.4500 884.0000 1.0000
20.4600 918.0000 1.0000
20.4700 878.0000 1.0000
20.4800 874.0000 1.0000
20.4900 840.0000 1.0000
20.5000 851.0000 1.0000
20.5100 849.0000 1.0000
20.5200 869.0000 1.0000
20.5300 887.0000 1.0000
20.5400 874.0000 1.0000
20.5500 854.0000 1.0000
20.5600 856.0000 1.0000
20.5700 828.0000 1.0000
20.5800 863.0000 1.0000
20.5900 848.0000 1.0000
20.6000 864.0000 1.0000
20.6100 862.0000 1.0000
20.6200 860.0000 1.0000
20.6300 855.0000 1.0000
20.6400 873.0000 1.0000
20.6500 871.0000 1.0000
20.6600 867.0000 1.0000
20.6700 868.0000 1.0000
20.6800 780.0000 1.0000
20.6900 840.0000 1.0000
20.7000 858.0000 1.0000
20.7100 869.0000 1.0000
20.7200 858.0000 1.0000
20.7300 908.0000 1.0000
20.7400 862.0000 1.0000
20.7500 891.0000 1.0000
20.7600 835.0000 1.0000
20.7700 863.0000 1.0000
20.7800 901.0000 1.0000
20.7900 850.0000 1.0000
20.8000 810.0000 1.0000
20.8100 861.0000 1.0000
20.8200 875.0000 1.0000
20.8300 847.0000 1.0000
20.8400 859.0000 1.0000
20.8500 854.0000 1.0000
20.8600 835.0000 1.0000
20.8700 880.0000 1.0000
20.8800 876.0000 1.0000
20.8900 879.0000 1.0000
20.9000 870.0000 1.0000
20.9100 869.0000 1.0000
20.9200 888.0000 1.0000
20.9300 874.0000 1.0000
20.9400 887.0000 1.0000
20.9500 844.0000 1.0000
20.9600 854.0000 1.0000
20.9700 821.0000 1.0000
20.9800 849.0000 1.0000
20.9900 926.0000 1.0000
21.0000 909.0000 1.0000
21.0100 946.0000 1.0000
21.0200 838.0000 1.0000
21.0300 900.0000 1.0000
21.0400 843.0000 1.0000
21.0500 888.0000 1.0000
21.0600 868.0000 1.0000
21.0700 839.0000 1.0000
21.0800 882.0000 1.0000
21.0900 878.0000 1.0000
21.1000 845.0000 1.0000
21.1100 915.0000 1.0000
21.1200 900.0000 1.0000
21.1300 859.0000 1.0000
21.1400 852.0000 1.0000
21.1500 874.0000 1.0000
21.1600 863.0000 1.0000
21.1700 876.0000 1.0000
21.1800 905.0000 1.0000
21.1900 874.0000 1.0000
21.2000 862.0000 1.0000
21.2100 862.0000 1.0000
21.2200 845.0000 1.0000
21.2300 841.0000 1.0000
21.2400 873.0000 1.0000
21.2500 851.0000 1.0000
21.2600 870.0000 1.0000
21.2700 857.0000 1.0000
21.2800 849.0000 1.0000
21.2900 879.0000 1.0000
21.3000 872.0000 1.0000
21.3100 861.0000 1.0000
21.3200 899.0000 1.0000
21.3300 844.0000 1.0000
21.3400 822.0000 1.0000
21.3500 876.0000 1.0000
21.3600 887.0000 1.0000
21.3700 839.0000 1.0000
21.3800 859.0000 1.0000
21.3900 873.0000 1.0000
21.4000 867.0000 1.0000
21.4100 881.0000 1.0000
21.4200 862.0000 1.0000
21.4300 845.0000 1.0000
21.4400 834.0000 1.0000
21.4500 866.0000 1.0000
21.4600 891.0000 1.0000
21.4700 866.0000 1.0000
21.4800 844.0000 1.0000
21.4900 841.0000 1.0000
21.5000 875.0000 1.0000
21.5100 830.0000 1.0000
21.5200 846.0000 1.0000
21.5300 882.0000 1.0000
21.5400 876.0000 1.0000
21.5500 913.0000 1.0000
21.5600 872.0000 1.0000
21.5700 859.0000 1.0000
21.5800 826.0000 1.0000
21.5900 819.0000 1.0000
21.6000 848.0000 1.0000
21.6100 866.0000 1.0000
21.6200 848.0000 1.0000
21.6300 855.0000 1.0000
21.6400 860.0000 1.0000
21.6500 853.0000 1.0000
21.6600 876.0000 1.0000
21.6700 908.0000 1.0000
21.6800 860.0000 1.0000
21.6900 836.0000 1.0000
21.7000 835.0000 1.0000
21.7100 834.0000 1.0000
21.7200 873.0000 1.0000
21.7300 824.0000 1.0000
21.7400 828.0000 1.0000
21.7500 866.0000 1.0000
21.7600 831.0000 1.0000
21.7700 906.0000 1.0000
21.7800 883.0000 1.0000
21.7900 924.0000 1.0000
21.8000 851.0000 1.0000
21.8100 836.0000 1.0000
21.8200 868.0000 1.0000
21.8300 851.0000 1.0000
21.8400 844.0000 1.0000
21.8500 883.0000 1.0000
21.8600 818.0000 1.0000
21.8700 874.0000 1.0000
21.8800 875.0000 1.0000
21.8900 881.0000 1.0000
21.9000 838.0000 1.0000
21.9100 898.0000 1.0000
21.9200 881.0000 1.0000
21.9300 815.0000 1.0000
21.9400 827.0000 1.0000
21.9500 859.0000 1.0000
21.9600 877.0000 1.0000
21.9700 866.0000 1.0000
21.9800 844.0000 1.0000
21.9900 859.0000 1.0000
22.0000 877.0000 1.0000
22.0100 882.0000 1.0000
22.0200 830.0000 1.0000
22.0300 861.0000 1.0000
22.0400 862.0000 1.0000
22.0500 907.0000 1.0000
22.0600 855.0000 1.0000
22.0700 852.0000 1.0000
22.0800 845.0000 1.0000
22.0900 838.0000 1.0000
22.1000 855.0000 1.0000
22.1100 850.0000 1.0000
22.1200 806.0000 1.0000
22.1300 836.0000 1.0000
22.1400 817.0000 1.0000
22.1500 821.0000 1.0000
22.1600 885.0000 1.0000
22.1700 860.0000 1.0000
22.1800 838.0000 1.0000
22.1900 837.0000 1.0000
22.2000 882.0000 1.0000
22.2100 871.0000 1.0000
22.2200 867.0000 1.0000
22.2300 865.0000 1.0000
22.2400 852.0000 1.0000
22.2500 810.0000 1.0000
22.2600 817.0000 1.0000
22.2700 846.0000 1.0000
22.2800 834.0000 1.0000
22.2900 847.0000 1.0000
22.3000 847.0000 1.0000
22.3100 830.0000 1.0000
22.3200 834.0000 1.0000
22.3300 818.0000 1.0000
22.3400 831.0000 1.0000
22.3500 884.0000 1.0000
22.3600 888.0000 1.0000
22.3700 843.0000 1.0000
22.3800 873.0000 1.0000
22.3900 806.0000 1.0000
22.4000 848.0000 1.0000
22.4100 811.0000 1.0000
22.4200 851.0000 1.0000
22.4300 859.0000 1.0000
22.4400 771.0000 1.0000
22.4500 852.0000 1.0000
22.4600 870.0000 1.0000
22.4700 835.0000 1.0000
22.4800 857.0000 1.0000
22.4900 813.0000 1.0000
22.5000 869.0000 1.0000
22.5100 882.0000 1.0000
22.5200 920.0000 1.0000
22.5300 889.0000 1.0000
22.5400 825.0000 1.0000
22.5500 857.0000 1.0000
22.5600 879.0000 1.0000
22.5700 840.0000 1.0000
22.5800 845.0000 1.0000
22.5900 818.0000 1.0000
22.6000 842.0000 1.0000
22.6100 859.0000 1.0000
22.6200 848.0000 1.0000
22.6300 806.0000 1.0000
22.6400 820.0000 1.0000
22.6500 856.0000 1.0000
22.6600 825.0000 1.0000
22.6700 828.0000 1.0000
22.6800 871.0000 1.0000
22.6900 819.0000 1.0000
22.7000 871.0000 1.0000
22.7100 864.0000 1.0000
22.7200 863.0000 1.0000
22.7300 849.0000 1.0000
22.7400 840.0000 1.0000
22.7500 840.0000 1.0000
22.7600 844.0000 1.0000
22.7700 834.0000 1.0000
22.7800 890.0000 1.0000
22.7900 814.0000 1.0000
22.8000 863.0000 1.0000
22.8100 927.0000 1.0000
22.8200 861.0000 1.0000
22.8300 862.0000 1.0000
22.8400 892.0000 1.0000
22.8500 885.0000 1.0000
22.8600 869.0000 1.0000
22.8700 843.0000 1.0000
22.8800 853.0000 1.0000
22.8900 839.0000 1.0000
22.9000 866.0000 1.0000
22.9100 831.0000 1.0000
22.9200 851.0000 1.0000
22.9300 852.0000 1.0000
22.9400 882.0000 1.0000
22.9500 854.0000 1.0000
22.9600 829.0000 1.0000
22.9700 814.0000 1.0000
22.9800 841.0000 1.0000
22.9900 867.0000 1.0000
23.0000 851.0000 1.0000
23.0100 847.0000 1.0000
23.0200 822.0000 1.0000
23.0300 845.0000 1.0000
23.0400 867.0000 1.0000
23.0500 861.0000 1.0000
23.0600 807.0000 1.0000
23.0700 862.0000 1.0000
23.0800 821.0000 1.0000
23.0900 862.0000 1.0000
23.1000 816.0000 1.0000
23.1100 857.0000 1.0000
23.1200 873.0000 1.0000
23.1300 790.0000 1.0000
23.1400 815.0000 1.0000
23.1500 882.0000 1.0000
23.1600 879.0000 1.0000
23.1700 818.0000 1.0000
23.1800 822.0000 1.0000
23.1900 842.0000 1.0000
23.2000 862.0000 1.0000
23.2100 892.0000 1.0000
23.2200 881.0000 1.0000
23.2300 859.0000 1.0000
23.2400 808.0000 1.0000
23.2500 858.0000 1.0000
23.2600 840.0000 1.0000
23.2700 838.0000 1.0000
23.2800 818.0000 1.0000
23.2900 831.0000 1.0000
23.3000 819.0000 1.0000
23.3100 855.0000 1.0000
23.3200 860.0000 1.0000
23.3300 829.0000 1.0000
23.3400 835.0000 1.0000
23.3500 875.0000 1.0000
23.3600 844.0000 1.0000
23.3700 848.0000 1.0000
23.3800 849.0000 1.0000
23.3900 845.0000 1.0000
23.4000 833.0000 1.0000
23.4100 843.0000 1.0000
23.4200 794.0000 1.0000
23.4300 845.0000 1.0000
23.4400 815.0000 1.0000
23.4500 818.0000 1.0000
23.4600 862.0000 1.0000
23.4700 863.0000 1.0000
23.4800 814.0000 1.0000
23.4900 845.0000 1.0000
23.5000 830.0000 1.0000
23.5100 838.0000 1.0000
23.5200 879.0000 1.0000
23.5300 812.0000 1.0000
23.5400 806.0000 1.0000
23.5500 785.0000 1.0000
23.5600 815.0000 1.0000
23.5700 856.0000 1.0000
23.5800 863.0000 1.0000
23.5900 858.0000 1.0000
23.6000 850.0000 1.0000
23.6100 821.0000 1.0000
23.6200 897.0000 1.0000
23.6300 881.0000 1.0000
23.6400 843.0000 1.0000
23.6500 840.0000 1.0000
23.6600 825.0000 1.0000
23.6700 869.0000 1.0000
23.6800 847.0000 1.0000
23.6900 818.0000 1.0000
23.7000 823.0000 1.0000
23.7100 845.0000 1.0000
23.7200 779.0000 1.0000
23.7300 848.0000 1.0000
23.7400 838.0000 1.0000
23.7500 865.0000 1.0000
23.7600 835.0000 1.0000
23.7700 854.0000 1.0000
23.7800 809.0000 1.0000
23.7900 816.0000 1.0000
23.8000 805.0000 1.0000
23.8100 864.0000 1.0000
23.8200 825.0000 1.0000
23.8300 800.0000 1.0000
23.8400 843.0000 1.0000
23.8500 841.0000 1.0000
23.8600 855.0000 1.0000
23.8700 834.0000 1.0000
23.8800 792.0000 1.0000
23.8900 839.0000 1.0000
23.9000 834.0000 1.0000
23.9100 854.0000 1.0000
23.9200 824.0000 1.0000
23.9300 822.0000 1.0000
23.9400 886.0000 1.0000
23.9500 861.0000 1.0000
23.9600 842.0000 1.0000
23.9700 828.0000 1.0000
23.9800 822.0000 1.0000
23.9900 839.0000 1.0000
24.0000 842.0000 1.0000
24.0100 829.0000 1.0000
24.0200 840.0000 1.0000
24.0300 798.0000 1.0000
24.0400 849.0000 1.0000
24.0500 868.0000 1.0000
24.0600 842.0000 1.0000
24.0700 826.0000 1.0000
24.0800 810.0000 1.0000
24.0900 811.0000 1.0000
24.1000 811.0000 1.0000
24.1100 787.0000 1.0000
24.1200 870.0000 1.0000
24.1300 845.0000 1.0000
24.1400 849.0000 1.0000
24.1500 870.0000 1.0000
24.1600 784.0000 1.0000
24.1700 841.0000 1.0000
24.1800 829.0000 1.0000
24.1900 847.0000 1.0000
24.2000 850.0000 1.0000
24.2100 871.0000 1.0000
24.2200 876.0000 1.0000
24.2300 818.0000 1.0000
24.2400 857.0000 1.0000
24.2500 899.0000 1.0000
24.2600 889.0000 1.0000
24.2700 852.0000 1.0000
24.2800 855.0000 1.0000
24.2900 814.0000 1.0000
24.3000 780.0000 1.0000
24.3100 820.0000 1.0000
24.3200 803.0000 1.0000
24.3300 846.0000 1.0000
24.3400 846.0000 1.0000
24.3500 873.0000 1.0000
24.3600 798.0000 1.0000
24.3700 883.0000 1.0000
24.3800 853.0000 1.0000
24.3900 845.0000 1.0000
24.4000 788.0000 1.0000
24.4100 856.0000 1.0000
24.4200 843.0000 1.0000
24.4300 856.0000 1.0000
24.4400 862.0000 1.0000
24.4500 804.0000 1.0000
24.4600 854.0000 1.0000
24.4700 818.0000 1.0000
24.4800 826.0000 1.0000
24.4900 825.0000 1.0000
24.5000 809.0000 1.0000
24.5100 778.0000 1.0000
24.5200 799.0000 1.0000
24.5300 790.0000 1.0000
24.5400 841.0000 1.0000
24.5500 852.0000 1.0000
24.5600 823.0000 1.0000
24.5700 794.0000 1.0000
24.5800 795.0000 1.0000
24.5900 780.0000 1.0000
24.6000 789.0000 1.0000
24.6100 835.0000 1.0000
24.6200 822.0000 1.0000
24.6300 841.0000 1.0000
24.6400 841.0000 1.0000
24.6500 848.0000 1.0000
24.6600 823.0000 1.0000
24.6700 774.0000 1.0000
24.6800 813.0000 1.0000
24.6900 833.0000 1.0000
24.7000 801.0000 1.0000
24.7100 849.0000 1.0000
24.7200 799.0000 1.0000
24.7300 824.0000 1.0000
24.7400 796.0000 1.0000
24.7500 780.0000 1.0000
24.7600 834.0000 1.0000
24.7700 847.0000 1.0000
24.7800 828.0000 1.0000
24.7900 785.0000 1.0000
24.8000 806.0000 1.0000
24.8100 814.0000 1.0000
24.8200 788.0000 1.0000
24.8300 837.0000 1.0000
24.8400 804.0000 1.0000
24.8500 794.0000 1.0000
24.8600 821.0000 1.0000
24.8700 797.0000 1.0000
24.8800 805.0000 1.0000
24.8900 812.0000 1.0000
24.9000 765.0000 1.0000
24.9100 798.0000 1.0000
24.9200 803.0000 1.0000
24.9300 850.0000 1.0000
24.9400 785.0000 1.0000
24.9500 811.0000 1.0000
24.9600 805.0000 1.0000
24.9700 803.0000 1.0000
24.9800 803.0000 1.0000
24.9900 793.0000 1.0000
25.0000 806.0000 1.0000
25.0100 812.0000 1.0000
25.0200 830.0000 1.0000
25.0300 822.0000 1.0000
25.0400 857.0000 1.0000
25.0500 819.0000 1.0000
25.0600 826.0000 1.0000
25.0700 788.0000 1.0000
25.0800 809.0000 1.0000
25.0900 852.0000 1.0000
25.1000 860.0000 1.0000
25.1100 790.0000 1.0000
25.1200 791.0000 1.0000
25.1300 826.0000 1.0000
25.1400 794.0000 1.0000
25.1500 807.0000 1.0000
25.1600 875.0000 1.0000
25.1700 829.0000 1.0000
25.1800 840.0000 1.0000
25.1900 807.0000 1.0000
25.2000 806.0000 1.0000
25.2100 788.0000 1.0000
25.2200 769.0000 1.0000
25.2300 826.0000 1.0000
25.2400 808.0000 1.0000
25.2500 827.0000 1.0000
25.2600 867.0000 1.0000
25.2700 797.0000 1.0000
25.2800 789.0000 1.0000
25.2900 830.0000 1.0000
25.3000 802.0000 1.0000
25.3100 799.0000 1.0000
25.3200 823.0000 1.0000
25.3300 802.0000 1.0000
25.3400 842.0000 1.0000
25.3500 836.0000 1.0000
25.3600 850.0000 1.0000
25.3700 786.0000 1.0000
25.3800 797.0000 1.0000
25.3900 800.0000 1.0000
25.4000 821.0000 1.0000
25.4100 845.0000 1.0000
25.4200 806.0000 1.0000
25.4300 828.0000 1.0000
25.4400 806.0000 1.0000
25.4500 784.0000 1.0000
25.4600 833.0000 1.0000
25.4700 798.0000 1.0000
25.4800 811.0000 1.0000
25.4900 789.0000 1.0000
25.5000 818.0000 1.0000
25.5100 830.0000 1.0000
25.5200 759.0000 1.0000
25.5300 794.0000 1.0000
25.5400 827.0000 1.0000
25.5500 842.0000 1.0000
25.5600 796.0000 1.0000
25.5700 798.0000 1.0000
25.5800 833.0000 1.0000
25.5900 839.0000 1.0000
25.6000 837.0000 1.0000
25.6100 815.0000 1.0000
25.6200 790.0000 1.0000
25.6300 782.0000 1.0000
25.6400 862.0000 1.0000
25.6500 815.0000 1.0000
25.6600 813.0000 1.0000
25.6700 787.0000 1.0000
25.6800 841.0000 1.0000
25.6900 824.0000 1.0000
25.7000 790.0000 1.0000
25.7100 792.0000 1.0000
25.7200 802.0000 1.0000
25.7300 821.0000 1.0000
25.7400 857.0000 1.0000
25.7500 831.0000 1.0000
25.7600 890.0000 1.0000
25.7700 853.0000 1.0000
25.7800 826.0000 1.0000
25.7900 831.0000 1.0000
25.8000 792.0000 1.0000
25.8100 820.0000 1.0000
25.8200 860.0000 1.0000
25.8300 857.0000 1.0000
25.8400 818.0000 1.0000
25.8500 846.0000 1.0000
25.8600 839.0000 1.0000
25.8700 827.0000 1.0000
25.8800 886.0000 1.0000
25.8900 862.0000 1.0000
25.9000 854.0000 1.0000
25.9100 835.0000 1.0000
25.9200 814.0000 1.0000
25.9300 846.0000 1.0000
25.9400 856.0000 1.0000
25.9500 841.0000 1.0000
25.9600 864.0000 1.0000
25.9700 914.0000 1.0000
25.9800 863.0000 1.0000
25.9900 883.0000 1.0000
26.0000 855.0000 1.0000
26.0100 907.0000 1.0000
26.0200 915.0000 1.0000
26.0300 957.0000 1.0000
26.0400 926.0000 1.0000
26.0500 912.0000 1.0000
26.0600 926.0000 1.0000
26.0700 949.0000 1.0000
26.0800 924.0000 1.0000
26.0900 959.0000 1.0000
26.1000 945.0000 1.0000
26.1100 1021.0000 1.0000
26.1200 972.0000 1.0000
26.1300 1013.0000 1.0000
26.1400 1028.0000 1.0000
26.1500 1049.0000 1.0000
26.1600 1078.0000 1.0000
26.1700 1060.0000 1.0000
26.1800 1124.0000 1.0000
26.1900 1125.0000 1.0000
26.2000 1158.0000 1.0000
26.2100 1172.0000 1.0000
26.2200 1208.0000 1.0000
26.2300 1262.0000 1.0000
26.2400 1250.0000 1.0000
26.2500 1356.0000 1.0000
26.2600 1393.0000 1.0000
26.2700 1500.0000 1.0000
26.2800 1516.0000 1.0000
26.2900 1531.0000 1.0000
26.3000 1626.0000 1.0000
26.3100 1690.0000 1.0000
26.3200 1739.0000 1.0000
26.3300 1849.0000 1.0000
26.3400 1907.0000 1.0000
26.3500 2062.0000 1.0000
26.3600 2188.0000 1.0000
26.3700 2302.0000 1.0000
26.3800 2454.0000 1.0000
26.3900 2455.0000 1.0000
26.4000 2627.0000 1.0000
26.4100 2841.0000 1.0000
26.4200 2836.0000 1.0000
26.4300 2893.0000 1.0000
26.4400 2888.0000 1.0000
26.4500 2857.0000 1.0000
26.4600 2794.0000 1.0000
26.4700 2764.0000 1.0000
26.4800 2717.0000 1.0000
26.4900 2658.0000 1.0000
26.5000 2545.0000 1.0000
26.5100 2376.0000 1.0000
26.5200 2366.0000 1.0000
26.5300 2167.0000 1.0000
26.5400 2060.0000 1.0000
26.5500 1920.0000 1.0000
26.5600 1851.0000 1.0000
26.5700 1790.0000 1.0000
26.5800 1670.0000 1.0000
26.5900 1623.0000 1.0000
26.6000 1537.0000 1.0000
26.6100 1462.0000 1.0000
26.6200 1368.0000 1.0000
26.6300 1298.0000 1.0000
26.6400 1279.0000 1.0000
26.6500 1247.0000 1.0000
26.6600 1197.0000 1.0000
26.6700 1178.0000 1.0000
26.6800 1127.0000 1.0000
26.6900 1091.0000 1.0000
26.7000 1090.0000 1.0000
26.7100 1088.0000 1.0000
26.7200 1023.0000 1.0000
26.7300 995.0000 1.0000
26.7400 956.0000 1.0000
26.7500 957.0000 1.0000
26.7600 970.0000 1.0000
26.7700 916.0000 1.0000
26.7800 916.0000 1.0000
26.7900 938.0000 1.0000
26.8000 920.0000 1.0000
26.8100 894.0000 1.0000
26.8200 917.0000 1.0000
26.8300 922.0000 1.0000
26.8400 900.0000 1.0000
26.8500 893.0000 1.0000
26.8600 875.0000 1.0000
26.8700 853.0000 1.0000
26.8800 842.0000 1.0000
26.8900 858.0000 1.0000
26.9000 873.0000 1.0000
26.9100 861.0000 1.0000
26.9200 824.0000 1.0000
26.9300 839.0000 1.0000
26.9400 838.0000 1.0000
26.9500 856.0000 1.0000
26.9600 823.0000 1.0000
26.9700 840.0000 1.0000
26.9800 837.0000 1.0000
26.9900 832.0000 1.0000
27.0000 820.0000 1.0000
27.0100 763.0000 1.0000
27.0200 783.0000 1.0000
27.0300 823.0000 1.0000
27.0400 777.0000 1.0000
27.0500 811.0000 1.0000
27.0600 787.0000 1.0000
27.0700 758.0000 1.0000
27.0800 813.0000 1.0000
27.0900 826.0000 1.0000
27.1000 773.0000 1.0000
27.1100 776.0000 1.0000
27.1200 793.0000 1.0000
27.1300 748.0000 1.0000
27.1400 758.0000 1.0000
27.1500 774.0000 1.0000
27.1600 763.0000 1.0000
27.1700 764.0000 1.0000
27.1800 810.0000 1.0000
27.1900 755.0000 1.0000
27.2000 792.0000 1.0000
27.2100 814.0000 1.0000
27.2200 790.0000 1.0000
27.2300 769.0000 1.0000
27.2400 749.0000 1.0000
27.2500 797.0000 1.0000
27.2600 777.0000 1.0000
27.2700 777.0000 1.0000
27.2800 794.0000 1.0000
27.2900 755.0000 1.0000
27.3000 762.0000 1.0000
27.3100 779.0000 1.0000
27.3200 783.0000 1.0000
27.3300 763.0000 1.0000
27.3400 757.0000 1.0000
27.3500 739.0000 1.0000
27.3600 754.0000 1.0000
27.3700 744.0000 1.0000
27.3800 704.0000 1.0000
27.3900 750.0000 1.0000
27.4000 779.0000 1.0000
27.4100 732.0000 1.0000
27.4200 707.0000 1.0000
27.4300 729.0000 1.0000
27.4400 742.0000 1.0000
27.4500 742.0000 1.0000
27.4600 716.0000 1.0000
27.4700 741.0000 1.0000
27.4800 743.0000 1.0000
27.4900 778.0000 1.0000
27.5000 782.0000 1.0000
27.5100 737.0000 1.0000
27.5200 721.0000 1.0000
27.5300 751.0000 1.0000
27.5400 741.0000 1.0000
27.5500 736.0000 1.0000
27.5600 767.0000 1.0000
27.5700 724.0000 1.0000
27.5800 760.0000 1.0000
27.5900 756.0000 1.0000
27.6000 756.0000 1.0000
27.6100 738.0000 1.0000
27.6200 754.0000 1.0000
27.6300 773.0000 1.0000
27.6400 723.0000 1.0000
27.6500 741.0000 1.0000
27.6600 721.0000 1.0000
27.6700 715.0000 1.0000
27.6800 735.0000 1.0000
27.6900 774.0000 1.0000
27.7000 776.0000 1.0000
27.7100 770.0000 1.0000
27.7200 740.0000 1.0000
27.7300 748.0000 1.0000
27.7400 725.0000 1.0000
27.7500 724.0000 1.0000
27.7600 713.0000 1.0000
27.7700 733.0000 1.0000
27.7800 758.0000 1.0000
27.7900 733.0000 1.0000
27.8000 771.0000 1.0000
27.8100 747.0000 1.0000
27.8200 759.0000 1.0000
27.8300 726.0000 1.0000
27.8400 699.0000 1.0000
27.8500 726.0000 1.0000
27.8600 702.0000 1.0000
27.8700 729.0000 1.0000
27.8800 695.0000 1.0000
27.8900 729.0000 1.0000
27.9000 732.0000 1.0000
27.9100 726.0000 1.0000
27.9200 669.0000 1.0000
27.9300 686.0000 1.0000
27.9400 741.0000 1.0000
27.9500 703.0000 1.0000
27.9600 689.0000 1.0000
27.9700 701.0000 1.0000
27.9800 741.0000 1.0000
27.9900 723.0000 1.0000
28.0000 685.0000 1.0000
28.0100 726.0000 1.0000
28.0200 710.0000 1.0000
28.0300 677.0000 1.0000
28.0400 727.0000 1.0000
28.0500 770.0000 1.0000
28.0600 712.0000 1.0000
28.0700 704.0000 1.0000
28.0800 720.0000 1.0000
28.0900 691.0000 1.0000
28.1000 681.0000 1.0000
28.1100 717.0000 1.0000
28.1200 702.0000 1.0000
28.1300 662.0000 1.0000
28.1400 683.0000 1.0000
28.1500 709.0000 1.0000
28.1600 711.0000 1.0000
28.1700 717.0000 1.0000
28.1800 693.0000 1.0000
28.1900 666.0000 1.0000
28.2000 679.0000 1.0000
28.2100 712.0000 1.0000
28.2200 748.0000 1.0000
28.2300 678.0000 1.0000
28.2400 711.0000 1.0000
28.2500 713.0000 1.0000
28.2600 708.0000 1.0000
28.2700 705.0000 1.0000
28.2800 681.0000 1.0000
28.2900 764.0000 1.0000
28.3000 688.0000 1.0000
28.3100 719.0000 1.0000
28.3200 713.0000 1.0000
28.3300 711.0000 1.0000
28.3400 711.0000 1.0000
28.3500 700.0000 1.0000
28.3600 683.0000 1.0000
28.3700 704.0000 1.0000
28.3800 695.0000 1.0000
28.3900 696.0000 1.0000
28.4000 652.0000 1.0000
28.4100 691.0000 1.0000
28.4200 679.0000 1.0000
28.4300 659.0000 1.0000
28.4400 699.0000 1.0000
28.4500 710.0000 1.0000
28.4600 678.0000 1.0000
28.4700 711.0000 1.0000
28.4800 712.0000 1.0000
28.4900 692.0000 1.0000
28.5000 704.0000 1.0000
28.5100 705.0000 1.0000
28.5200 719.0000 1.0000
28.5300 702.0000 1.0000
28.5400 699.0000 1.0000
28.5500 705.0000 1.0000
28.5600 713.0000 1.0000
28.5700 734.0000 1.0000
28.5800 700.0000 1.0000
28.5900 700.0000 1.0000
28.6000 705.0000 1.0000
28.6100 686.0000 1.0000
28.6200 687.0000 1.0000
28.6300 672.0000 1.0000
28.6400 674.0000 1.0000
28.6500 666.0000 1.0000
28.6600 680.0000 1.0000
28.6700 710.0000 1.0000
28.6800 730.0000 1.0000
28.6900 718.0000 1.0000
28.7000 655.0000 1.0000
28.7100 637.0000 1.0000
28.7200 682.0000 1.0000
28.7300 664.0000 1.0000
28.7400 705.0000 1.0000
28.7500 696.0000 1.0000
28.7600 643.0000 1.0000
28.7700 661.0000 1.0000
28.7800 698.0000 1.0000
28.7900 751.0000 1.0000
28.8000 708.0000 1.0000
28.8100 700.0000 1.0000
28.8200 641.0000 1.0000
28.8300 656.0000 1.0000
28.8400 747.0000 1.0000
28.8500 694.0000 1.0000
28.8600 700.0000 1.0000
28.8700 690.0000 1.0000
28.8800 639.0000 1.0000
28.8900 697.0000 1.0000
28.9000 658.0000 1.0000
28.9100 670.0000 1.0000
28.9200 687.0000 1.0000
28.9300 669.0000 1.0000
28.9400 682.0000 1.0000
28.9500 655.0000 1.0000
28.9600 671.0000 1.0000
28.9700 726.0000 1.0000
28.9800 706.0000 1.0000
28.9900 691.0000 1.0000
29.0000 684.0000 1.0000
29.0100 708.0000 1.0000
29.0200 690.0000 1.0000
29.0300 650.0000 1.0000
29.0400 686.0000 1.0000
29.0500 683.0000 1.0000
29.0600 718.0000 1.0000
29.0700 690.0000 1.0000
29.0800 708.0000 1.0000
29.0900 664.0000 1.0000
29.1000 671.0000 1.0000
29.1100 639.0000 1.0000
29.1200 679.0000 1.0000
29.1300 705.0000 1.0000
29.1400 702.0000 1.0000
29.1500 681.0000 1.0000
29.1600 672.0000 1.0000
29.1700 676.0000 1.0000
29.1800 633.0000 1.0000
29.1900 652.0000 1.0000
29.2000 663.0000 1.0000
29.2100 656.0000 1.0000
29.2200 645.0000 1.0000
29.2300 643.0000 1.0000
29.2400 712.0000 1.0000
29.2500 665.0000 1.0000
29.2600 651.0000 1.0000
29.2700 667.0000 1.0000
29.2800 633.0000 1.0000
29.2900 657.0000 1.0000
29.3000 669.0000 1.0000
29.3100 701.0000 1.0000
29.3200 636.0000 1.0000
29.3300 698.0000 1.0000
29.3400 652.0000 1.0000
29.3500 663.0000 1.0000
29.3600 647.0000 1.0000
29.3700 690.0000 1.0000
29.3800 674.0000 1.0000
29.3900 688.0000 1.0000
29.4000 674.0000 1.0000
29.4100 724.0000 1.0000
29.4200 663.0000 1.0000
29.4300 662.0000 1.0000
29.4400 673.0000 1.0000
29.4500 639.0000 1.0000
29.4600 655.0000 1.0000
29.4700 641.0000 1.0000
29.4800 661.0000 1.0000
29.4900 644.0000 1.0000
29.5000 611.0000 1.0000
29.5100 672.0000 1.0000
29.5200 642.0000 1.0000
29.5300 683.0000 1.0000
29.5400 656.0000 1.0000
29.5500 676.0000 1.0000
29.5600 644.0000 1.0000
29.5700 607.0000 1.0000
29.5800 656.0000 1.0000
29.5900 666.0000 1.0000
29.6000 667.0000 1.0000
29.6100 684.0000 1.0000
29.6200 686.0000 1.0000
29.6300 647.0000 1.0000
29.6400 652.0000 1.0000
29.6500 646.0000 1.0000
29.6600 672.0000 1.0000
29.6700 673.0000 1.0000
29.6800 597.0000 1.0000
29.6900 676.0000 1.0000
29.7000 670.0000 1.0000
29.7100 665.0000 1.0000
29.7200 674.0000 1.0000
29.7300 685.0000 1.0000
29.7400 650.0000 1.0000
29.7500 649.0000 1.0000
29.7600 683.0000 1.0000
29.7700 625.0000 1.0000
29.7800 626.0000 1.0000
29.7900 649.0000 1.0000
29.8000 619.0000 1.0000
29.8100 684.0000 1.0000
29.8200 671.0000 1.0000
29.8300 648.0000 1.0000
29.8400 690.0000 1.0000
29.8500 617.0000 1.0000
29.8600 635.0000 1.0000
29.8700 631.0000 1.0000
29.8800 669.0000 1.0000
29.8900 656.0000 1.0000
29.9000 647.0000 1.0000
29.9100 623.0000 1.0000
29.9200 622.0000 1.0000
29.9300 661.0000 1.0000
29.9400 663.0000 1.0000
29.9500 635.0000 1.0000
29.9600 632.0000 1.0000
29.9700 660.0000 1.0000
29.9800 620.0000 1.0000
29.9900 629.0000 1.0000
30.0000 640.0000 1.0000
30.0100 655.0000 1.0000
30.0200 665.0000 1.0000
30.0300 667.0000 1.0000
30.0400 638.0000 1.0000
30.0500 642.0000 1.0000
30.0600 624.0000 1.0000
30.0700 661.0000 1.0000
30.0800 659.0000 1.0000
30.0900 589.0000 1.0000
30.1000 640.0000 1.0000
30.1100 628.0000 1.0000
30.1200 626.0000 1.0000
30.1300 625.0000 1.0000
30.1400 641.0000 1.0000
30.1500 635.0000 1.0000
30.1600 641.0000 1.0000
30.1700 633.0000 1.0000
30.1800 645.0000 1.0000
30.1900 615.0000 1.0000
30.2000 668.0000 1.0000
30.2100 649.0000 1.0000
30.2200 626.0000 1.0000
30.2300 630.0000 1.0000
30.2400 583.0000 1.0000
30.2500 656.0000 1.0000
30.2600 627.0000 1.0000
30.2700 640.0000 1.0000
30.2800 649.0000 1.0000
30.2900 648.0000 1.0000
30.3000 629.0000 1.0000
30.3100 659.0000 1.0000
30.3200 635.0000 1.0000
30.3300 629.0000 1.0000
30.3400 672.0000 1.0000
30.3500 642.0000 1.0000
30.3600 618.0000 1.0000
30.3700 641.0000 1.0000
30.3800 618.0000 1.0000
30.3900 635.0000 1.0000
30.4000 637.0000 1.0000
30.4100 618.0000 1.0000
30.4200 632.0000 1.0000
30.4300 640.0000 1.0000
30.4400 659.0000 1.0000
30.4500 650.0000 1.0000
30.4600 636.0000 1.0000
30.4700 656.0000 1.0000
30.4800 709.0000 1.0000
30.4900 683.0000 1.0000
30.5000 630.0000 1.0000
30.5100 628.0000 1.0000
30.5200 646.0000 1.0000
30.5300 587.0000 1.0000
30.5400 620.0000 1.0000
30.5500 637.0000 1.0000
30.5600 647.0000 1.0000
30.5700 629.0000 1.0000
30.5800 618.0000 1.0000
30.5900 615.0000 1.0000
30.6000 597.0000 1.0000
30.6100 665.0000 1.0000
30.6200 632.0000 1.0000
30.6300 634.0000 1.0000
30.6400 595.0000 1.0000
30.6500 631.0000 1.0000
30.6600 614.0000 1.0000
30.6700 588.0000 1.0000
30.6800 578.0000 1.0000
30.6900 609.0000 1.0000
30.7000 600.0000 1.0000
30.7100 679.0000 1.0000
30.7200 626.0000 1.0000
30.7300 618.0000 1.0000
30.7400 629.0000 1.0000
30.7500 628.0000 1.0000
30.7600 645.0000 1.0000
30.7700 631.0000 1.0000
30.7800 653.0000 1.0000
30.7900 597.0000 1.0000
30.8000 615.0000 1.0000
30.8100 641.0000 1.0000
30.8200 658.0000 1.0000
30.8300 644.0000 1.0000
30.8400 650.0000 1.0000
30.8500 684.0000 1.0000
30.8600 614.0000 1.0000
30.8700 642.0000 1.0000
30.8800 627.0000 1.0000
30.8900 619.0000 1.0000
30.9000 629.0000 1.0000
30.9100 630.0000 1.0000
30.9200 639.0000 1.0000
30.9300 624.0000 1.0000
30.9400 632.0000 1.0000
30.9500 612.0000 1.0000
30.9600 606.0000 1.0000
30.9700 621.0000 1.0000
30.9800 629.0000 1.0000
30.9900 621.0000 1.0000
31.0000 627.0000 1.0000
31.0100 612.0000 1.0000
31.0200 628.0000 1.0000
31.0300 640.0000 1.0000
31.0400 662.0000 1.0000
31.0500 620.0000 1.0000
31.0600 648.0000 1.0000
31.0700 618.0000 1.0000
31.0800 634.0000 1.0000
31.0900 613.0000 1.0000
31.1000 609.0000 1.0000
31.1100 608.0000 1.0000
31.1200 624.0000 1.0000
31.1300 616.0000 1.0000
31.1400 644.0000 1.0000
31.1500 644.0000 1.0000
31.1600 583.0000 1.0000
31.1700 652.0000 1.0000
31.1800 637.0000 1.0000
31.1900 650.0000 1.0000
31.2000 648.0000 1.0000
31.2100 621.0000 1.0000
31.2200 639.0000 1.0000
31.2300 601.0000 1.0000
31.2400 619.0000 1.0000
31.2500 631.0000 1.0000
31.2600 620.0000 1.0000
31.2700 593.0000 1.0000
31.2800 605.0000 1.0000
31.2900 679.0000 1.0000
31.3000 615.0000 1.0000
31.3100 638.0000 1.0000
31.3200 616.0000 1.0000
31.3300 637.0000 1.0000
31.3400 604.0000 1.0000
31.3500 583.0000 1.0000
31.3600 635.0000 1.0000
31.3700 642.0000 1.0000
31.3800 648.0000 1.0000
31.3900 635.0000 1.0000
31.4000 618.0000 1.0000
31.4100 619.0000 1.0000
31.4200 652.0000 1.0000
31.4300 628.0000 1.0000
31.4400 622.0000 1.0000
31.4500 604.0000 1.0000
31.4600 632.0000 1.0000
31.4700 588.0000 1.0000
31.4800 625.0000 1.0000
31.4900 600.0000 1.0000
31.5000 625.0000 1.0000
31.5100 620.0000 1.0000
31.5200 596.0000 1.0000
31.5300 588.0000 1.0000
31.5400 599.0000 1.0000
31.5500 597.0000 1.0000
31.5600 604.0000 1.0000
31.5700 576.0000 1.0000
31.5800 618.0000 1.0000
31.5900 643.0000 1.0000
31.6000 604.0000 1.0000
31.6100 590.0000 1.0000
31.6200 629.0000 1.0000
31.6300 630.0000 1.0000
31.6400 602.0000 1.0000
31.6500 596.0000 1.0000
31.6600 598.0000 1.0000
31.6700 611.0000 1.0000
31.6800 564.0000 1.0000
31.6900 633.0000 1.0000
31.7000 611.0000 1.0000
31.7100 613.0000 1.0000
31.7200 635.0000 1.0000
31.7300 644.0000 1.0000
31.7400 635.0000 1.0000
31.7500 621.0000 1.0000
31.7600 646.0000 1.0000
31.7700 617.0000 1.0000
31.7800 597.0000 1.0000
31.7900 581.0000 1.0000
31.8000 585.0000 1.0000
31.8100 579.0000 1.0000
31.8200 618.0000 1.0000
31.8300 558.0000 1.0000
31.8400 580.0000 1.0000
31.8500 560.0000 1.0000
31.8600 566.0000 1.0000
31.8700 581.0000 1.0000
31.8800 643.0000 1.0000
31.8900 615.0000 1.0000
31.9000 603.0000 1.0000
31.9100 630.0000 1.0000
31.9200 636.0000 1.0000
31.9300 614.0000 1.0000
31.9400 594.0000 1.0000
31.9500 617.0000 1.0000
31.9600 582.0000 1.0000
31.9700 605.0000 1.0000
31.9800 613.0000 1.0000
31.9900 575.0000 1.0000
32.0000 613.0000 1.0000
32.0100 577.0000 1.0000
32.0200 619.0000 1.0000
32.0300 617.0000 1.0000
32.0400 604.0000 1.0000
32.0500 579.0000 1.0000
32.0600 589.0000 1.0000
32.0700 588.0000 1.0000
32.0800 595.0000 1.0000
32.0900 582.0000 1.0000
32.1000 594.0000 1.0000
32.1100 613.0000 1.0000
32.1200 624.0000 1.0000
32.1300 598.0000 1.0000
32.1400 590.0000 1.0000
32.1500 594.0000 1.0000
32.1600 571.0000 1.0000
32.1700 569.0000 1.0000
32.1800 618.0000 1.0000
32.1900 661.0000 1.0000
32.2000 579.0000 1.0000
32.2100 596.0000 1.0000
32.2200 583.0000 1.0000
32.2300 604.0000 1.0000
32.2400 589.0000 1.0000
32.2500 592.0000 1.0000
32.2600 573.0000 1.0000
32.2700 598.0000 1.0000
32.2800 589.0000 1.0000
32.2900 591.0000 1.0000
32.3000 575.0000 1.0000
32.3100 587.0000 1.0000
32.3200 572.0000 1.0000
32.3300 584.0000 1.0000
32.3400 565.0000 1.0000
32.3500 595.0000 1.0000
32.3600 609.0000 1.0000
32.3700 606.0000 1.0000
32.3800 574.0000 1.0000
32.3900 612.0000 1.0000
32.4000 576.0000 1.0000
32.4100 588.0000 1.0000
32.4200 546.0000 1.0000
32.4300 586.0000 1.0000
32.4400 595.0000 1.0000
32.4500 566.0000 1.0000
32.4600 584.0000 1.0000
32.4700 596.0000 1.0000
32.4800 603.0000 1.0000
32.4900 601.0000 1.0000
32.5000 591.0000 1.0000
32.5100 605.0000 1.0000
32.5200 610.0000 1.0000
32.5300 580.0000 1.0000
32.5400 581.0000 1.0000
32.5500 578.0000 1.0000
32.5600 558.0000 1.0000
32.5700 577.0000 1.0000
32.5800 562.0000 1.0000
32.5900 558.0000 1.0000
32.6000 633.0000 1.0000
32.6100 587.0000 1.0000
32.6200 593.0000 1.0000
32.6300 589.0000 1.0000
32.6400 559.0000 1.0000
32.6500 562.0000 1.0000
32.6600 607.0000 1.0000
32.6700 578.0000 1.0000
32.6800 610.0000 1.0000
32.6900 574.0000 1.0000
32.7000 576.0000 1.0000
32.7100 589.0000 1.0000
32.7200 582.0000 1.0000
32.7300 615.0000 1.0000
32.7400 617.0000 1.0000
32.7500 616.0000 1.0000
32.7600 562.0000 1.0000
32.7700 586.0000 1.0000
32.7800 597.0000 1.0000
32.7900 572.0000 1.0000
32.8000 574.0000 1.0000
32.8100 574.0000 1.0000
32.8200 623.0000 1.0000
32.8300 642.0000 1.0000
32.8400 581.0000 1.0000
32.8500 581.0000 1.0000
32.8600 573.0000 1.0000
32.8700 591.0000 1.0000
32.8800 613.0000 1.0000
32.8900 562.0000 1.0000
32.9000 576.0000 1.0000
32.9100 579.0000 1.0000
32.9200 593.0000 1.0000
32.9300 593.0000 1.0000
32.9400 602.0000 1.0000
32.9500 562.0000 1.0000
32.9600 566.0000 1.0000
32.9700 623.0000 1.0000
32.9800 608.0000 1.0000
32.9900 650.0000 1.0000
33.0000 618.0000 1.0000
33.0100 607.0000 1.0000
33.0200 543.0000 1.0000
33.0300 594.0000 1.0000
33.0400 583.0000 1.0000
33.0500 587.0000 1.0000
33.0600 605.0000 1.0000
33.0700 619.0000 1.0000
33.0800 630.0000 1.0000
33.0900 615.0000 1.0000
33.1000 618.0000 1.0000
33.1100 615.0000 1.0000
33.1200 609.0000 1.0000
33.1300 592.0000 1.0000
33.1400 637.0000 1.0000
33.1500 650.0000 1.0000
33.1600 604.0000 1.0000
33.1700 607.0000 1.0000
33.1800 632.0000 1.0000
33.1900 607.0000 1.0000
33.2000 604.0000 1.0000
33.2100 593.0000 1.0000
33.2200 610.0000 1.0000
33.2300 589.0000 1.0000
33.2400 605.0000 1.0000
33.2500 679.0000 1.0000
33.2600 631.0000 1.0000
33.2700 615.0000 1.0000
33.2800 618.0000 1.0000
33.2900 650.0000 1.0000
33.3000 614.0000 1.0000
33.3100 665.0000 1.0000
33.3200 651.0000 1.0000
33.3300 680.0000 1.0000
33.3400 651.0000 1.0000
33.3500 694.0000 1.0000
33.3600 687.0000 1.0000
33.3700 672.0000 1.0000
33.3800 718.0000 1.0000
33.3900 716.0000 1.0000
33.4000 711.0000 1.0000
33.4100 728.0000 1.0000
33.4200 752.0000 1.0000
33.4300 753.0000 1.0000
33.4400 765.0000 1.0000
33.4500 738.0000 1.0000
33.4600 741.0000 1.0000
33.4700 791.0000 1.0000
33.4800 808.0000 1.0000
33.4900 796.0000 1.0000
33.5000 840.0000 1.0000
33.5100 915.0000 1.0000
33.5200 939.0000 1.0000
33.5300 971.0000 1.0000
33.5400 1041.0000 1.0000
33.5500 1041.0000 1.0000
33.5600 1174.0000 1.0000
33.5700 1157.0000 1.0000
33.5800 1246.0000 1.0000
33.5900 1275.0000 1.0000
33.6000 1310.0000 1.0000
33.6100 1331.0000 1.0000
33.6200 1372.0000 1.0000
33.6300 1398.0000 1.0000
33.6400 1451.0000 1.0000
33.6500 1427.0000 1.0000
33.6600 1459.0000 1.0000
33.6700 1453.0000 1.0000
33.6800 1465.0000 1.0000
33.6900 1387.0000 1.0000
33.7000 1348.0000 1.0000
33.7100 1316.0000 1.0000
33.7200 1281.0000 1.0000
33.7300 1243.0000 1.0000
33.7400 1180.0000 1.0000
33.7500 1169.0000 1.0000
33.7600 1098.0000 1.0000
33.7700 1126.0000 1.0000
33.7800 1027.0000 1.0000
33.7900 944.0000 1.0000
33.8000 1015.0000 1.0000
33.8100 891.0000 1.0000
33.8200 876.0000 1.0000
33.8300 834.0000 1.0000
33.8400 804.0000 1.0000
33.8500 807.0000 1.0000
33.8600 814.0000 1.0000
33.8700 792.0000 1.0000
33.8800 749.0000 1.0000
33.8900 750.0000 1.0000
33.9000 706.0000 1.0000
33.9100 701.0000 1.0000
33.9200 694.0000 1.0000
33.9300 696.0000 1.0000
33.9400 727.0000 1.0000
33.9500 690.0000 1.0000
33.9600 657.0000 1.0000
33.9700 630.0000 1.0000
33.9800 669.0000 1.0000
33.9900 696.0000 1.0000
34.0000 622.0000 1.0000
34.0100 628.0000 1.0000
34.0200 638.0000 1.0000
34.0300 609.0000 1.0000
34.0400 650.0000 1.0000
34.0500 625.0000 1.0000
34.0600 616.0000 1.0000
34.0700 574.0000 1.0000
34.0800 588.0000 1.0000
34.0900 571.0000 1.0000
34.1000 553.0000 1.0000
34.1100 574.0000 1.0000
34.1200 544.0000 1.0000
34.1300 593.0000 1.0000
34.1400 589.0000 1.0000
34.1500 561.0000 1.0000
34.1600 560.0000 1.0000
34.1700 578.0000 1.0000
34.1800 606.0000 1.0000
34.1900 544.0000 1.0000
34.2000 591.0000 1.0000
34.2100 555.0000 1.0000
34.2200 563.0000 1.0000
34.2300 574.0000 1.0000
34.2400 528.0000 1.0000
34.2500 534.0000 1.0000
34.2600 580.0000 1.0000
34.2700 555.0000 1.0000
34.2800 571.0000 1.0000
34.2900 550.0000 1.0000
34.3000 525.0000 1.0000
34.3100 502.0000 1.0000
34.3200 513.0000 1.0000
34.3300 548.0000 1.0000
34.3400 562.0000 1.0000
34.3500 544.0000 1.0000
34.3600 534.0000 1.0000
34.3700 572.0000 1.0000
34.3800 534.0000 1.0000
34.3900 532.0000 1.0000
34.4000 535.0000 1.0000
34.4100 510.0000 1.0000
34.4200 517.0000 1.0000
34.4300 509.0000 1.0000
34.4400 508.0000 1.0000
34.4500 513.0000 1.0000
34.4600 490.0000 1.0000
34.4700 503.0000 1.0000
34.4800 509.0000 1.0000
34.4900 486.0000 1.0000
34.5000 530.0000 1.0000
34.5100 550.0000 1.0000
34.5200 532.0000 1.0000
34.5300 474.0000 1.0000
34.5400 466.0000 1.0000
34.5500 505.0000 1.0000
34.5600 527.0000 1.0000
34.5700 527.0000 1.0000
34.5800 520.0000 1.0000
34.5900 532.0000 1.0000
34.6000 578.0000 1.0000
34.6100 564.0000 1.0000
34.6200 563.0000 1.0000
34.6300 516.0000 1.0000
34.6400 503.0000 1.0000
34.6500 517.0000 1.0000
34.6600 517.0000 1.0000
34.6700 500.0000 1.0000
34.6800 517.0000 1.0000
34.6900 545.0000 1.0000
34.7000 519.0000 1.0000
34.7100 553.0000 1.0000
34.7200 530.0000 1.0000
34.7300 493.0000 1.0000
34.7400 494.0000 1.0000
34.7500 527.0000 1.0000
34.7600 535.0000 1.0000
34.7700 513.0000 1.0000
34.7800 545.0000 1.0000
34.7900 515.0000 1.0000
34.8000 507.0000 1.0000
34.8100 475.0000 1.0000
34.8200 487.0000 1.0000
34.8300 523.0000 1.0000
34.8400 544.0000 1.0000
34.8500 550.0000 1.0000
34.8600 537.0000 1.0000
34.8700 536.0000 1.0000
34.8800 494.0000 1.0000
34.8900 516.0000 1.0000
34.9000 528.0000 1.0000
34.9100 543.0000 1.0000
34.9200 507.0000 1.0000
34.9300 481.0000 1.0000
34.9400 515.0000 1.0000
34.9500 532.0000 1.0000
34.9600 519.0000 1.0000
34.9700 506.0000 1.0000
34.9800 468.0000 1.0000
34.9900 516.0000 1.0000
35.0000 491.0000 1.0000
35.0100 517.0000 1.0000
35.0200 490.0000 1.0000
35.0300 501.0000 1.0000
35.0400 523.0000 1.0000
35.0500 520.0000 1.0000
35.0600 521.0000 1.0000
35.0700 504.0000 1.0000
35.0800 479.0000 1.0000
35.0900 512.0000 1.0000
35.1000 500.0000 1.0000
35.1100 541.0000 1.0000
35.1200 525.0000 1.0000
35.1300 545.0000 1.0000
35.1400 518.0000 1.0000
35.1500 508.0000 1.0000
35.1600 510.0000 1.0000
35.1700 549.0000 1.0000
35.1800 506.0000 1.0000
35.1900 535.0000 1.0000
35.2000 541.0000 1.0000
35.2100 559.0000 1.0000
35.2200 544.0000 1.0000
35.2300 582.0000 1.0000
35.2400 520.0000 1.0000
35.2500 523.0000 1.0000
35.2600 540.0000 1.0000
35.2700 569.0000 1.0000
35.2800 560.0000 1.0000
35.2900 525.0000 1.0000
35.3000 530.0000 1.0000
35.3100 528.0000 1.0000
35.3200 585.0000 1.0000
35.3300 556.0000 1.0000
35.3400 572.0000 1.0000
35.3500 586.0000 1.0000
35.3600 526.0000 1.0000
35.3700 568.0000 1.0000
35.3800 562.0000 1.0000
35.3900 550.0000 1.0000
35.4000 572.0000 1.0000
35.4100 574.0000 1.0000
35.4200 554.0000 1.0000
35.4300 562.0000 1.0000
35.4400 575.0000 1.0000
35.4500 598.0000 1.0000
35.4600 629.0000 1.0000
35.4700 599.0000 1.0000
35.4800 596.0000 1.0000
35.4900 593.0000 1.0000
35.5000 612.0000 1.0000
35.5100 599.0000 1.0000
35.5200 605.0000 1.0000
35.5300 579.0000 1.0000
35.5400 590.0000 1.0000
35.5500 642.0000 1.0000
35.5600 596.0000 1.0000
35.5700 657.0000 1.0000
35.5800 642.0000 1.0000
35.5900 637.0000 1.0000
35.6000 628.0000 1.0000
35.6100 592.0000 1.0000
35.6200 566.0000 1.0000
35.6300 598.0000 1.0000
35.6400 619.0000 1.0000
35.6500 589.0000 1.0000
35.6600 612.0000 1.0000
35.6700 593.0000 1.0000
35.6800 576.0000 1.0000
35.6900 578.0000 1.0000
35.7000 542.0000 1.0000
35.7100 552.0000 1.0000
35.7200 531.0000 1.0000
35.7300 595.0000 1.0000
35.7400 569.0000 1.0000
35.7500 560.0000 1.0000
35.7600 520.0000 1.0000
35.7700 508.0000 1.0000
35.7800 533.0000 1.0000
35.7900 573.0000 1.0000
35.8000 555.0000 1.0000
35.8100 517.0000 1.0000
35.8200 498.0000 1.0000
35.8300 516.0000 1.0000
35.8400 520.0000 1.0000
35.8500 557.0000 1.0000
35.8600 509.0000 1.0000
35.8700 538.0000 1.0000
35.8800 509.0000 1.0000
35.8900 511.0000 1.0000
35.9000 490.0000 1.0000
35.9100 507.0000 1.0000
35.9200 494.0000 1.0000
35.9300 487.0000 1.0000
35.9400 518.0000 1.0000
35.9500 482.0000 1.0000
35.9600 489.0000 1.0000
35.9700 501.0000 1.0000
35.9800 463.0000 1.0000
35.9900 506.0000 1.0000
36.0000 527.0000 1.0000
36.0100 509.0000 1.0000
36.0200 486.0000 1.0000
36.0300 490.0000 1.0000
36.0400 484.0000 1.0000
36.0500 474.0000 1.0000
36.0600 507.0000 1.0000
36.0700 489.0000 1.0000
36.0800 482.0000 1.0000
36.0900 471.0000 1.0000
36.1000 456.0000 1.0000
36.1100 442.0000 1.0000
36.1200 446.0000 1.0000
36.1300 496.0000 1.0000
36.1400 449.0000 1.0000
36.1500 474.0000 1.0000
36.1600 455.0000 1.0000
36.1700 466.0000 1.0000
36.1800 462.0000 1.0000
36.1900 471.0000 1.0000
36.2000 465.0000 1.0000
36.2100 489.0000 1.0000
36.2200 468.0000 1.0000
36.2300 481.0000 1.0000
36.2400 450.0000 1.0000
36.2500 474.0000 1.0000
36.2600 474.0000 1.0000
36.2700 492.0000 1.0000
36.2800 470.0000 1.0000
36.2900 495.0000 1.0000
36.3000 462.0000 1.0000
36.3100 489.0000 1.0000
36.3200 464.0000 1.0000
36.3300 455.0000 1.0000
36.3400 452.0000 1.0000
36.3500 488.0000 1.0000
36.3600 474.0000 1.0000
36.3700 458.0000 1.0000
36.3800 476.0000 1.0000
36.3900 515.0000 1.0000
36.4000 492.0000 1.0000
36.4100 511.0000 1.0000
36.4200 485.0000 1.0000
36.4300 495.0000 1.0000
36.4400 488.0000 1.0000
36.4500 456.0000 1.0000
36.4600 452.0000 1.0000
36.4700 456.0000 1.0000
36.4800 421.0000 1.0000
36.4900 449.0000 1.0000
36.5000 457.0000 1.0000
36.5100 446.0000 1.0000
36.5200 470.0000 1.0000
36.5300 506.0000 1.0000
36.5400 466.0000 1.0000
36.5500 493.0000 1.0000
36.5600 455.0000 1.0000
36.5700 470.0000 1.0000
36.5800 468.0000 1.0000
36.5900 470.0000 1.0000
36.6000 482.0000 1.0000
36.6100 450.0000 1.0000
36.6200 451.0000 1.0000
36.6300 459.0000 1.0000
36.6400 446.0000 1.0000
36.6500 511.0000 1.0000
36.6600 468.0000 1.0000
36.6700 465.0000 1.0000
36.6800 486.0000 1.0000
36.6900 452.0000 1.0000
36.7000 437.0000 1.0000
36.7100 456.0000 1.0000
36.7200 473.0000 1.0000
36.7300 508.0000 1.0000
36.7400 438.0000 1.0000
36.7500 453.0000 1.0000
36.7600 487.0000 1.0000
36.7700 458.0000 1.0000
36.7800 482.0000 1.0000
36.7900 470.0000 1.0000
36.8000 483.0000 1.0000
36.8100 465.0000 1.0000
36.8200 425.0000 1.0000
36.8300 444.0000 1.0000
36.8400 491.0000 1.0000
36.8500 486.0000 1.0000
36.8600 456.0000 1.0000
36.8700 466.0000 1.0000
36.8800 451.0000 1.0000
36.8900 501.0000 1.0000
36.9000 441.0000 1.0000
36.9100 457.0000 1.0000
36.9200 491.0000 1.0000
36.9300 446.0000 1.0000
36.9400 442.0000 1.0000
36.9500 462.0000 1.0000
36.9600 472.0000 1.0000
36.9700 465.0000 1.0000
36.9800 457.0000 1.0000
36.9900 453.0000 1.0000
37.0000 507.0000 1.0000
37.0100 455.0000 1.0000
37.0200 469.0000 1.0000
37.0300 451.0000 1.0000
37.0400 458.0000 1.0000
37.0500 453.0000 1.0000
37.0600 470.0000 1.0000
37.0700 462.0000 1.0000
37.0800 457.0000 1.0000
37.0900 437.0000 1.0000
37.1000 485.0000 1.0000
37.1100 472.0000 1.0000
37.1200 469.0000 1.0000
37.1300 468.0000 1.0000
37.1400 427.0000 1.0000
37.1500 480.0000 1.0000
37.1600 484.0000 1.0000
37.1700 458.0000 1.0000
37.1800 462.0000 1.0000
37.1900 492.0000 1.0000
37.2000 468.0000 1.0000
37.2100 482.0000 1.0000
37.2200 433.0000 1.0000
37.2300 458.0000 1.0000
37.2400 502.0000 1.0000
37.2500 456.0000 1.0000
37.2600 493.0000 1.0000
37.2700 490.0000 1.0000
37.2800 485.0000 1.0000
37.2900 485.0000 1.0000
37.3000 456.0000 1.0000
37.3100 529.0000 1.0000
37.3200 554.0000 1.0000
37.3300 534.0000 1.0000
37.3400 574.0000 1.0000
37.3500 537.0000 1.0000
37.3600 519.0000 1.0000
37.3700 571.0000 1.0000
37.3800 623.0000 1.0000
37.3900 618.0000 1.0000
37.4000 603.0000 1.0000
37.4100 645.0000 1.0000
37.4200 642.0000 1.0000
37.4300 699.0000 1.0000
37.4400 681.0000 1.0000
37.4500 707.0000 1.0000
37.4600 748.0000 1.0000
37.4700 732.0000 1.0000
37.4800 796.0000 1.0000
37.4900 792.0000 1.0000
37.5000 868.0000 1.0000
37.5100 924.0000 1.0000
37.5200 938.0000 1.0000
37.5300 1003.0000 1.0000
37.5400 1047.0000 1.0000
37.5500 1118.0000 1.0000
37.5600 1201.0000 1.0000
37.5700 1295.0000 1.0000
37.5800 1312.0000 1.0000
37.5900 1424.0000 1.0000
37.6000 1524.0000 1.0000
37.6100 1658.0000 1.0000
37.6200 1701.0000 1.0000
37.6300 1810.0000 1.0000
37.6400 1986.0000 1.0000
37.6500 2056.0000 1.0000
37.6600 2058.0000 1.0000
37.6700 2144.0000 1.0000
37.6800 2208.0000 1.0000
37.6900 2303.0000 1.0000
37.7000 2301.0000 1.0000
37.7100 2297.0000 1.0000
37.7200 2252.0000 1.0000
37.7300 2245.0000 1.0000
37.7400 2177.0000 1.0000
37.7500 2156.0000 1.0000
37.7600 2126.0000 1.0000
37.7700 1979.0000 1.0000
37.7800 1922.0000 1.0000
37.7900 1906.0000 1.0000
37.8000 1793.0000 1.0000
37.8100 1740.0000 1.0000
37.8200 1627.0000 1.0000
37.8300 1516.0000 1.0000
37.8400 1454.0000 1.0000
37.8500 1403.0000 1.0000
37.8600 1328.0000 1.0000
37.8700 1217.0000 1.0000
37.8800 1116.0000 1.0000
37.8900 1040.0000 1.0000
37.9000 996.0000 1.0000
37.9100 913.0000 1.0000
37.9200 914.0000 1.0000
37.9300 851.0000 1.0000
37.9400 807.0000 1.0000
37.9500 795.0000 1.0000
37.9600 764.0000 1.0000
37.9700 753.0000 1.0000
37.9800 648.0000 1.0000
37.9900 676.0000 1.0000
38.0000 642.0000 1.0000
38.0100 608.0000 1.0000
38.0200 568.0000 1.0000
38.0300 541.0000 1.0000
38.0400 528.0000 1.0000
38.0500 563.0000 1.0000
38.0600 567.0000 1.0000
38.0700 533.0000 1.0000
38.0800 528.0000 1.0000
38.0900 516.0000 1.0000
38.1000 533.0000 1.0000
38.1100 495.0000 1.0000
38.1200 514.0000 1.0000
38.1300 510.0000 1.0000
38.1400 480.0000 1.0000
38.1500 470.0000 1.0000
38.1600 484.0000 1.0000
38.1700 467.0000 1.0000
38.1800 479.0000 1.0000
38.1900 445.0000 1.0000
38.2000 465.0000 1.0000
38.2100 441.0000 1.0000
38.2200 424.0000 1.0000
38.2300 459.0000 1.0000
38.2400 438.0000 1.0000
38.2500 447.0000 1.0000
38.2600 430.0000 1.0000
38.2700 454.0000 1.0000
38.2800 444.0000 1.0000
38.2900 410.0000 1.0000
38.3000 430.0000 1.0000
38.3100 425.0000 1.0000
38.3200 392.0000 1.0000
38.3300 425.0000 1.0000
38.3400 457.0000 1.0000
38.3500 441.0000 1.0000
38.3600 414.0000 1.0000
38.3700 447.0000 1.0000
38.3800 402.0000 1.0000
38.3900 430.0000 1.0000
38.4000 408.0000 1.0000
38.4100 409.0000 1.0000
38.4200 445.0000 1.0000
38.4300 417.0000 1.0000
38.4400 423.0000 1.0000
38.4500 438.0000 1.0000
38.4600 419.0000 1.0000
38.4700 400.0000 1.0000
38.4800 409.0000 1.0000
38.4900 429.0000 1.0000
38.5000 467.0000 1.0000
38.5100 423.0000 1.0000
38.5200 409.0000 1.0000
38.5300 401.0000 1.0000
38.5400 437.0000 1.0000
38.5500 405.0000 1.0000
38.5600 427.0000 1.0000
38.5700 436.0000 1.0000
38.5800 403.0000 1.0000
38.5900 412.0000 1.0000
38.6000 420.0000 1.0000
38.6100 424.0000 1.0000
38.6200 405.0000 1.0000
38.6300 406.0000 1.0000
38.6400 451.0000 1.0000
38.6500 400.0000 1.0000
38.6600 437.0000 1.0000
38.6700 411.0000 1.0000
38.6800 435.0000 1.0000
38.6900 422.0000 1.0000
38.7000 412.0000 1.0000
38.7100 454.0000 1.0000
38.7200 451.0000 1.0000
38.7300 446.0000 1.0000
38.7400 444.0000 1.0000
38.7500 479.0000 1.0000
38.7600 440.0000 1.0000
38.7700 428.0000 1.0000
38.7800 441.0000 1.0000
38.7900 427.0000 1.0000
38.8000 417.0000 1.0000
38.8100 422.0000 1.0000
38.8200 396.0000 1.0000
38.8300 425.0000 1.0000
38.8400 437.0000 1.0000
38.8500 426.0000 1.0000
38.8600 410.0000 1.0000
38.8700 393.0000 1.0000
38.8800 416.0000 1.0000
38.8900 418.0000 1.0000
38.9000 401.0000 1.0000
38.9100 408.0000 1.0000
38.9200 420.0000 1.0000
38.9300 390.0000 1.0000
38.9400 430.0000 1.0000
38.9500 394.0000 1.0000
38.9600 412.0000 1.0000
38.9700 421.0000 1.0000
38.9800 383.0000 1.0000
38.9900 386.0000 1.0000
39.0000 405.0000 1.0000
39.0100 434.0000 1.0000
39.0200 403.0000 1.0000
39.0300 380.0000 1.0000
39.0400 406.0000 1.0000
39.0500 414.0000 1.0000
39.0600 406.0000 1.0000
39.0700 354.0000 1.0000
39.0800 391.0000 1.0000
39.0900 355.0000 1.0000
39.1000 413.0000 1.0000
39.1100 414.0000 1.0000
39.1200 386.0000 1.0000
39.1300 409.0000 1.0000
39.1400 388.0000 1.0000
39.1500 393.0000 1.0000
39.1600 392.0000 1.0000
39.1700 423.0000 1.0000
39.1800 390.0000 1.0000
39.1900 371.0000 1.0000
39.2000 417.0000 1.0000
39.2100 400.0000 1.0000
39.2200 391.0000 1.0000
39.2300 430.0000 1.0000
39.2400 408.0000 1.0000
39.2500 387.0000 1.0000
39.2600 366.0000 1.0000
39.2700 382.0000 1.0000
39.2800 410.0000 1.0000
39.2900 394.0000 1.0000
39.3000 385.0000 1.0000
39.3100 381.0000 1.0000
39.3200 398.0000 1.0000
39.3300 411.0000 1.0000
39.3400 418.0000 1.0000
39.3500 390.0000 1.0000
39.3600 393.0000 1.0000
39.3700 395.0000 1.0000
39.3800 373.0000 1.0000
39.3900 374.0000 1.0000
39.4000 396.0000 1.0000
39.4100 381.0000 1.0000
39.4200 385.0000 1.0000
39.4300 385.0000 1.0000
39.4400 402.0000 1.0000
39.4500 410.0000 1.0000
39.4600 402.0000 1.0000
39.4700 376.0000 1.0000
39.4800 375.0000 1.0000
39.4900 386.0000 1.0000
39.5000 400.0000 1.0000
39.5100 368.0000 1.0000
39.5200 354.0000 1.0000
39.5300 396.0000 1.0000
39.5400 362.0000 1.0000
39.5500 393.0000 1.0000
39.5600 380.0000 1.0000
39.5700 398.0000 1.0000
39.5800 380.0000 1.0000
39.5900 384.0000 1.0000
39.6000 372.0000 1.0000
39.6100 394.0000 1.0000
39.6200 393.0000 1.0000
39.6300 384.0000 1.0000
39.6400 409.0000 1.0000
39.6500 375.0000 1.0000
39.6600 353.0000 1.0000
39.6700 397.0000 1.0000
39.6800 395.0000 1.0000
39.6900 368.0000 1.0000
39.7000 407.0000 1.0000
39.7100 381.0000 1.0000
39.7200 362.0000 1.0000
39.7300 383.0000 1.0000
39.7400 391.0000 1.0000
39.7500 400.0000 1.0000
39.7600 395.0000 1.0000
39.7700 355.0000 1.0000
39.7800 381.0000 1.0000
39.7900 391.0000 1.0000
39.8000 421.0000 1.0000
39.8100 388.0000 1.0000
39.8200 376.0000 1.0000
39.8300 354.0000 1.0000
39.8400 354.0000 1.0000
39.8500 386.0000 1.0000
39.8600 357.0000 1.0000
39.8700 382.0000 1.0000
39.8800 392.0000 1.0000
39.8900 347.0000 1.0000
39.9000 348.0000 1.0000
39.9100 384.0000 1.0000
39.9200 363.0000 1.0000
39.9300 376.0000 1.0000
39.9400 369.0000 1.0000
39.9500 407.0000 1.0000
39.9600 372.0000 1.0000
39.9700 362.0000 1.0000
39.9800 374.0000 1.0000
39.9900 373.0000 1.0000
40.0000 381.0000 1.0000
40.0100 406.0000 1.0000
40.0200 352.0000 1.0000
40.0300 372.0000 1.0000
40.0400 358.0000 1.0000
40.0500 382.0000 1.0000
40.0600 377.0000 1.0000
40.0700 384.0000 1.0000
40.0800 365.0000 1.0000
40.0900 367.0000 1.0000
40.1000 381.0000 1.0000
40.1100 357.0000 1.0000
40.1200 373.0000 1.0000
40.1300 385.0000 1.0000
40.1400 399.0000 1.0000
40.1500 406.0000 1.0000
40.1600 344.0000 1.0000
40.1700 358.0000 1.0000
40.1800 383.0000 1.0000
40.1900 365.0000 1.0000
40.2000 386.0000 1.0000
40.2100 387.0000 1.0000
40.2200 410.0000 1.0000
40.2300 375.0000 1.0000
40.2400 350.0000 1.0000
40.2500 351.0000 1.0000
40.2600 367.0000 1.0000
40.2700 355.0000 1.0000
40.2800 360.0000 1.0000
40.2900 378.0000 1.0000
40.3000 359.0000 1.0000
40.3100 359.0000 1.0000
40.3200 376.0000 1.0000
40.3300 367.0000 1.0000
40.3400 355.0000 1.0000
40.3500 375.0000 1.0000
40.3600 384.0000 1.0000
40.3700 383.0000 1.0000
40.3800 352.0000 1.0000
40.3900 357.0000 1.0000
40.4000 352.0000 1.0000
40.4100 364.0000 1.0000
40.4200 386.0000 1.0000
40.4300 373.0000 1.0000
40.4400 363.0000 1.0000
40.4500 366.0000 1.0000
40.4600 415.0000 1.0000
40.4700 382.0000 1.0000
40.4800 370.0000 1.0000
40.4900 389.0000 1.0000
40.5000 373.0000 1.0000
40.5100 359.0000 1.0000
40.5200 366.0000 1.0000
40.5300 374.0000 1.0000
40.5400 350.0000 1.0000
40.5500 391.0000 1.0000
40.5600 394.0000 1.0000
40.5700 366.0000 1.0000
40.5800 355.0000 1.0000
40.5900 355.0000 1.0000
40.6000 360.0000 1.0000
40.6100 361.0000 1.0000
40.6200 382.0000 1.0000
40.6300 345.0000 1.0000
40.6400 369.0000 1.0000
40.6500 414.0000 1.0000
40.6600 381.0000 1.0000
40.6700 364.0000 1.0000
40.6800 363.0000 1.0000
40.6900 382.0000 1.0000
40.7000 383.0000 1.0000
40.7100 399.0000 1.0000
40.7200 335.0000 1.0000
40.7300 367.0000 1.0000
40.7400 357.0000 1.0000
40.7500 375.0000 1.0000
40.7600 374.0000 1.0000
40.7700 373.0000 1.0000
40.7800 384.0000 1.0000
40.7900 377.0000 1.0000
40.8000 340.0000 1.0000
40.8100 350.0000 1.0000
40.8200 348.0000 1.0000
40.8300 339.0000 1.0000
40.8400 375.0000 1.0000
40.8500 382.0000 1.0000
40.8600 361.0000 1.0000
40.8700 368.0000 1.0000
40.8800 377.0000 1.0000
40.8900 371.0000 1.0000
40.9000 378.0000 1.0000
40.9100 376.0000 1.0000
40.9200 409.0000 1.0000
40.9300 391.0000 1.0000
40.9400 371.0000 1.0000
40.9500 366.0000 1.0000
40.9600 354.0000 1.0000
40.9700 389.0000 1.0000
40.9800 393.0000 1.0000
40.9900 350.0000 1.0000
41.0000 367.0000 1.0000
41.0100 376.0000 1.0000
41.0200 371.0000 1.0000
41.0300 388.0000 1.0000
41.0400 361.0000 1.0000
41.0500 384.0000 1.0000
41.0600 363.0000 1.0000
41.0700 390.0000 1.0000
41.0800 368.0000 1.0000
41.0900 388.0000 1.0000
41.1000 356.0000 1.0000
41.1100 365.0000 1.0000
41.1200 361.0000 1.0000
41.1300 385.0000 1.0000
41.1400 391.0000 1.0000
41.1500 355.0000 1.0000
41.1600 353.0000 1.0000
41.1700 358.0000 1.0000
41.1800 351.0000 1.0000
41.1900 364.0000 1.0000
41.2000 381.0000 1.0000
41.2100 359.0000 1.0000
41.2200 401.0000 1.0000
41.2300 379.0000 1.0000
41.2400 371.0000 1.0000
41.2500 389.0000 1.0000
41.2600 360.0000 1.0000
41.2700 345.0000 1.0000
41.2800 361.0000 1.0000
41.2900 375.0000 1.0000
41.3000 363.0000 1.0000
41.3100 373.0000 1.0000
41.3200 404.0000 1.0000
41.3300 350.0000 1.0000
41.3400 387.0000 1.0000
41.3500 345.0000 1.0000
41.3600 370.0000 1.0000
41.3700 354.0000 1.0000
41.3800 369.0000 1.0000
41.3900 369.0000 1.0000
41.4000 408.0000 1.0000
41.4100 355.0000 1.0000
41.4200 347.0000 1.0000
41.4300 390.0000 1.0000
41.4400 375.0000 1.0000
41.4500 343.0000 1.0000
41.4600 335.0000 1.0000
41.4700 378.0000 1.0000
41.4800 349.0000 1.0000
41.4900 340.0000 1.0000
41.5000 390.0000 1.0000
41.5100 388.0000 1.0000
41.5200 389.0000 1.0000
41.5300 398.0000 1.0000
41.5400 371.0000 1.0000
41.5500 374.0000 1.0000
41.5600 346.0000 1.0000
41.5700 360.0000 1.0000
41.5800 363.0000 1.0000
41.5900 385.0000 1.0000
41.6000 382.0000 1.0000
41.6100 366.0000 1.0000
41.6200 319.0000 1.0000
41.6300 359.0000 1.0000
41.6400 347.0000 1.0000
41.6500 370.0000 1.0000
41.6600 371.0000 1.0000
41.6700 378.0000 1.0000
41.6800 378.0000 1.0000
41.6900 363.0000 1.0000
41.7000 352.0000 1.0000
41.7100 362.0000 1.0000
41.7200 374.0000 1.0000
41.7300 353.0000 1.0000
41.7400 354.0000 1.0000
41.7500 359.0000 1.0000
41.7600 372.0000 1.0000
41.7700 349.0000 1.0000
41.7800 367.0000 1.0000
41.7900 347.0000 1.0000
41.8000 341.0000 1.0000
41.8100 385.0000 1.0000
41.8200 382.0000 1.0000
41.8300 327.0000 1.0000
41.8400 320.0000 1.0000
41.8500 353.0000 1.0000
41.8600 389.0000 1.0000
41.8700 364.0000 1.0000
41.8800 375.0000 1.0000
41.8900 345.0000 1.0000
41.9000 398.0000 1.0000
41.9100 348.0000 1.0000
41.9200 334.0000 1.0000
41.9300 337.0000 1.0000
41.9400 392.0000 1.0000
41.9500 376.0000 1.0000
41.9600 361.0000 1.0000
41.9700 354.0000 1.0000
41.9800 334.0000 1.0000
41.9900 359.0000 1.0000
42.0000 364.0000 1.0000
42.0100 378.0000 1.0000
42.0200 347.0000 1.0000
42.0300 350.0000 1.0000
42.0400 331.0000 1.0000
42.0500 365.0000 1.0000
42.0600 360.0000 1.0000
42.0700 384.0000 1.0000
42.0800 350.0000 1.0000
42.0900 366.0000 1.0000
42.1000 363.0000 1.0000
42.1100 371.0000 1.0000
42.1200 377.0000 1.0000
42.1300 337.0000 1.0000
42.1400 388.0000 1.0000
42.1500 378.0000 1.0000
42.1600 388.0000 1.0000
42.1700 339.0000 1.0000
42.1800 384.0000 1.0000
42.1900 348.0000 1.0000
42.2000 348.0000 1.0000
42.2100 349.0000 1.0000
42.2200 365.0000 1.0000
42.2300 369.0000 1.0000
42.2400 349.0000 1.0000
42.2500 361.0000 1.0000
42.2600 362.0000 1.0000
42.2700 392.0000 1.0000
42.2800 397.0000 1.0000
42.2900 378.0000 1.0000
42.3000 367.0000 1.0000
42.3100 355.0000 1.0000
42.3200 345.0000 1.0000
42.3300 396.0000 1.0000
42.3400 381.0000 1.0000
42.3500 388.0000 1.0000
42.3600 394.0000 1.0000
42.3700 396.0000 1.0000
42.3800 439.0000 1.0000
42.3900 422.0000 1.0000
42.4000 400.0000 1.0000
42.4100 416.0000 1.0000
42.4200 380.0000 1.0000
42.4300 405.0000 1.0000
42.4400 373.0000 1.0000
42.4500 393.0000 1.0000
42.4600 414.0000 1.0000
42.4700 366.0000 1.0000
42.4800 392.0000 1.0000
42.4900 414.0000 1.0000
42.5000 401.0000 1.0000
42.5100 380.0000 1.0000
42.5200 428.0000 1.0000
42.5300 387.0000 1.0000
42.5400 399.0000 1.0000
42.5500 349.0000 1.0000
42.5600 357.0000 1.0000
42.5700 371.0000 1.0000
42.5800 393.0000 1.0000
42.5900 352.0000 1.0000
42.6000 352.0000 1.0000
42.6100 344.0000 1.0000
42.6200 338.0000 1.0000
42.6300 363.0000 1.0000
42.6400 367.0000 1.0000
42.6500 366.0000 1.0000
42.6600 370.0000 1.0000
42.6700 362.0000 1.0000
42.6800 354.0000 1.0000
42.6900 355.0000 1.0000
42.7000 361.0000 1.0000
42.7100 355.0000 1.0000
42.7200 359.0000 1.0000
42.7300 364.0000 1.0000
42.7400 364.0000 1.0000
42.7500 367.0000 1.0000
42.7600 348.0000 1.0000
42.7700 362.0000 1.0000
42.7800 350.0000 1.0000
42.7900 346.0000 1.0000
42.8000 375.0000 1.0000
42.8100 337.0000 1.0000
42.8200 357.0000 1.0000
42.8300 350.0000 1.0000
42.8400 348.0000 1.0000
42.8500 378.0000 1.0000
42.8600 334.0000 1.0000
42.8700 354.0000 1.0000
42.8800 349.0000 1.0000
42.8900 367.0000 1.0000
42.9000 335.0000 1.0000
42.9100 364.0000 1.0000
42.9200 383.0000 1.0000
42.9300 331.0000 1.0000
42.9400 351.0000 1.0000
42.9500 336.0000 1.0000
42.9600 342.0000 1.0000
42.9700 341.0000 1.0000
42.9800 360.0000 1.0000
42.9900 368.0000 1.0000
43.0000 352.0000 1.0000
43.0100 342.0000 1.0000
43.0200 361.0000 1.0000
43.0300 376.0000 1.0000
43.0400 372.0000 1.0000
43.0500 341.0000 1.0000
43.0600 358.0000 1.0000
43.0700 370.0000 1.0000
43.0800 354.0000 1.0000
43.0900 348.0000 1.0000
43.1000 337.0000 1.0000
43.1100 351.0000 1.0000
43.1200 343.0000 1.0000
43.1300 360.0000 1.0000
43.1400 363.0000 1.0000
43.1500 344.0000 1.0000
43.1600 380.0000 1.0000
43.1700 340.0000 1.0000
43.1800 342.0000 1.0000
43.1900 346.0000 1.0000
43.2000 358.0000 1.0000
43.2100 377.0000 1.0000
43.2200 345.0000 1.0000
43.2300 344.0000 1.0000
43.2400 357.0000 1.0000
43.2500 334.0000 1.0000
43.2600 350.0000 1.0000
43.2700 348.0000 1.0000
43.2800 337.0000 1.0000
43.2900 317.0000 1.0000
43.3000 343.0000 1.0000
43.3100 367.0000 1.0000
43.3200 339.0000 1.0000
43.3300 329.0000 1.0000
43.3400 314.0000 1.0000
43.3500 339.0000 1.0000
43.3600 347.0000 1.0000
43.3700 351.0000 1.0000
43.3800 359.0000 1.0000
43.3900 384.0000 1.0000
43.4000 375.0000 1.0000
43.4100 378.0000 1.0000
43.4200 341.0000 1.0000
43.4300 342.0000 1.0000
43.4400 345.0000 1.0000
43.4500 357.0000 1.0000
43.4600 365.0000 1.0000
43.4700 339.0000 1.0000
43.4800 338.0000 1.0000
43.4900 347.0000 1.0000
43.5000 366.0000 1.0000
43.5100 376.0000 1.0000
43.5200 365.0000 1.0000
43.5300 314.0000 1.0000
43.5400 334.0000 1.0000
43.5500 395.0000 1.0000
43.5600 378.0000 1.0000
43.5700 351.0000 1.0000
43.5800 361.0000 1.0000
43.5900 380.0000 1.0000
43.6000 375.0000 1.0000
43.6100 385.0000 1.0000
43.6200 340.0000 1.0000
43.6300 353.0000 1.0000
43.6400 330.0000 1.0000
43.6500 340.0000 1.0000
43.6600 324.0000 1.0000
43.6700 337.0000 1.0000
43.6800 355.0000 1.0000
43.6900 367.0000 1.0000
43.7000 341.0000 1.0000
43.7100 366.0000 1.0000
43.7200 336.0000 1.0000
43.7300 339.0000 1.0000
43.7400 353.0000 1.0000
43.7500 332.0000 1.0000
43.7600 357.0000 1.0000
43.7700 342.0000 1.0000
43.7800 354.0000 1.0000
43.7900 374.0000 1.0000
43.8000 355.0000 1.0000
43.8100 364.0000 1.0000
43.8200 327.0000 1.0000
43.8300 341.0000 1.0000
43.8400 320.0000 1.0000
43.8500 331.0000 1.0000
43.8600 332.0000 1.0000
43.8700 329.0000 1.0000
43.8800 324.0000 1.0000
43.8900 329.0000 1.0000
43.9000 351.0000 1.0000
43.9100 327.0000 1.0000
43.9200 335.0000 1.0000
43.9300 329.0000 1.0000
43.9400 335.0000 1.0000
43.9500 329.0000 1.0000
43.9600 320.0000 1.0000
43.9700 314.0000 1.0000
43.9800 375.0000 1.0000
43.9900 365.0000 1.0000
44.0000 361.0000 1.0000
44.0100 345.0000 1.0000
44.0200 338.0000 1.0000
44.0300 311.0000 1.0000
44.0400 331.0000 1.0000
44.0500 354.0000 1.0000
44.0600 381.0000 1.0000
44.0700 325.0000 1.0000
44.0800 343.0000 1.0000
44.0900 340.0000 1.0000
44.1000 342.0000 1.0000
44.1100 355.0000 1.0000
44.1200 349.0000 1.0000
44.1300 356.0000 1.0000
44.1400 368.0000 1.0000
44.1500 362.0000 1.0000
44.1600 351.0000 1.0000
44.1700 314.0000 1.0000
44.1800 335.0000 1.0000
44.1900 333.0000 1.0000
44.2000 337.0000 1.0000
44.2100 345.0000 1.0000
44.2200 349.0000 1.0000
44.2300 374.0000 1.0000
44.2400 343.0000 1.0000
44.2500 347.0000 1.0000
44.2600 343.0000 1.0000
44.2700 307.0000 1.0000
44.2800 351.0000 1.0000
44.2900 340.0000 1.0000
44.3000 342.0000 1.0000
44.3100 349.0000 1.0000
44.3200 337.0000 1.0000
44.3300 346.0000 1.0000
44.3400 340.0000 1.0000
44.3500 332.0000 1.0000
44.3600 351.0000 1.0000
44.3700 336.0000 1.0000
44.3800 333.0000 1.0000
44.3900 333.0000 1.0000
44.4000 353.0000 1.0000
44.4100 320.0000 1.0000
44.4200 328.0000 1.0000
44.4300 344.0000 1.0000
44.4400 366.0000 1.0000
44.4500 348.0000 1.0000
44.4600 324.0000 1.0000
44.4700 321.0000 1.0000
44.4800 342.0000 1.0000
44.4900 345.0000 1.0000
44.5000 367.0000 1.0000
44.5100 326.0000 1.0000
44.5200 332.0000 1.0000
44.5300 327.0000 1.0000
44.5400 324.0000 1.0000
44.5500 331.0000 1.0000
44.5600 335.0000 1.0000
44.5700 351.0000 1.0000
44.5800 347.0000 1.0000
44.5900 334.0000 1.0000
44.6000 331.0000 1.0000
44.6100 330.0000 1.0000
44.6200 312.0000 1.0000
44.6300 337.0000 1.0000
44.6400 368.0000 1.0000
44.6500 343.0000 1.0000
44.6600 353.0000 1.0000
44.6700 329.0000 1.0000
44.6800 334.0000 1.0000
44.6900 333.0000 1.0000
44.7000 341.0000 1.0000
44.7100 342.0000 1.0000
44.7200 352.0000 1.0000
44.7300 338.0000 1.0000
44.7400 311.0000 1.0000
44.7500 317.0000 1.0000
44.7600 327.0000 1.0000
44.7700 346.0000 1.0000
44.7800 321.0000 1.0000
44.7900 343.0000 1.0000
44.8000 297.0000 1.0000
44.8100 304.0000 1.0000
44.8200 358.0000 1.0000
44.8300 368.0000 1.0000
44.8400 362.0000 1.0000
44.8500 338.0000 1.0000
44.8600 328.0000 1.0000
44.8700 347.0000 1.0000
44.8800 292.0000 1.0000
44.8900 331.0000 1.0000
44.9000 328.0000 1.0000
44.9100 349.0000 1.0000
44.9200 366.0000 1.0000
44.9300 365.0000 1.0000
44.9400 353.0000 1.0000
44.9500 342.0000 1.0000
44.9600 341.0000 1.0000
44.9700 320.0000 1.0000
44.9800 328.0000 1.0000
44.9900 350.0000 1.0000
45.0000 347.0000 1.0000
45.0100 370.0000 1.0000
45.0200 371.0000 1.0000
45.0300 344.0000 1.0000
45.0400 324.0000 1.0000
45.0500 315.0000 1.0000
45.0600 326.0000 1.0000
45.0700 333.0000 1.0000
45.0800 318.0000 1.0000
45.0900 346.0000 1.0000
45.1000 322.0000 1.0000
45.1100 328.0000 1.0000
45.1200 334.0000 1.0000
45.1300 324.0000 1.0000
45.1400 332.0000 1.0000
45.1500 330.0000 1.0000
45.1600 308.0000 1.0000
45.1700 330.0000 1.0000
45.1800 328.0000 1.0000
45.1900 314.0000 1.0000
45.2000 369.0000 1.0000
45.2100 334.0000 1.0000
45.2200 323.0000 1.0000
45.2300 331.0000 1.0000
45.2400 329.0000 1.0000
45.2500 296.0000 1.0000
45.2600 307.0000 1.0000
45.2700 315.0000 1.0000
45.2800 341.0000 1.0000
45.2900 353.0000 1.0000
45.3000 314.0000 1.0000
45.3100 316.0000 1.0000
45.3200 327.0000 1.0000
45.3300 345.0000 1.0000
45.3400 311.0000 1.0000
45.3500 325.0000 1.0000
45.3600 323.0000 1.0000
45.3700 318.0000 1.0000
45.3800 320.0000 1.0000
45.3900 319.0000 1.0000
45.4000 317.0000 1.0000
45.4100 339.0000 1.0000
45.4200 347.0000 1.0000
45.4300 303.0000 1.0000
45.4400 323.0000 1.0000
45.4500 324.0000 1.0000
45.4600 296.0000 1.0000
45.4700 294.0000 1.0000
45.4800 312.0000 1.0000
45.4900 331.0000 1.0000
45.5000 334.0000 1.0000
45.5100 321.0000 1.0000
45.5200 326.0000 1.0000
45.5300 332.0000 1.0000
45.5400 350.0000 1.0000
45.5500 328.0000 1.0000
45.5600 309.0000 1.0000
45.5700 344.0000 1.0000
45.5800 321.0000 1.0000
45.5900 309.0000 1.0000
45.6000 339.0000 1.0000
45.6100 351.0000 1.0000
45.6200 315.0000 1.0000
45.6300 351.0000 1.0000
45.6400 314.0000 1.0000
45.6500 328.0000 1.0000
45.6600 303.0000 1.0000
45.6700 323.0000 1.0000
45.6800 342.0000 1.0000
45.6900 312.0000 1.0000
45.7000 324.0000 1.0000
45.7100 318.0000 1.0000
45.7200 312.0000 1.0000
45.7300 321.0000 1.0000
45.7400 339.0000 1.0000
45.7500 335.0000 1.0000
45.7600 324.0000 1.0000
45.7700 317.0000 1.0000
45.7800 332.0000 1.0000
45.7900 349.0000 1.0000
45.8000 331.0000 1.0000
45.8100 313.0000 1.0000
45.8200 324.0000 1.0000
45.8300 323.0000 1.0000
45.8400 344.0000 1.0000
45.8500 318.0000 1.0000
45.8600 320.0000 1.0000
45.8700 336.0000 1.0000
45.8800 324.0000 1.0000
45.8900 319.0000 1.0000
45.9000 334.0000 1.0000
45.9100 321.0000 1.0000
45.9200 326.0000 1.0000
45.9300 323.0000 1.0000
45.9400 329.0000 1.0000
45.9500 337.0000 1.0000
45.9600 331.0000 1.0000
45.9700 325.0000 1.0000
45.9800 309.0000 1.0000
45.9900 335.0000 1.0000
46.0000 348.0000 1.0000
46.0100 362.0000 1.0000
46.0200 314.0000 1.0000
46.0300 307.0000 1.0000
46.0400 305.0000 1.0000
46.0500 292.0000 1.0000
46.0600 327.0000 1.0000
46.0700 333.0000 1.0000
46.0800 312.0000 1.0000
46.0900 336.0000 1.0000
46.1000 337.0000 1.0000
46.1100 346.0000 1.0000
46.1200 358.0000 1.0000
46.1300 323.0000 1.0000
46.1400 321.0000 1.0000
46.1500 326.0000 1.0000
46.1600 348.0000 1.0000
46.1700 328.0000 1.0000
46.1800 323.0000 1.0000
46.1900 341.0000 1.0000
46.2000 335.0000 1.0000
46.2100 348.0000 1.0000
46.2200 294.0000 1.0000
46.2300 322.0000 1.0000
46.2400 331.0000 1.0000
46.2500 325.0000 1.0000
46.2600 331.0000 1.0000
46.2700 325.0000 1.0000
46.2800 324.0000 1.0000
46.2900 339.0000 1.0000
46.3000 308.0000 1.0000
46.3100 344.0000 1.0000
46.3200 313.0000 1.0000
46.3300 342.0000 1.0000
46.3400 297.0000 1.0000
46.3500 333.0000 1.0000
46.3600 310.0000 1.0000
46.3700 315.0000 1.0000
46.3800 323.0000 1.0000
46.3900 317.0000 1.0000
46.4000 326.0000 1.0000
46.4100 321.0000 1.0000
46.4200 348.0000 1.0000
46.4300 325.0000 1.0000
46.4400 312.0000 1.0000
46.4500 328.0000 1.0000
46.4600 354.0000 1.0000
46.4700 307.0000 1.0000
46.4800 318.0000 1.0000
46.4900 329.0000 1.0000
46.5000 322.0000 1.0000
46.5100 314.0000 1.0000
46.5200 333.0000 1.0000
46.5300 331.0000 1.0000
46.5400 300.0000 1.0000
46.5500 308.0000 1.0000
46.5600 351.0000 1.0000
46.5700 318.0000 1.0000
46.5800 323.0000 1.0000
46.5900 325.0000 1.0000
46.6000 339.0000 1.0000
46.6100 292.0000 1.0000
46.6200 322.0000 1.0000
46.6300 325.0000 1.0000
46.6400 307.0000 1.0000
46.6500 329.0000 1.0000
46.6600 306.0000 1.0000
46.6700 282.0000 1.0000
46.6800 346.0000 1.0000
46.6900 308.0000 1.0000
46.7000 323.0000 1.0000
46.7100 301.0000 1.0000
46.7200 334.0000 1.0000
46.7300 306.0000 1.0000
46.7400 278.0000 1.0000
46.7500 306.0000 1.0000
46.7600 306.0000 1.0000
46.7700 326.0000 1.0000
46.7800 330.0000 1.0000
46.7900 305.0000 1.0000
46.8000 342.0000 1.0000
46.8100 314.0000 1.0000
46.8200 327.0000 1.0000
46.8300 309.0000 1.0000
46.8400 318.0000 1.0000
46.8500 331.0000 1.0000
46.8600 333.0000 1.0000
46.8700 302.0000 1.0000
46.8800 319.0000 1.0000
46.8900 315.0000 1.0000
46.9000 330.0000 1.0000
46.9100 316.0000 1.0000
46.9200 284.0000 1.0000
46.9300 314.0000 1.0000
46.9400 345.0000 1.0000
46.9500 321.0000 1.0000
46.9600 327.0000 1.0000
46.9700 335.0000 1.0000
46.9800 355.0000 1.0000
46.9900 327.0000 1.0000
47.0000 308.0000 1.0000
47.0100 324.0000 1.0000
47.0200 289.0000 1.0000
47.0300 301.0000 1.0000
47.0400 321.0000 1.0000
47.0500 300.0000 1.0000
47.0600 329.0000 1.0000
47.0700 289.0000 1.0000
47.0800 309.0000 1.0000
47.0900 305.0000 1.0000
47.1000 303.0000 1.0000
47.1100 298.0000 1.0000
47.1200 332.0000 1.0000
47.1300 313.0000 1.0000
47.1400 297.0000 1.0000
47.1500 294.0000 1.0000
47.1600 333.0000 1.0000
47.1700 315.0000 1.0000
47.1800 308.0000 1.0000
47.1900 309.0000 1.0000
47.2000 291.0000 1.0000
47.2100 308.0000 1.0000
47.2200 295.0000 1.0000
47.2300 318.0000 1.0000
47.2400 314.0000 1.0000
47.2500 311.0000 1.0000
47.2600 313.0000 1.0000
47.2700 330.0000 1.0000
47.2800 331.0000 1.0000
47.2900 338.0000 1.0000
47.3000 313.0000 1.0000
47.3100 303.0000 1.0000
47.3200 338.0000 1.0000
47.3300 338.0000 1.0000
47.3400 322.0000 1.0000
47.3500 317.0000 1.0000
47.3600 327.0000 1.0000
47.3700 326.0000 1.0000
47.3800 292.0000 1.0000
47.3900 300.0000 1.0000
47.4000 338.0000 1.0000
47.4100 295.0000 1.0000
47.4200 302.0000 1.0000
47.4300 313.0000 1.0000
47.4400 304.0000 1.0000
47.4500 295.0000 1.0000
47.4600 291.0000 1.0000
47.4700 304.0000 1.0000
47.4800 327.0000 1.0000
47.4900 293.0000 1.0000
47.5000 304.0000 1.0000
47.5100 317.0000 1.0000
47.5200 309.0000 1.0000
47.5300 316.0000 1.0000
47.5400 319.0000 1.0000
47.5500 326.0000 1.0000
47.5600 313.0000 1.0000
47.5700 347.0000 1.0000
47.5800 304.0000 1.0000
47.5900 336.0000 1.0000
47.6000 337.0000 1.0000
47.6100 306.0000 1.0000
47.6200 318.0000 1.0000
47.6300 301.0000 1.0000
47.6400 320.0000 1.0000
47.6500 312.0000 1.0000
47.6600 325.0000 1.0000
47.6700 326.0000 1.0000
47.6800 282.0000 1.0000
47.6900 289.0000 1.0000
47.7000 284.0000 1.0000
47.7100 319.0000 1.0000
47.7200 327.0000 1.0000
47.7300 334.0000 1.0000
47.7400 353.0000 1.0000
47.7500 301.0000 1.0000
47.7600 333.0000 1.0000
47.7700 308.0000 1.0000
47.7800 319.0000 1.0000
47.7900 309.0000 1.0000
47.8000 334.0000 1.0000
47.8100 324.0000 1.0000
47.8200 296.0000 1.0000
47.8300 278.0000 1.0000
47.8400 285.0000 1.0000
47.8500 315.0000 1.0000
47.8600 319.0000 1.0000
47.8700 285.0000 1.0000
47.8800 311.0000 1.0000
47.8900 318.0000 1.0000
47.9000 311.0000 1.0000
47.9100 306.0000 1.0000
47.9200 292.0000 1.0000
47.9300 298.0000 1.0000
47.9400 356.0000 1.0000
47.9500 308.0000 1.0000
47.9600 307.0000 1.0000
47.9700 292.0000 1.0000
47.9800 297.0000 1.0000
47.9900 287.0000 1.0000
48.0000 343.0000 1.0000
48.0100 337.0000 1.0000
48.0200 303.0000 1.0000
48.0300 284.0000 1.0000
48.0400 309.0000 1.0000
48.0500 271.0000 1.0000
48.0600 324.0000 1.0000
48.0700 329.0000 1.0000
48.0800 287.0000 1.0000
48.0900 310.0000 1.0000
48.1000 305.0000 1.0000
48.1100 292.0000 1.0000
48.1200 284.0000 1.0000
48.1300 301.0000 1.0000
48.1400 320.0000 1.0000
48.1500 313.0000 1.0000
48.1600 271.0000 1.0000
48.1700 311.0000 1.0000
48.1800 309.0000 1.0000
48.1900 298.0000 1.0000
48.2000 322.0000 1.0000
48.2100 303.0000 1.0000
48.2200 297.0000 1.0000
48.2300 295.0000 1.0000
48.2400 336.0000 1.0000
48.2500 327.0000 1.0000
48.2600 300.0000 1.0000
48.2700 299.0000 1.0000
48.2800 323.0000 1.0000
48.2900 293.0000 1.0000
48.3000 296.0000 1.0000
48.3100 303.0000 1.0000
48.3200 329.0000 1.0000
48.3300 303.0000 1.0000
48.3400 290.0000 1.0000
48.3500 310.0000 1.0000
48.3600 286.0000 1.0000
48.3700 307.0000 1.0000
48.3800 301.0000 1.0000
48.3900 281.0000 1.0000
48.4000 298.0000 1.0000
48.4100 328.0000 1.0000
48.4200 304.0000 1.0000
48.4300 304.0000 1.0000
48.4400 314.0000 1.0000
48.4500 316.0000 1.0000
48.4600 301.0000 1.0000
48.4700 298.0000 1.0000
48.4800 304.0000 1.0000
48.4900 308.0000 1.0000
48.5000 312.0000 1.0000
48.5100 325.0000 1.0000
48.5200 297.0000 1.0000
48.5300 291.0000 1.0000
48.5400 311.0000 1.0000
48.5500 281.0000 1.0000
48.5600 285.0000 1.0000
48.5700 303.0000 1.0000
48.5800 327.0000 1.0000
48.5900 324.0000 1.0000
48.6000 297.0000 1.0000
48.6100 285.0000 1.0000
48.6200 315.0000 1.0000
48.6300 298.0000 1.0000
48.6400 293.0000 1.0000
48.6500 313.0000 1.0000
48.6600 302.0000 1.0000
48.6700 317.0000 1.0000
48.6800 328.0000 1.0000
48.6900 310.0000 1.0000
48.7000 298.0000 1.0000
48.7100 281.0000 1.0000
48.7200 310.0000 1.0000
48.7300 307.0000 1.0000
48.7400 330.0000 1.0000
48.7500 309.0000 1.0000
48.7600 296.0000 1.0000
48.7700 308.0000 1.0000
48.7800 308.0000 1.0000
48.7900 292.0000 1.0000
48.8000 305.0000 1.0000
48.8100 300.0000 1.0000
48.8200 313.0000 1.0000
48.8300 290.0000 1.0000
48.8400 317.0000 1.0000
48.8500 325.0000 1.0000
48.8600 319.0000 1.0000
48.8700 320.0000 1.0000
48.8800 289.0000 1.0000
48.8900 297.0000 1.0000
48.9000 283.0000 1.0000
48.9100 302.0000 1.0000
48.9200 329.0000 1.0000
48.9300 293.0000 1.0000
48.9400 316.0000 1.0000
48.9500 282.0000 1.0000
48.9600 321.0000 1.0000
48.9700 297.0000 1.0000
48.9800 314.0000 1.0000
48.9900 308.0000 1.0000
49.0000 301.0000 1.0000
49.0100 306.0000 1.0000
49.0200 311.0000 1.0000
49.0300 305.0000 1.0000
49.0400 307.0000 1.0000
49.0500 262.0000 1.0000
49.0600 298.0000 1.0000
49.0700 292.0000 1.0000
49.0800 334.0000 1.0000
49.0900 310.0000 1.0000
49.1000 330.0000 1.0000
49.1100 314.0000 1.0000
49.1200 351.0000 1.0000
49.1300 336.0000 1.0000
49.1400 308.0000 1.0000
49.1500 336.0000 1.0000
49.1600 325.0000 1.0000
49.1700 329.0000 1.0000
49.1800 322.0000 1.0000
49.1900 329.0000 1.0000
49.2000 286.0000 1.0000
49.2100 318.0000 1.0000
49.2200 310.0000 1.0000
49.2300 321.0000 1.0000
49.2400 324.0000 1.0000
49.2500 330.0000 1.0000
49.2600 300.0000 1.0000
49.2700 310.0000 1.0000
49.2800 305.0000 1.0000
49.2900 323.0000 1.0000
49.3000 325.0000 1.0000
49.3100 311.0000 1.0000
49.3200 308.0000 1.0000
49.3300 334.0000 1.0000
49.3400 340.0000 1.0000
49.3500 318.0000 1.0000
49.3600 319.0000 1.0000
49.3700 313.0000 1.0000
49.3800 279.0000 1.0000
49.3900 311.0000 1.0000
49.4000 290.0000 1.0000
49.4100 286.0000 1.0000
49.4200 309.0000 1.0000
49.4300 308.0000 1.0000
49.4400 284.0000 1.0000
49.4500 296.0000 1.0000
49.4600 268.0000 1.0000
49.4700 318.0000 1.0000
49.4800 307.0000 1.0000
49.4900 279.0000 1.0000
49.5000 298.0000 1.0000
49.5100 315.0000 1.0000
49.5200 339.0000 1.0000
49.5300 287.0000 1.0000
49.5400 310.0000 1.0000
49.5500 312.0000 1.0000
49.5600 314.0000 1.0000
49.5700 293.0000 1.0000
49.5800 321.0000 1.0000
49.5900 303.0000 1.0000
49.6000 289.0000 1.0000
49.6100 301.0000 1.0000
49.6200 304.0000 1.0000
49.6300 317.0000 1.0000
49.6400 308.0000 1.0000
49.6500 305.0000 1.0000
49.6600 289.0000 1.0000
49.6700 280.0000 1.0000
49.6800 277.0000 1.0000
49.6900 315.0000 1.0000
49.7000 310.0000 1.0000
49.7100 322.0000 1.0000
49.7200 311.0000 1.0000
49.7300 309.0000 1.0000
49.7400 315.0000 1.0000
49.7500 304.0000 1.0000
49.7600 316.0000 1.0000
49.7700 297.0000 1.0000
49.7800 309.0000 1.0000
49.7900 322.0000 1.0000
49.8000 311.0000 1.0000
49.8100 323.0000 1.0000
49.8200 310.0000 1.0000
49.8300 342.0000 1.0000
49.8400 313.0000 1.0000
49.8500 310.0000 1.0000
49.8600 304.0000 1.0000
49.8700 296.0000 1.0000
49.8800 293.0000 1.0000
49.8900 306.0000 1.0000
49.9000 329.0000 1.0000
49.9100 309.0000 1.0000
49.9200 305.0000 1.0000
49.9300 303.0000 1.0000
49.9400 302.0000 1.0000
49.9500 298.0000 1.0000
49.9600 324.0000 1.0000
49.9700 329.0000 1.0000
49.9800 300.0000 1.0000
49.9900 286.0000 1.0000
50.0000 292.0000 1.0000
50.0100 303.0000 1.0000
50.0200 292.0000 1.0000
50.0300 310.0000 1.0000
50.0400 284.0000 1.0000
50.0500 287.0000 1.0000
50.0600 283.0000 1.0000
50.0700 309.0000 1.0000
50.0800 307.0000 1.0000
50.0900 280.0000 1.0000
50.1000 303.0000 1.0000
50.1100 302.0000 1.0000
50.1200 292.0000 1.0000
50.1300 308.0000 1.0000
50.1400 298.0000 1.0000
50.1500 334.0000 1.0000
50.1600 299.0000 1.0000
50.1700 281.0000 1.0000
50.1800 321.0000 1.0000
50.1900 321.0000 1.0000
50.2000 311.0000 1.0000
50.2100 292.0000 1.0000
50.2200 327.0000 1.0000
50.2300 295.0000 1.0000
50.2400 297.0000 1.0000
50.2500 297.0000 1.0000
50.2600 289.0000 1.0000
50.2700 326.0000 1.0000
50.2800 294.0000 1.0000
50.2900 297.0000 1.0000
50.3000 306.0000 1.0000
50.3100 306.0000 1.0000
50.3200 273.0000 1.0000
50.3300 317.0000 1.0000
50.3400 334.0000 1.0000
50.3500 298.0000 1.0000
50.3600 295.0000 1.0000
50.3700 323.0000 1.0000
50.3800 303.0000 1.0000
50.3900 266.0000 1.0000
50.4000 303.0000 1.0000
50.4100 321.0000 1.0000
50.4200 310.0000 1.0000
50.4300 330.0000 1.0000
50.4400 315.0000 1.0000
50.4500 341.0000 1.0000
50.4600 312.0000 1.0000
50.4700 284.0000 1.0000
50.4800 291.0000 1.0000
50.4900 296.0000 1.0000
50.5000 299.0000 1.0000
50.5100 293.0000 1.0000
50.5200 314.0000 1.0000
50.5300 327.0000 1.0000
50.5400 307.0000 1.0000
50.5500 307.0000 1.0000
50.5600 301.0000 1.0000
50.5700 299.0000 1.0000
50.5800 287.0000 1.0000
50.5900 315.0000 1.0000
50.6000 337.0000 1.0000
50.6100 316.0000 1.0000
50.6200 324.0000 1.0000
50.6300 309.0000 1.0000
50.6400 327.0000 1.0000
50.6500 324.0000 1.0000
50.6600 287.0000 1.0000
50.6700 309.0000 1.0000
50.6800 332.0000 1.0000
50.6900 309.0000 1.0000
50.7000 311.0000 1.0000
50.7100 297.0000 1.0000
50.7200 293.0000 1.0000
50.7300 305.0000 1.0000
50.7400 330.0000 1.0000
50.7500 316.0000 1.0000
50.7600 316.0000 1.0000
50.7700 329.0000 1.0000
50.7800 340.0000 1.0000
50.7900 306.0000 1.0000
50.8000 282.0000 1.0000
50.8100 330.0000 1.0000
50.8200 326.0000 1.0000
50.8300 308.0000 1.0000
50.8400 310.0000 1.0000
50.8500 313.0000 1.0000
50.8600 335.0000 1.0000
50.8700 317.0000 1.0000
50.8800 321.0000 1.0000
50.8900 289.0000 1.0000
50.9000 334.0000 1.0000
50.9100 340.0000 1.0000
50.9200 317.0000 1.0000
50.9300 322.0000 1.0000
50.9400 347.0000 1.0000
50.9500 342.0000 1.0000
50.9600 342.0000 1.0000
50.9700 347.0000 1.0000
50.9800 326.0000 1.0000
50.9900 380.0000 1.0000
51.0000 350.0000 1.0000
51.0100 347.0000 1.0000
51.0200 348.0000 1.0000
51.0300 332.0000 1.0000
51.0400 321.0000 1.0000
51.0500 343.0000 1.0000
51.0600 347.0000 1.0000
51.0700 391.0000 1.0000
51.0800 388.0000 1.0000
51.0900 359.0000 1.0000
51.1000 373.0000 1.0000
51.1100 395.0000 1.0000
51.1200 401.0000 1.0000
51.1300 378.0000 1.0000
51.1400 431.0000 1.0000
51.1500 423.0000 1.0000
51.1600 469.0000 1.0000
51.1700 464.0000 1.0000
51.1800 452.0000 1.0000
51.1900 509.0000 1.0000
51.2000 483.0000 1.0000
51.2100 465.0000 1.0000
51.2200 492.0000 1.0000
51.2300 500.0000 1.0000
51.2400 540.0000 1.0000
51.2500 567.0000 1.0000
51.2600 605.0000 1.0000
51.2700 648.0000 1.0000
51.2800 638.0000 1.0000
51.2900 684.0000 1.0000
51.3000 735.0000 1.0000
51.3100 803.0000 1.0000
51.3200 784.0000 1.0000
51.3300 849.0000 1.0000
51.3400 922.0000 1.0000
51.3500 963.0000 1.0000
51.3600 1044.0000 1.0000
51.3700 1072.0000 1.0000
51.3800 1227.0000 1.0000
51.3900 1305.0000 1.0000
51.4000 1422.0000 1.0000
51.4100 1518.0000 1.0000
51.4200 1675.0000 1.0000
51.4300 1759.0000 1.0000
51.4400 1837.0000 1.0000
51.4500 1959.0000 1.0000
51.4600 1975.0000 1.0000
51.4700 2126.0000 1.0000
51.4800 2055.0000 1.0000
51.4900 2089.0000 1.0000
51.5000 2101.0000 1.0000
51.5100 2148.0000 1.0000
51.5200 1956.0000 1.0000
51.5300 1975.0000 1.0000
51.5400 1870.0000 1.0000
51.5500 1801.0000 1.0000
51.5600 1734.0000 1.0000
51.5700 1673.0000 1.0000
51.5800 1632.0000 1.0000
51.5900 1575.0000 1.0000
51.6000 1492.0000 1.0000
51.6100 1514.0000 1.0000
51.6200 1397.0000 1.0000
51.6300 1388.0000 1.0000
51.6400 1380.0000 1.0000
51.6500 1225.0000 1.0000
51.6600 1167.0000 1.0000
51.6700 1123.0000 1.0000
51.6800 995.0000 1.0000
51.6900 944.0000 1.0000
51.7000 920.0000 1.0000
51.7100 866.0000 1.0000
51.7200 768.0000 1.0000
51.7300 714.0000 1.0000
51.7400 644.0000 1.0000
51.7500 641.0000 1.0000
51.7600 591.0000 1.0000
51.7700 627.0000 1.0000
51.7800 565.0000 1.0000
51.7900 540.0000 1.0000
51.8000 520.0000 1.0000
51.8100 516.0000 1.0000
51.8200 485.0000 1.0000
51.8300 471.0000 1.0000
51.8400 470.0000 1.0000
51.8500 436.0000 1.0000
51.8600 433.0000 1.0000
51.8700 447.0000 1.0000
51.8800 412.0000 1.0000
51.8900 447.0000 1.0000
51.9000 415.0000 1.0000
51.9100 390.0000 1.0000
51.9200 372.0000 1.0000
51.9300 354.0000 1.0000
51.9400 363.0000 1.0000
51.9500 363.0000 1.0000
51.9600 369.0000 1.0000
51.9700 350.0000 1.0000
51.9800 382.0000 1.0000
51.9900 360.0000 1.0000
52.0000 379.0000 1.0000
52.0100 384.0000 1.0000
52.0200 361.0000 1.0000
52.0300 318.0000 1.0000
52.0400 329.0000 1.0000
52.0500 360.0000 1.0000
52.0600 331.0000 1.0000
52.0700 324.0000 1.0000
52.0800 320.0000 1.0000
52.0900 351.0000 1.0000
52.1000 340.0000 1.0000
52.1100 314.0000 1.0000
52.1200 316.0000 1.0000
52.1300 347.0000 1.0000
52.1400 338.0000 1.0000
52.1500 311.0000 1.0000
52.1600 332.0000 1.0000
52.1700 333.0000 1.0000
52.1800 309.0000 1.0000
52.1900 316.0000 1.0000
52.2000 313.0000 1.0000
52.2100 328.0000 1.0000
52.2200 330.0000 1.0000
52.2300 308.0000 1.0000
52.2400 314.0000 1.0000
52.2500 300.0000 1.0000
52.2600 313.0000 1.0000
52.2700 316.0000 1.0000
52.2800 314.0000 1.0000
52.2900 326.0000 1.0000
52.3000 341.0000 1.0000
52.3100 356.0000 1.0000
52.3200 286.0000 1.0000
52.3300 292.0000 1.0000
52.3400 334.0000 1.0000
52.3500 320.0000 1.0000
52.3600 317.0000 1.0000
52.3700 285.0000 1.0000
52.3800 314.0000 1.0000
52.3900 299.0000 1.0000
52.4000 288.0000 1.0000
52.4100 320.0000 1.0000
52.4200 282.0000 1.0000
52.4300 315.0000 1.0000
52.4400 302.0000 1.0000
52.4500 295.0000 1.0000
52.4600 294.0000 1.0000
52.4700 313.0000 1.0000
52.4800 304.0000 1.0000
52.4900 329.0000 1.0000
52.5000 318.0000 1.0000
52.5100 314.0000 1.0000
52.5200 309.0000 1.0000
52.5300 286.0000 1.0000
52.5400 301.0000 1.0000
52.5500 305.0000 1.0000
52.5600 288.0000 1.0000
52.5700 284.0000 1.0000
52.5800 274.0000 1.0000
52.5900 302.0000 1.0000
52.6000 329.0000 1.0000
52.6100 323.0000 1.0000
52.6200 287.0000 1.0000
52.6300 307.0000 1.0000
52.6400 324.0000 1.0000
52.6500 323.0000 1.0000
52.6600 304.0000 1.0000
52.6700 302.0000 1.0000
52.6800 301.0000 1.0000
52.6900 289.0000 1.0000
52.7000 313.0000 1.0000
52.7100 303.0000 1.0000
52.7200 334.0000 1.0000
52.7300 305.0000 1.0000
52.7400 274.0000 1.0000
52.7500 329.0000 1.0000
52.7600 310.0000 1.0000
52.7700 276.0000 1.0000
52.7800 285.0000 1.0000
52.7900 275.0000 1.0000
52.8000 292.0000 1.0000
52.8100 295.0000 1.0000
52.8200 301.0000 1.0000
52.8300 288.0000 1.0000
52.8400 294.0000 1.0000
52.8500 241.0000 1.0000
52.8600 306.0000 1.0000
52.8700 310.0000 1.0000
52.8800 272.0000 1.0000
52.8900 304.0000 1.0000
52.9000 312.0000 1.0000
52.9100 288.0000 1.0000
52.9200 273.0000 1.0000
52.9300 275.0000 1.0000
52.9400 270.0000 1.0000
52.9500 309.0000 1.0000
52.9600 297.0000 1.0000
52.9700 298.0000 1.0000
52.9800 300.0000 1.0000
52.9900 264.0000 1.0000
53.0000 304.0000 1.0000
53.0100 293.0000 1.0000
53.0200 277.0000 1.0000
53.0300 299.0000 1.0000
53.0400 289.0000 1.0000
53.0500 293.0000 1.0000
53.0600 290.0000 1.0000
53.0700 279.0000 1.0000
53.0800 298.0000 1.0000
53.0900 284.0000 1.0000
53.1000 312.0000 1.0000
53.1100 335.0000 1.0000
53.1200 306.0000 1.0000
53.1300 271.0000 1.0000
53.1400 290.0000 1.0000
53.1500 283.0000 1.0000
53.1600 290.0000 1.0000
53.1700 297.0000 1.0000
53.1800 281.0000 1.0000
53.1900 278.0000 1.0000
53.2000 281.0000 1.0000
53.2100 298.0000 1.0000
53.2200 343.0000 1.0000
53.2300 294.0000 1.0000
53.2400 332.0000 1.0000
53.2500 304.0000 1.0000
53.2600 265.0000 1.0000
53.2700 296.0000 1.0000
53.2800 304.0000 1.0000
53.2900 282.0000 1.0000
53.3000 314.0000 1.0000
53.3100 281.0000 1.0000
53.3200 287.0000 1.0000
53.3300 313.0000 1.0000
53.3400 309.0000 1.0000
53.3500 301.0000 1.0000
53.3600 308.0000 1.0000
53.3700 301.0000 1.0000
53.3800 292.0000 1.0000
53.3900 304.0000 1.0000
53.4000 292.0000 1.0000
53.4100 285.0000 1.0000
53.4200 276.0000 1.0000
53.4300 323.0000 1.0000
53.4400 297.0000 1.0000
53.4500 290.0000 1.0000
53.4600 317.0000 1.0000
53.4700 313.0000 1.0000
53.4800 283.0000 1.0000
53.4900 264.0000 1.0000
53.5000 276.0000 1.0000
53.5100 288.0000 1.0000
53.5200 312.0000 1.0000
53.5300 297.0000 1.0000
53.5400 298.0000 1.0000
53.5500 278.0000 1.0000
53.5600 285.0000 1.0000
53.5700 290.0000 1.0000
53.5800 315.0000 1.0000
53.5900 302.0000 1.0000
53.6000 335.0000 1.0000
53.6100 295.0000 1.0000
53.6200 320.0000 1.0000
53.6300 290.0000 1.0000
53.6400 265.0000 1.0000
53.6500 299.0000 1.0000
53.6600 316.0000 1.0000
53.6700 326.0000 1.0000
53.6800 299.0000 1.0000
53.6900 306.0000 1.0000
53.7000 333.0000 1.0000
53.7100 323.0000 1.0000
53.7200 324.0000 1.0000
53.7300 289.0000 1.0000
53.7400 300.0000 1.0000
53.7500 293.0000 1.0000
53.7600 320.0000 1.0000
53.7700 286.0000 1.0000
53.7800 291.0000 1.0000
53.7900 293.0000 1.0000
53.8000 294.0000 1.0000
53.8100 310.0000 1.0000
53.8200 282.0000 1.0000
53.8300 267.0000 1.0000
53.8400 320.0000 1.0000
53.8500 262.0000 1.0000
53.8600 303.0000 1.0000
53.8700 327.0000 1.0000
53.8800 275.0000 1.0000
53.8900 309.0000 1.0000
53.9000 335.0000 1.0000
53.9100 303.0000 1.0000
53.9200 283.0000 1.0000
53.9300 299.0000 1.0000
53.9400 293.0000 1.0000
53.9500 291.0000 1.0000
53.9600 282.0000 1.0000
53.9700 296.0000 1.0000
53.9800 320.0000 1.0000
53.9900 313.0000 1.0000
54.0000 301.0000 1.0000
54.0100 321.0000 1.0000
54.0200 314.0000 1.0000
54.0300 297.0000 1.0000
54.0400 322.0000 1.0000
54.0500 274.0000 1.0000
54.0600 303.0000 1.0000
54.0700 299.0000 1.0000
54.0800 303.0000 1.0000
54.0900 312.0000 1.0000
54.1000 323.0000 1.0000
54.1100 306.0000 1.0000
54.1200 319.0000 1.0000
54.1300 292.0000 1.0000
54.1400 305.0000 1.0000
54.1500 352.0000 1.0000
54.1600 348.0000 1.0000
54.1700 325.0000 1.0000
54.1800 284.0000 1.0000
54.1900 294.0000 1.0000
54.2000 291.0000 1.0000
54.2100 278.0000 1.0000
54.2200 314.0000 1.0000
54.2300 311.0000 1.0000
54.2400 324.0000 1.0000
54.2500 301.0000 1.0000
54.2600 311.0000 1.0000
54.2700 319.0000 1.0000
54.2800 322.0000 1.0000
54.2900 307.0000 1.0000
54.3000 335.0000 1.0000
54.3100 334.0000 1.0000
54.3200 364.0000 1.0000
54.3300 343.0000 1.0000
54.3400 321.0000 1.0000
54.3500 343.0000 1.0000
54.3600 365.0000 1.0000
54.3700 372.0000 1.0000
54.3800 362.0000 1.0000
54.3900 383.0000 1.0000
54.4000 400.0000 1.0000
54.4100 369.0000 1.0000
54.4200 396.0000 1.0000
54.4300 419.0000 1.0000
54.4400 443.0000 1.0000
54.4500 419.0000 1.0000
54.4600 448.0000 1.0000
54.4700 426.0000 1.0000
54.4800 416.0000 1.0000
54.4900 449.0000 1.0000
54.5000 457.0000 1.0000
54.5100 414.0000 1.0000
54.5200 433.0000 1.0000
54.5300 432.0000 1.0000
54.5400 445.0000 1.0000
54.5500 432.0000 1.0000
54.5600 436.0000 1.0000
54.5700 446.0000 1.0000
54.5800 445.0000 1.0000
54.5900 439.0000 1.0000
54.6000 413.0000 1.0000
54.6100 408.0000 1.0000
54.6200 419.0000 1.0000
54.6300 435.0000 1.0000
54.6400 418.0000 1.0000
54.6500 386.0000 1.0000
54.6600 430.0000 1.0000
54.6700 384.0000 1.0000
54.6800 396.0000 1.0000
54.6900 371.0000 1.0000
54.7000 357.0000 1.0000
54.7100 372.0000 1.0000
54.7200 370.0000 1.0000
54.7300 331.0000 1.0000
54.7400 354.0000 1.0000
54.7500 381.0000 1.0000
54.7600 360.0000 1.0000
54.7700 352.0000 1.0000
54.7800 323.0000 1.0000
54.7900 320.0000 1.0000
54.8000 317.0000 1.0000
54.8100 333.0000 1.0000
54.8200 318.0000 1.0000
54.8300 320.0000 1.0000
54.8400 322.0000 1.0000
54.8500 333.0000 1.0000
54.8600 309.0000 1.0000
54.8700 332.0000 1.0000
54.8800 289.0000 1.0000
54.8900 325.0000 1.0000
54.9000 317.0000 1.0000
54.9100 315.0000 1.0000
54.9200 320.0000 1.0000
54.9300 294.0000 1.0000
54.9400 326.0000 1.0000
54.9500 297.0000 1.0000
54.9600 296.0000 1.0000
54.9700 292.0000 1.0000
54.9800 295.0000 1.0000
54.9900 292.0000 1.0000
55.0000 299.0000 1.0000
55.0100 293.0000 1.0000
55.0200 296.0000 1.0000
55.0300 299.0000 1.0000
55.0400 297.0000 1.0000
55.0500 313.0000 1.0000
55.0600 310.0000 1.0000
55.0700 276.0000 1.0000
55.0800 262.0000 1.0000
55.0900 320.0000 1.0000
55.1000 308.0000 1.0000
55.1100 308.0000 1.0000
55.1200 271.0000 1.0000
55.1300 330.0000 1.0000
55.1400 281.0000 1.0000
55.1500 281.0000 1.0000
55.1600 283.0000 1.0000
55.1700 304.0000 1.0000
55.1800 309.0000 1.0000
55.1900 303.0000 1.0000
55.2000 301.0000 1.0000
55.2100 280.0000 1.0000
55.2200 320.0000 1.0000
55.2300 293.0000 1.0000
55.2400 290.0000 1.0000
55.2500 313.0000 1.0000
55.2600 293.0000 1.0000
55.2700 297.0000 1.0000
55.2800 276.0000 1.0000
55.2900 278.0000 1.0000
55.3000 265.0000 1.0000
55.3100 264.0000 1.0000
55.3200 305.0000 1.0000
55.3300 285.0000 1.0000
55.3400 281.0000 1.0000
55.3500 290.0000 1.0000
55.3600 293.0000 1.0000
55.3700 296.0000 1.0000
55.3800 300.0000 1.0000
55.3900 286.0000 1.0000
55.4000 264.0000 1.0000
55.4100 274.0000 1.0000
55.4200 279.0000 1.0000
55.4300 286.0000 1.0000
55.4400 301.0000 1.0000
55.4500 275.0000 1.0000
55.4600 293.0000 1.0000
55.4700 281.0000 1.0000
55.4800 300.0000 1.0000
55.4900 301.0000 1.0000
55.5000 306.0000 1.0000
55.5100 280.0000 1.0000
55.5200 305.0000 1.0000
55.5300 323.0000 1.0000
55.5400 296.0000 1.0000
55.5500 294.0000 1.0000
55.5600 276.0000 1.0000
55.5700 285.0000 1.0000
55.5800 265.0000 1.0000
55.5900 254.0000 1.0000
55.6000 277.0000 1.0000
55.6100 262.0000 1.0000
55.6200 284.0000 1.0000
55.6300 289.0000 1.0000
55.6400 272.0000 1.0000
55.6500 279.0000 1.0000
55.6600 301.0000 1.0000
55.6700 292.0000 1.0000
55.6800 247.0000 1.0000
55.6900 259.0000 1.0000
55.7000 288.0000 1.0000
55.7100 283.0000 1.0000
55.7200 258.0000 1.0000
55.7300 296.0000 1.0000
55.7400 302.0000 1.0000
55.7500 303.0000 1.0000
55.7600 271.0000 1.0000
55.7700 288.0000 1.0000
55.7800 303.0000 1.0000
55.7900 305.0000 1.0000
55.8000 276.0000 1.0000
55.8100 293.0000 1.0000
55.8200 271.0000 1.0000
55.8300 269.0000 1.0000
55.8400 277.0000 1.0000
55.8500 297.0000 1.0000
55.8600 282.0000 1.0000
55.8700 250.0000 1.0000
55.8800 269.0000 1.0000
55.8900 293.0000 1.0000
55.9000 287.0000 1.0000
55.9100 259.0000 1.0000
55.9200 296.0000 1.0000
55.9300 258.0000 1.0000
55.9400 272.0000 1.0000
55.9500 293.0000 1.0000
55.9600 280.0000 1.0000
55.9700 285.0000 1.0000
55.9800 278.0000 1.0000
55.9900 260.0000 1.0000
56.0000 299.0000 1.0000
56.0100 280.0000 1.0000
56.0200 272.0000 1.0000
56.0300 298.0000 1.0000
56.0400 294.0000 1.0000
56.0500 279.0000 1.0000
56.0600 262.0000 1.0000
56.0700 314.0000 1.0000
56.0800 297.0000 1.0000
56.0900 295.0000 1.0000
56.1000 284.0000 1.0000
56.1100 276.0000 1.0000
56.1200 265.0000 1.0000
56.1300 288.0000 1.0000
56.1400 285.0000 1.0000
56.1500 265.0000 1.0000
56.1600 266.0000 1.0000
56.1700 264.0000 1.0000
56.1800 283.0000 1.0000
56.1900 278.0000 1.0000
56.2000 257.0000 1.0000
56.2100 281.0000 1.0000
56.2200 286.0000 1.0000
56.2300 293.0000 1.0000
56.2400 295.0000 1.0000
56.2500 298.0000 1.0000
56.2600 306.0000 1.0000
56.2700 296.0000 1.0000
56.2800 302.0000 1.0000
56.2900 281.0000 1.0000
56.3000 288.0000 1.0000
56.3100 278.0000 1.0000
56.3200 271.0000 1.0000
56.3300 270.0000 1.0000
56.3400 292.0000 1.0000
56.3500 262.0000 1.0000
56.3600 278.0000 1.0000
56.3700 299.0000 1.0000
56.3800 286.0000 1.0000
56.3900 281.0000 1.0000
56.4000 275.0000 1.0000
56.4100 284.0000 1.0000
56.4200 287.0000 1.0000
56.4300 284.0000 1.0000
56.4400 291.0000 1.0000
56.4500 274.0000 1.0000
56.4600 278.0000 1.0000
56.4700 302.0000 1.0000
56.4800 261.0000 1.0000
56.4900 267.0000 1.0000
56.5000 282.0000 1.0000
56.5100 299.0000 1.0000
56.5200 281.0000 1.0000
56.5300 290.0000 1.0000
56.5400 287.0000 1.0000
56.5500 274.0000 1.0000
56.5600 259.0000 1.0000
56.5700 279.0000 1.0000
56.5800 297.0000 1.0000
56.5900 305.0000 1.0000
56.6000 297.0000 1.0000
56.6100 287.0000 1.0000
56.6200 294.0000 1.0000
56.6300 298.0000 1.0000
56.6400 276.0000 1.0000
56.6500 281.0000 1.0000
56.6600 306.0000 1.0000
56.6700 280.0000 1.0000
56.6800 280.0000 1.0000
56.6900 287.0000 1.0000
56.7000 280.0000 1.0000
56.7100 308.0000 1.0000
56.7200 277.0000 1.0000
56.7300 289.0000 1.0000
56.7400 264.0000 1.0000
56.7500 285.0000 1.0000
56.7600 272.0000 1.0000
56.7700 265.0000 1.0000
56.7800 293.0000 1.0000
56.7900 275.0000 1.0000
56.8000 250.0000 1.0000
56.8100 292.0000 1.0000
56.8200 266.0000 1.0000
56.8300 294.0000 1.0000
56.8400 294.0000 1.0000
56.8500 296.0000 1.0000
56.8600 285.0000 1.0000
56.8700 270.0000 1.0000
56.8800 276.0000 1.0000
56.8900 273.0000 1.0000
56.9000 290.0000 1.0000
56.9100 282.0000 1.0000
56.9200 286.0000 1.0000
56.9300 258.0000 1.0000
56.9400 280.0000 1.0000
56.9500 283.0000 1.0000
56.9600 282.0000 1.0000
56.9700 300.0000 1.0000
56.9800 271.0000 1.0000
56.9900 300.0000 1.0000
57.0000 268.0000 1.0000
57.0100 294.0000 1.0000
57.0200 273.0000 1.0000
57.0300 286.0000 1.0000
57.0400 279.0000 1.0000
57.0500 266.0000 1.0000
57.0600 256.0000 1.0000
57.0700 272.0000 1.0000
57.0800 258.0000 1.0000
57.0900 299.0000 1.0000
57.1000 280.0000 1.0000
57.1100 288.0000 1.0000
57.1200 279.0000 1.0000
57.1300 297.0000 1.0000
57.1400 269.0000 1.0000
57.1500 284.0000 1.0000
57.1600 266.0000 1.0000
57.1700 277.0000 1.0000
57.1800 277.0000 1.0000
57.1900 247.0000 1.0000
57.2000 291.0000 1.0000
57.2100 290.0000 1.0000
57.2200 298.0000 1.0000
57.2300 303.0000 1.0000
57.2400 288.0000 1.0000
57.2500 264.0000 1.0000
57.2600 257.0000 1.0000
57.2700 285.0000 1.0000
57.2800 282.0000 1.0000
57.2900 274.0000 1.0000
57.3000 264.0000 1.0000
57.3100 275.0000 1.0000
57.3200 294.0000 1.0000
57.3300 284.0000 1.0000
57.3400 273.0000 1.0000
57.3500 276.0000 1.0000
57.3600 281.0000 1.0000
57.3700 290.0000 1.0000
57.3800 293.0000 1.0000
57.3900 260.0000 1.0000
57.4000 257.0000 1.0000
57.4100 298.0000 1.0000
57.4200 298.0000 1.0000
57.4300 261.0000 1.0000
57.4400 245.0000 1.0000
57.4500 285.0000 1.0000
57.4600 277.0000 1.0000
57.4700 293.0000 1.0000
57.4800 271.0000 1.0000
57.4900 285.0000 1.0000
57.5000 279.0000 1.0000
57.5100 264.0000 1.0000
57.5200 255.0000 1.0000
57.5300 296.0000 1.0000
57.5400 300.0000 1.0000
57.5500 274.0000 1.0000
57.5600 266.0000 1.0000
57.5700 285.0000 1.0000
57.5800 297.0000 1.0000
57.5900 286.0000 1.0000
57.6000 291.0000 1.0000
57.6100 265.0000 1.0000
57.6200 304.0000 1.0000
57.6300 282.0000 1.0000
57.6400 311.0000 1.0000
57.6500 286.0000 1.0000
57.6600 284.0000 1.0000
57.6700 241.0000 1.0000
57.6800 280.0000 1.0000
57.6900 264.0000 1.0000
57.7000 275.0000 1.0000
57.7100 274.0000 1.0000
57.7200 296.0000 1.0000
57.7300 278.0000 1.0000
57.7400 266.0000 1.0000
57.7500 299.0000 1.0000
57.7600 298.0000 1.0000
57.7700 256.0000 1.0000
57.7800 257.0000 1.0000
57.7900 276.0000 1.0000
57.8000 289.0000 1.0000
57.8100 285.0000 1.0000
57.8200 299.0000 1.0000
57.8300 258.0000 1.0000
57.8400 270.0000 1.0000
57.8500 288.0000 1.0000
57.8600 271.0000 1.0000
57.8700 277.0000 1.0000
57.8800 281.0000 1.0000
57.8900 281.0000 1.0000
57.9000 289.0000 1.0000
57.9100 272.0000 1.0000
57.9200 309.0000 1.0000
57.9300 282.0000 1.0000
57.9400 276.0000 1.0000
57.9500 270.0000 1.0000
57.9600 262.0000 1.0000
57.9700 304.0000 1.0000
57.9800 305.0000 1.0000
57.9900 269.0000 1.0000
58.0000 258.0000 1.0000
58.0100 264.0000 1.0000
58.0200 292.0000 1.0000
58.0300 267.0000 1.0000
58.0400 292.0000 1.0000
58.0500 287.0000 1.0000
58.0600 279.0000 1.0000
58.0700 281.0000 1.0000
58.0800 256.0000 1.0000
58.0900 270.0000 1.0000
58.1000 254.0000 1.0000
58.1100 276.0000 1.0000
58.1200 296.0000 1.0000
58.1300 272.0000 1.0000
58.1400 272.0000 1.0000
58.1500 265.0000 1.0000
58.1600 268.0000 1.0000
58.1700 269.0000 1.0000
58.1800 289.0000 1.0000
58.1900 261.0000 1.0000
58.2000 271.0000 1.0000
58.2100 255.0000 1.0000
58.2200 258.0000 1.0000
58.2300 295.0000 1.0000
58.2400 263.0000 1.0000
58.2500 265.0000 1.0000
58.2600 286.0000 1.0000
58.2700 262.0000 1.0000
58.2800 277.0000 1.0000
58.2900 272.0000 1.0000
58.3000 275.0000 1.0000
58.3100 266.0000 1.0000
58.3200 274.0000 1.0000
58.3300 266.0000 1.0000
58.3400 261.0000 1.0000
58.3500 289.0000 1.0000
58.3600 287.0000 1.0000
58.3700 272.0000 1.0000
58.3800 286.0000 1.0000
58.3900 289.0000 1.0000
58.4000 291.0000 1.0000
58.4100 293.0000 1.0000
58.4200 298.0000 1.0000
58.4300 262.0000 1.0000
58.4400 254.0000 1.0000
58.4500 262.0000 1.0000
58.4600 268.0000 1.0000
58.4700 273.0000 1.0000
58.4800 275.0000 1.0000
58.4900 284.0000 1.0000
58.5000 283.0000 1.0000
58.5100 284.0000 1.0000
58.5200 295.0000 1.0000
58.5300 287.0000 1.0000
58.5400 300.0000 1.0000
58.5500 295.0000 1.0000
58.5600 287.0000 1.0000
58.5700 300.0000 1.0000
58.5800 271.0000 1.0000
58.5900 312.0000 1.0000
58.6000 302.0000 1.0000
58.6100 235.0000 1.0000
58.6200 280.0000 1.0000
58.6300 253.0000 1.0000
58.6400 282.0000 1.0000
58.6500 286.0000 1.0000
58.6600 293.0000 1.0000
58.6700 271.0000 1.0000
58.6800 276.0000 1.0000
58.6900 276.0000 1.0000
58.7000 269.0000 1.0000
58.7100 277.0000 1.0000
58.7200 301.0000 1.0000
58.7300 304.0000 1.0000
58.7400 303.0000 1.0000
58.7500 255.0000 1.0000
58.7600 247.0000 1.0000
58.7700 278.0000 1.0000
58.7800 283.0000 1.0000
58.7900 268.0000 1.0000
58.8000 277.0000 1.0000
58.8100 260.0000 1.0000
58.8200 284.0000 1.0000
58.8300 258.0000 1.0000
58.8400 256.0000 1.0000
58.8500 255.0000 1.0000
58.8600 257.0000 1.0000
58.8700 285.0000 1.0000
58.8800 296.0000 1.0000
58.8900 282.0000 1.0000
58.9000 256.0000 1.0000
58.9100 270.0000 1.0000
58.9200 262.0000 1.0000
58.9300 272.0000 1.0000
58.9400 288.0000 1.0000
58.9500 288.0000 1.0000
58.9600 251.0000 1.0000
58.9700 266.0000 1.0000
58.9800 258.0000 1.0000
58.9900 259.0000 1.0000
59.0000 280.0000 1.0000
59.0100 292.0000 1.0000
59.0200 269.0000 1.0000
59.0300 266.0000 1.0000
59.0400 257.0000 1.0000
59.0500 280.0000 1.0000
59.0600 280.0000 1.0000
59.0700 282.0000 1.0000
59.0800 274.0000 1.0000
59.0900 283.0000 1.0000
59.1000 263.0000 1.0000
59.1100 284.0000 1.0000
59.1200 289.0000 1.0000
59.1300 269.0000 1.0000
59.1400 271.0000 1.0000
59.1500 263.0000 1.0000
59.1600 275.0000 1.0000
59.1700 286.0000 1.0000
59.1800 289.0000 1.0000
59.1900 320.0000 1.0000
59.2000 288.0000 1.0000
59.2100 294.0000 1.0000
59.2200 267.0000 1.0000
59.2300 265.0000 1.0000
59.2400 286.0000 1.0000
59.2500 282.0000 1.0000
59.2600 272.0000 1.0000
59.2700 287.0000 1.0000
59.2800 297.0000 1.0000
59.2900 273.0000 1.0000
59.3000 261.0000 1.0000
59.3100 278.0000 1.0000
59.3200 296.0000 1.0000
59.3300 272.0000 1.0000
59.3400 276.0000 1.0000
59.3500 315.0000 1.0000
59.3600 287.0000 1.0000
59.3700 271.0000 1.0000
59.3800 258.0000 1.0000
59.3900 269.0000 1.0000
59.4000 280.0000 1.0000
59.4100 278.0000 1.0000
59.4200 271.0000 1.0000
59.4300 272.0000 1.0000
59.4400 293.0000 1.0000
59.4500 283.0000 1.0000
59.4600 302.0000 1.0000
59.4700 247.0000 1.0000
59.4800 258.0000 1.0000
59.4900 276.0000 1.0000
59.5000 291.0000 1.0000
59.5100 297.0000 1.0000
59.5200 279.0000 1.0000
59.5300 286.0000 1.0000
59.5400 288.0000 1.0000
59.5500 255.0000 1.0000
59.5600 298.0000 1.0000
59.5700 291.0000 1.0000
59.5800 272.0000 1.0000
59.5900 294.0000 1.0000
59.6000 261.0000 1.0000
59.6100 260.0000 1.0000
59.6200 264.0000 1.0000
59.6300 257.0000 1.0000
59.6400 277.0000 1.0000
59.6500 272.0000 1.0000
59.6600 259.0000 1.0000
59.6700 257.0000 1.0000
59.6800 275.0000 1.0000
59.6900 287.0000 1.0000
59.7000 265.0000 1.0000
59.7100 291.0000 1.0000
59.7200 314.0000 1.0000
59.7300 284.0000 1.0000
59.7400 267.0000 1.0000
59.7500 269.0000 1.0000
59.7600 255.0000 1.0000
59.7700 274.0000 1.0000
59.7800 293.0000 1.0000
59.7900 271.0000 1.0000
59.8000 253.0000 1.0000
59.8100 237.0000 1.0000
59.8200 255.0000 1.0000
59.8300 252.0000 1.0000
59.8400 261.0000 1.0000
59.8500 261.0000 1.0000
59.8600 281.0000 1.0000
59.8700 293.0000 1.0000
59.8800 257.0000 1.0000
59.8900 296.0000 1.0000
59.9000 275.0000 1.0000
59.9100 276.0000 1.0000
59.9200 278.0000 1.0000
59.9300 259.0000 1.0000
59.9400 274.0000 1.0000
59.9500 296.0000 1.0000
59.9600 290.0000 1.0000
59.9700 275.0000 1.0000
59.9800 268.0000 1.0000
59.9900 281.0000 1.0000
60.0000 286.0000 1.0000
60.0100 276.0000 1.0000
60.0200 285.0000 1.0000
60.0300 249.0000 1.0000
60.0400 251.0000 1.0000
60.0500 251.0000 1.0000
60.0600 265.0000 1.0000
60.0700 262.0000 1.0000
60.0800 307.0000 1.0000
60.0900 276.0000 1.0000
60.1000 266.0000 1.0000
60.1100 254.0000 1.0000
60.1200 276.0000 1.0000
60.1300 284.0000 1.0000
60.1400 267.0000 1.0000
60.1500 294.0000 1.0000
60.1600 278.0000 1.0000
60.1700 285.0000 1.0000
60.1800 278.0000 1.0000
60.1900 246.0000 1.0000
60.2000 288.0000 1.0000
60.2100 301.0000 1.0000
60.2200 299.0000 1.0000
60.2300 285.0000 1.0000
60.2400 270.0000 1.0000
60.2500 310.0000 1.0000
60.2600 293.0000 1.0000
60.2700 296.0000 1.0000
60.2800 280.0000 1.0000
60.2900 308.0000 1.0000
60.3000 292.0000 1.0000
60.3100 255.0000 1.0000
60.3200 254.0000 1.0000
60.3300 276.0000 1.0000
60.3400 271.0000 1.0000
60.3500 269.0000 1.0000
60.3600 270.0000 1.0000
60.3700 285.0000 1.0000
60.3800 272.0000 1.0000
60.3900 293.0000 1.0000
60.4000 299.0000 1.0000
60.4100 297.0000 1.0000
60.4200 311.0000 1.0000
60.4300 274.0000 1.0000
60.4400 282.0000 1.0000
60.4500 280.0000 1.0000
60.4600 234.0000 1.0000
60.4700 274.0000 1.0000
60.4800 306.0000 1.0000
60.4900 275.0000 1.0000
60.5000 275.0000 1.0000
60.5100 276.0000 1.0000
60.5200 252.0000 1.0000
60.5300 280.0000 1.0000
60.5400 267.0000 1.0000
60.5500 272.0000 1.0000
60.5600 277.0000 1.0000
60.5700 269.0000 1.0000
60.5800 300.0000 1.0000
60.5900 310.0000 1.0000
60.6000 276.0000 1.0000
60.6100 260.0000 1.0000
60.6200 261.0000 1.0000
60.6300 270.0000 1.0000
60.6400 267.0000 1.0000
60.6500 296.0000 1.0000
60.6600 289.0000 1.0000
60.6700 307.0000 1.0000
60.6800 270.0000 1.0000
60.6900 278.0000 1.0000
60.7000 275.0000 1.0000
60.7100 279.0000 1.0000
60.7200 281.0000 1.0000
60.7300 284.0000 1.0000
60.7400 264.0000 1.0000
60.7500 283.0000 1.0000
60.7600 253.0000 1.0000
60.7700 257.0000 1.0000
60.7800 279.0000 1.0000
60.7900 280.0000 1.0000
60.8000 261.0000 1.0000
60.8100 273.0000 1.0000
60.8200 289.0000 1.0000
60.8300 278.0000 1.0000
60.8400 295.0000 1.0000
60.8500 245.0000 1.0000
60.8600 249.0000 1.0000
60.8700 266.0000 1.0000
60.8800 273.0000 1.0000
60.8900 255.0000 1.0000
60.9000 263.0000 1.0000
60.9100 289.0000 1.0000
60.9200 251.0000 1.0000
60.9300 284.0000 1.0000
60.9400 291.0000 1.0000
60.9500 290.0000 1.0000
60.9600 297.0000 1.0000
60.9700 288.0000 1.0000
60.9800 258.0000 1.0000
60.9900 280.0000 1.0000
61.0000 299.0000 1.0000
61.0100 308.0000 1.0000
61.0200 276.0000 1.0000
61.0300 294.0000 1.0000
61.0400 281.0000 1.0000
61.0500 332.0000 1.0000
61.0600 297.0000 1.0000
61.0700 297.0000 1.0000
61.0800 322.0000 1.0000
61.0900 309.0000 1.0000
61.1000 296.0000 1.0000
61.1100 272.0000 1.0000
61.1200 316.0000 1.0000
61.1300 311.0000 1.0000
61.1400 298.0000 1.0000
61.1500 302.0000 1.0000
61.1600 304.0000 1.0000
61.1700 298.0000 1.0000
61.1800 305.0000 1.0000
61.1900 331.0000 1.0000
61.2000 309.0000 1.0000
61.2100 343.0000 1.0000
61.2200 301.0000 1.0000
61.2300 321.0000 1.0000
61.2400 324.0000 1.0000
61.2500 344.0000 1.0000
61.2600 324.0000 1.0000
61.2700 383.0000 1.0000
61.2800 355.0000 1.0000
61.2900 376.0000 1.0000
61.3000 376.0000 1.0000
61.3100 385.0000 1.0000
61.3200 400.0000 1.0000
61.3300 421.0000 1.0000
61.3400 400.0000 1.0000
61.3500 399.0000 1.0000
61.3600 428.0000 1.0000
61.3700 412.0000 1.0000
61.3800 477.0000 1.0000
61.3900 453.0000 1.0000
61.4000 469.0000 1.0000
61.4100 518.0000 1.0000
61.4200 512.0000 1.0000
61.4300 493.0000 1.0000
61.4400 508.0000 1.0000
61.4500 557.0000 1.0000
61.4600 573.0000 1.0000
61.4700 575.0000 1.0000
61.4800 550.0000 1.0000
61.4900 616.0000 1.0000
61.5000 550.0000 1.0000
61.5100 575.0000 1.0000
61.5200 572.0000 1.0000
61.5300 620.0000 1.0000
61.5400 580.0000 1.0000
61.5500 578.0000 1.0000
61.5600 613.0000 1.0000
61.5700 589.0000 1.0000
61.5800 591.0000 1.0000
61.5900 587.0000 1.0000
61.6000 524.0000 1.0000
61.6100 583.0000 1.0000
61.6200 617.0000 1.0000
61.6300 586.0000 1.0000
61.6400 567.0000 1.0000
61.6500 533.0000 1.0000
61.6600 509.0000 1.0000
61.6700 521.0000 1.0000
61.6800 528.0000 1.0000
61.6900 509.0000 1.0000
61.7000 506.0000 1.0000
61.7100 501.0000 1.0000
61.7200 510.0000 1.0000
61.7300 457.0000 1.0000
61.7400 483.0000 1.0000
61.7500 451.0000 1.0000
61.7600 471.0000 1.0000
61.7700 471.0000 1.0000
61.7800 439.0000 1.0000
61.7900 430.0000 1.0000
61.8000 422.0000 1.0000
61.8100 424.0000 1.0000
61.8200 419.0000 1.0000
61.8300 441.0000 1.0000
61.8400 394.0000 1.0000
61.8500 356.0000 1.0000
61.8600 391.0000 1.0000
61.8700 394.0000 1.0000
61.8800 380.0000 1.0000
61.8900 326.0000 1.0000
61.9000 343.0000 1.0000
61.9100 366.0000 1.0000
61.9200 328.0000 1.0000
61.9300 327.0000 1.0000
61.9400 335.0000 1.0000
61.9500 342.0000 1.0000
61.9600 339.0000 1.0000
61.9700 343.0000 1.0000
61.9800 305.0000 1.0000
61.9900 334.0000 1.0000
62.0000 311.0000 1.0000
62.0100 331.0000 1.0000
62.0200 330.0000 1.0000
62.0300 343.0000 1.0000
62.0400 311.0000 1.0000
62.0500 327.0000 1.0000
62.0600 326.0000 1.0000
62.0700 327.0000 1.0000
62.0800 317.0000 1.0000
62.0900 331.0000 1.0000
62.1000 335.0000 1.0000
62.1100 303.0000 1.0000
62.1200 326.0000 1.0000
62.1300 298.0000 1.0000
62.1400 327.0000 1.0000
62.1500 319.0000 1.0000
62.1600 317.0000 1.0000
62.1700 291.0000 1.0000
62.1800 309.0000 1.0000
62.1900 293.0000 1.0000
62.2000 318.0000 1.0000
62.2100 313.0000 1.0000
62.2200 278.0000 1.0000
62.2300 295.0000 1.0000
62.2400 299.0000 1.0000
62.2500 324.0000 1.0000
62.2600 286.0000 1.0000
62.2700 311.0000 1.0000
62.2800 301.0000 1.0000
62.2900 294.0000 1.0000
62.3000 269.0000 1.0000
62.3100 291.0000 1.0000
62.3200 305.0000 1.0000
62.3300 323.0000 1.0000
62.3400 291.0000 1.0000
62.3500 314.0000 1.0000
62.3600 287.0000 1.0000
62.3700 284.0000 1.0000
62.3800 272.0000 1.0000
62.3900 312.0000 1.0000
62.4000 296.0000 1.0000
62.4100 305.0000 1.0000
62.4200 297.0000 1.0000
62.4300 302.0000 1.0000
62.4400 280.0000 1.0000
62.4500 279.0000 1.0000
62.4600 303.0000 1.0000
62.4700 288.0000 1.0000
62.4800 299.0000 1.0000
62.4900 286.0000 1.0000
62.5000 305.0000 1.0000
62.5100 310.0000 1.0000
62.5200 298.0000 1.0000
62.5300 295.0000 1.0000
62.5400 276.0000 1.0000
62.5500 291.0000 1.0000
62.5600 275.0000 1.0000
62.5700 290.0000 1.0000
62.5800 279.0000 1.0000
62.5900 310.0000 1.0000
62.6000 327.0000 1.0000
62.6100 284.0000 1.0000
62.6200 292.0000 1.0000
62.6300 280.0000 1.0000
62.6400 298.0000 1.0000
62.6500 302.0000 1.0000
62.6600 294.0000 1.0000
62.6700 291.0000 1.0000
62.6800 290.0000 1.0000
62.6900 295.0000 1.0000
62.7000 310.0000 1.0000
62.7100 287.0000 1.0000
62.7200 290.0000 1.0000
62.7300 309.0000 1.0000
62.7400 305.0000 1.0000
62.7500 284.0000 1.0000
62.7600 295.0000 1.0000
62.7700 296.0000 1.0000
62.7800 304.0000 1.0000
62.7900 286.0000 1.0000
62.8000 276.0000 1.0000
62.8100 299.0000 1.0000
62.8200 309.0000 1.0000
62.8300 294.0000 1.0000
62.8400 286.0000 1.0000
62.8500 281.0000 1.0000
62.8600 310.0000 1.0000
62.8700 308.0000 1.0000
62.8800 334.0000 1.0000
62.8900 328.0000 1.0000
62.9000 277.0000 1.0000
62.9100 299.0000 1.0000
62.9200 303.0000 1.0000
62.9300 296.0000 1.0000
62.9400 318.0000 1.0000
62.9500 304.0000 1.0000
62.9600 285.0000 1.0000
62.9700 317.0000 1.0000
62.9800 282.0000 1.0000
62.9900 310.0000 1.0000
63.0000 290.0000 1.0000
63.0100 327.0000 1.0000
63.0200 299.0000 1.0000
63.0300 289.0000 1.0000
63.0400 298.0000 1.0000
63.0500 305.0000 1.0000
63.0600 279.0000 1.0000
63.0700 294.0000 1.0000
63.0800 295.0000 1.0000
63.0900 299.0000 1.0000
63.1000 281.0000 1.0000
63.1100 274.0000 1.0000
63.1200 286.0000 1.0000
63.1300 309.0000 1.0000
63.1400 313.0000 1.0000
63.1500 309.0000 1.0000
63.1600 285.0000 1.0000
63.1700 284.0000 1.0000
63.1800 301.0000 1.0000
63.1900 304.0000 1.0000
63.2000 300.0000 1.0000
63.2100 310.0000 1.0000
63.2200 295.0000 1.0000
63.2300 295.0000 1.0000
63.2400 288.0000 1.0000
63.2500 295.0000 1.0000
63.2600 268.0000 1.0000
63.2700 299.0000 1.0000
63.2800 289.0000 1.0000
63.2900 287.0000 1.0000
63.3000 294.0000 1.0000
63.3100 276.0000 1.0000
63.3200 290.0000 1.0000
63.3300 318.0000 1.0000
63.3400 284.0000 1.0000
63.3500 279.0000 1.0000
63.3600 271.0000 1.0000
63.3700 288.0000 1.0000
63.3800 310.0000 1.0000
63.3900 283.0000 1.0000
63.4000 272.0000 1.0000
63.4100 284.0000 1.0000
63.4200 279.0000 1.0000
63.4300 294.0000 1.0000
63.4400 268.0000 1.0000
63.4500 268.0000 1.0000
63.4600 324.0000 1.0000
63.4700 275.0000 1.0000
63.4800 275.0000 1.0000
63.4900 303.0000 1.0000
63.5000 271.0000 1.0000
63.5100 274.0000 1.0000
63.5200 274.0000 1.0000
63.5300 294.0000 1.0000
63.5400 274.0000 1.0000
63.5500 313.0000 1.0000
63.5600 288.0000 1.0000
63.5700 277.0000 1.0000
63.5800 265.0000 1.0000
63.5900 293.0000 1.0000
63.6000 296.0000 1.0000
63.6100 291.0000 1.0000
63.6200 308.0000 1.0000
63.6300 289.0000 1.0000
63.6400 268.0000 1.0000
63.6500 279.0000 1.0000
63.6600 270.0000 1.0000
63.6700 277.0000 1.0000
63.6800 292.0000 1.0000
63.6900 315.0000 1.0000
63.7000 315.0000 1.0000
63.7100 324.0000 1.0000
63.7200 314.0000 1.0000
63.7300 310.0000 1.0000
63.7400 324.0000 1.0000
63.7500 318.0000 1.0000
63.7600 323.0000 1.0000
63.7700 322.0000 1.0000
63.7800 311.0000 1.0000
63.7900 327.0000 1.0000
63.8000 323.0000 1.0000
63.8100 332.0000 1.0000
63.8200 328.0000 1.0000
63.8300 326.0000 1.0000
63.8400 339.0000 1.0000
63.8500 315.0000 1.0000
63.8600 319.0000 1.0000
63.8700 331.0000 1.0000
63.8800 324.0000 1.0000
63.8900 327.0000 1.0000
63.9000 367.0000 1.0000
63.9100 323.0000 1.0000
63.9200 345.0000 1.0000
63.9300 357.0000 1.0000
63.9400 343.0000 1.0000
63.9500 352.0000 1.0000
63.9600 345.0000 1.0000
63.9700 322.0000 1.0000
63.9800 320.0000 1.0000
63.9900 334.0000 1.0000
64.0000 336.0000 1.0000
64.0100 381.0000 1.0000
64.0200 347.0000 1.0000
64.0300 358.0000 1.0000
64.0400 365.0000 1.0000
64.0500 341.0000 1.0000
64.0600 345.0000 1.0000
64.0700 315.0000 1.0000
64.0800 349.0000 1.0000
64.0900 347.0000 1.0000
64.1000 325.0000 1.0000
64.1100 301.0000 1.0000
64.1200 300.0000 1.0000
64.1300 337.0000 1.0000
64.1400 342.0000 1.0000
64.1500 304.0000 1.0000
64.1600 285.0000 1.0000
64.1700 340.0000 1.0000
64.1800 317.0000 1.0000
64.1900 321.0000 1.0000
64.2000 319.0000 1.0000
64.2100 338.0000 1.0000
64.2200 314.0000 1.0000
64.2300 320.0000 1.0000
64.2400 308.0000 1.0000
64.2500 312.0000 1.0000
64.2600 303.0000 1.0000
64.2700 319.0000 1.0000
64.2800 303.0000 1.0000
64.2900 298.0000 1.0000
64.3000 285.0000 1.0000
64.3100 320.0000 1.0000
64.3200 319.0000 1.0000
64.3300 321.0000 1.0000
64.3400 310.0000 1.0000
64.3500 298.0000 1.0000
64.3600 314.0000 1.0000
64.3700 314.0000 1.0000
64.3800 314.0000 1.0000
64.3900 310.0000 1.0000
64.4000 310.0000 1.0000
64.4100 306.0000 1.0000
64.4200 273.0000 1.0000
64.4300 291.0000 1.0000
64.4400 317.0000 1.0000
64.4500 299.0000 1.0000
64.4600 311.0000 1.0000
64.4700 304.0000 1.0000
64.4800 297.0000 1.0000
64.4900 296.0000 1.0000
64.5000 291.0000 1.0000
64.5100 308.0000 1.0000
64.5200 304.0000 1.0000
64.5300 300.0000 1.0000
64.5400 307.0000 1.0000
64.5500 275.0000 1.0000
64.5600 268.0000 1.0000
64.5700 287.0000 1.0000
64.5800 283.0000 1.0000
64.5900 291.0000 1.0000
64.6000 309.0000 1.0000
64.6100 300.0000 1.0000
64.6200 305.0000 1.0000
64.6300 293.0000 1.0000
64.6400 302.0000 1.0000
64.6500 279.0000 1.0000
64.6600 310.0000 1.0000
64.6700 290.0000 1.0000
64.6800 254.0000 1.0000
64.6900 288.0000 1.0000
64.7000 275.0000 1.0000
64.7100 282.0000 1.0000
64.7200 292.0000 1.0000
64.7300 299.0000 1.0000
64.7400 302.0000 1.0000
64.7500 308.0000 1.0000
64.7600 283.0000 1.0000
64.7700 280.0000 1.0000
64.7800 287.0000 1.0000
64.7900 289.0000 1.0000
64.8000 264.0000 1.0000
64.8100 264.0000 1.0000
64.8200 285.0000 1.0000
64.8300 302.0000 1.0000
64.8400 284.0000 1.0000
64.8500 302.0000 1.0000
64.8600 298.0000 1.0000
64.8700 294.0000 1.0000
64.8800 272.0000 1.0000
64.8900 332.0000 1.0000
64.9000 301.0000 1.0000
64.9100 312.0000 1.0000
64.9200 294.0000 1.0000
64.9300 285.0000 1.0000
64.9400 285.0000 1.0000
64.9500 304.0000 1.0000
64.9600 285.0000 1.0000
64.9700 299.0000 1.0000
64.9800 283.0000 1.0000
64.9900 281.0000 1.0000
65.0000 307.0000 1.0000
65.0100 327.0000 1.0000
65.0200 329.0000 1.0000
65.0300 323.0000 1.0000
65.0400 300.0000 1.0000
65.0500 326.0000 1.0000
65.0600 335.0000 1.0000
65.0700 314.0000 1.0000
65.0800 337.0000 1.0000
65.0900 324.0000 1.0000
65.1000 331.0000 1.0000
65.1100 295.0000 1.0000
65.1200 346.0000 1.0000
65.1300 337.0000 1.0000
65.1400 331.0000 1.0000
65.1500 345.0000 1.0000
65.1600 372.0000 1.0000
65.1700 358.0000 1.0000
65.1800 358.0000 1.0000
65.1900 373.0000 1.0000
65.2000 348.0000 1.0000
65.2100 356.0000 1.0000
65.2200 368.0000 1.0000
65.2300 398.0000 1.0000
65.2400 371.0000 1.0000
65.2500 373.0000 1.0000
65.2600 428.0000 1.0000
65.2700 422.0000 1.0000
65.2800 445.0000 1.0000
65.2900 456.0000 1.0000
65.3000 447.0000 1.0000
65.3100 439.0000 1.0000
65.3200 442.0000 1.0000
65.3300 505.0000 1.0000
65.3400 509.0000 1.0000
65.3500 524.0000 1.0000
65.3600 551.0000 1.0000
65.3700 578.0000 1.0000
65.3800 606.0000 1.0000
65.3900 571.0000 1.0000
65.4000 655.0000 1.0000
65.4100 669.0000 1.0000
65.4200 691.0000 1.0000
65.4300 728.0000 1.0000
65.4400 774.0000 1.0000
65.4500 801.0000 1.0000
65.4600 797.0000 1.0000
65.4700 825.0000 1.0000
65.4800 887.0000 1.0000
65.4900 942.0000 1.0000
65.5000 958.0000 1.0000
65.5100 976.0000 1.0000
65.5200 986.0000 1.0000
65.5300 1059.0000 1.0000
65.5400 1066.0000 1.0000
65.5500 997.0000 1.0000
65.5600 1051.0000 1.0000
65.5700 1027.0000 1.0000
65.5800 988.0000 1.0000
65.5900 986.0000 1.0000
65.6000 959.0000 1.0000
65.6100 932.0000 1.0000
65.6200 910.0000 1.0000
65.6300 865.0000 1.0000
65.6400 930.0000 1.0000
65.6500 849.0000 1.0000
65.6600 835.0000 1.0000
65.6700 831.0000 1.0000
65.6800 848.0000 1.0000
65.6900 812.0000 1.0000
65.7000 769.0000 1.0000
65.7100 767.0000 1.0000
65.7200 788.0000 1.0000
65.7300 766.0000 1.0000
65.7400 756.0000 1.0000
65.7500 698.0000 1.0000
65.7600 674.0000 1.0000
65.7700 649.0000 1.0000
65.7800 631.0000 1.0000
65.7900 617.0000 1.0000
65.8000 578.0000 1.0000
65.8100 550.0000 1.0000
65.8200 537.0000 1.0000
65.8300 473.0000 1.0000
65.8400 516.0000 1.0000
65.8500 499.0000 1.0000
65.8600 476.0000 1.0000
65.8700 490.0000 1.0000
65.8800 448.0000 1.0000
65.8900 414.0000 1.0000
65.9000 405.0000 1.0000
65.9100 434.0000 1.0000
65.9200 417.0000 1.0000
65.9300 404.0000 1.0000
65.9400 406.0000 1.0000
65.9500 379.0000 1.0000
65.9600 366.0000 1.0000
65.9700 329.0000 1.0000
65.9800 357.0000 1.0000
65.9900 341.0000 1.0000
66.0000 345.0000 1.0000
66.0100 326.0000 1.0000
66.0200 330.0000 1.0000
66.0300 341.0000 1.0000
66.0400 288.0000 1.0000
66.0500 298.0000 1.0000
66.0600 288.0000 1.0000
66.0700 322.0000 1.0000
66.0800 327.0000 1.0000
66.0900 327.0000 1.0000
66.1000 303.0000 1.0000
66.1100 298.0000 1.0000
66.1200 310.0000 1.0000
66.1300 313.0000 1.0000
66.1400 300.0000 1.0000
66.1500 290.0000 1.0000
66.1600 286.0000 1.0000
66.1700 269.0000 1.0000
66.1800 300.0000 1.0000
66.1900 286.0000 1.0000
66.2000 306.0000 1.0000
66.2100 292.0000 1.0000
66.2200 265.0000 1.0000
66.2300 283.0000 1.0000
66.2400 309.0000 1.0000
66.2500 273.0000 1.0000
66.2600 284.0000 1.0000
66.2700 292.0000 1.0000
66.2800 270.0000 1.0000
66.2900 263.0000 1.0000
66.3000 264.0000 1.0000
66.3100 257.0000 1.0000
66.3200 262.0000 1.0000
66.3300 247.0000 1.0000
66.3400 265.0000 1.0000
66.3500 274.0000 1.0000
66.3600 267.0000 1.0000
66.3700 279.0000 1.0000
66.3800 283.0000 1.0000
66.3900 261.0000 1.0000
66.4000 263.0000 1.0000
66.4100 246.0000 1.0000
66.4200 251.0000 1.0000
66.4300 250.0000 1.0000
66.4400 273.0000 1.0000
66.4500 266.0000 1.0000
66.4600 267.0000 1.0000
66.4700 280.0000 1.0000
66.4800 315.0000 1.0000
66.4900 262.0000 1.0000
66.5000 258.0000 1.0000
66.5100 255.0000 1.0000
66.5200 248.0000 1.0000
66.5300 296.0000 1.0000
66.5400 266.0000 1.0000
66.5500 267.0000 1.0000
66.5600 276.0000 1.0000
66.5700 267.0000 1.0000
66.5800 274.0000 1.0000
66.5900 275.0000 1.0000
66.6000 247.0000 1.0000
66.6100 264.0000 1.0000
66.6200 272.0000 1.0000
66.6300 252.0000 1.0000
66.6400 272.0000 1.0000
66.6500 270.0000 1.0000
66.6600 233.0000 1.0000
66.6700 265.0000 1.0000
66.6800 263.0000 1.0000
66.6900 263.0000 1.0000
66.7000 231.0000 1.0000
66.7100 252.0000 1.0000
66.7200 255.0000 1.0000
66.7300 253.0000 1.0000
66.7400 248.0000 1.0000
66.7500 261.0000 1.0000
66.7600 276.0000 1.0000
66.7700 253.0000 1.0000
66.7800 247.0000 1.0000
66.7900 247.0000 1.0000
66.8000 258.0000 1.0000
66.8100 267.0000 1.0000
66.8200 250.0000 1.0000
66.8300 235.0000 1.0000
66.8400 243.0000 1.0000
66.8500 276.0000 1.0000
66.8600 255.0000 1.0000
66.8700 237.0000 1.0000
66.8800 242.0000 1.0000
66.8900 236.0000 1.0000
66.9000 253.0000 1.0000
66.9100 262.0000 1.0000
66.9200 256.0000 1.0000
66.9300 274.0000 1.0000
66.9400 255.0000 1.0000
66.9500 238.0000 1.0000
66.9600 272.0000 1.0000
66.9700 243.0000 1.0000
66.9800 251.0000 1.0000
66.9900 255.0000 1.0000
67.0000 244.0000 1.0000
67.0100 226.0000 1.0000
67.0200 246.0000 1.0000
67.0300 280.0000 1.0000
67.0400 257.0000 1.0000
67.0500 219.0000 1.0000
67.0600 276.0000 1.0000
67.0700 239.0000 1.0000
67.0800 269.0000 1.0000
67.0900 239.0000 1.0000
67.1000 238.0000 1.0000
67.1100 238.0000 1.0000
67.1200 262.0000 1.0000
67.1300 264.0000 1.0000
67.1400 220.0000 1.0000
67.1500 248.0000 1.0000
67.1600 261.0000 1.0000
67.1700 255.0000 1.0000
67.1800 274.0000 1.0000
67.1900 269.0000 1.0000
67.2000 256.0000 1.0000
67.2100 254.0000 1.0000
67.2200 236.0000 1.0000
67.2300 247.0000 1.0000
67.2400 242.0000 1.0000
67.2500 258.0000 1.0000
67.2600 264.0000 1.0000
67.2700 256.0000 1.0000
67.2800 251.0000 1.0000
67.2900 240.0000 1.0000
67.3000 234.0000 1.0000
67.3100 240.0000 1.0000
67.3200 252.0000 1.0000
67.3300 237.0000 1.0000
67.3400 222.0000 1.0000
67.3500 255.0000 1.0000
67.3600 259.0000 1.0000
67.3700 263.0000 1.0000
67.3800 228.0000 1.0000
67.3900 250.0000 1.0000
67.4000 250.0000 1.0000
67.4100 285.0000 1.0000
67.4200 237.0000 1.0000
67.4300 245.0000 1.0000
67.4400 228.0000 1.0000
67.4500 238.0000 1.0000
67.4600 273.0000 1.0000
67.4700 232.0000 1.0000
67.4800 249.0000 1.0000
67.4900 215.0000 1.0000
67.5000 240.0000 1.0000
67.5100 266.0000 1.0000
67.5200 266.0000 1.0000
67.5300 258.0000 1.0000
67.5400 234.0000 1.0000
67.5500 252.0000 1.0000
67.5600 234.0000 1.0000
67.5700 246.0000 1.0000
67.5800 245.0000 1.0000
67.5900 262.0000 1.0000
67.6000 255.0000 1.0000
67.6100 254.0000 1.0000
67.6200 263.0000 1.0000
67.6300 249.0000 1.0000
67.6400 260.0000 1.0000
67.6500 260.0000 1.0000
67.6600 244.0000 1.0000
67.6700 253.0000 1.0000
67.6800 258.0000 1.0000
67.6900 248.0000 1.0000
67.7000 230.0000 1.0000
67.7100 251.0000 1.0000
67.7200 225.0000 1.0000
67.7300 239.0000 1.0000
67.7400 259.0000 1.0000
67.7500 253.0000 1.0000
67.7600 246.0000 1.0000
67.7700 249.0000 1.0000
67.7800 238.0000 1.0000
67.7900 244.0000 1.0000
67.8000 240.0000 1.0000
67.8100 252.0000 1.0000
67.8200 229.0000 1.0000
67.8300 245.0000 1.0000
67.8400 256.0000 1.0000
67.8500 241.0000 1.0000
67.8600 278.0000 1.0000
67.8700 242.0000 1.0000
67.8800 235.0000 1.0000
67.8900 250.0000 1.0000
67.9000 263.0000 1.0000
67.9100 244.0000 1.0000
67.9200 246.0000 1.0000
67.9300 257.0000 1.0000
67.9400 255.0000 1.0000
67.9500 247.0000 1.0000
67.9600 252.0000 1.0000
67.9700 243.0000 1.0000
67.9800 261.0000 1.0000
67.9900 273.0000 1.0000
68.0000 248.0000 1.0000
68.0100 250.0000 1.0000
68.0200 260.0000 1.0000
68.0300 219.0000 1.0000
68.0400 240.0000 1.0000
68.0500 270.0000 1.0000
68.0600 235.0000 1.0000
68.0700 247.0000 1.0000
68.0800 252.0000 1.0000
68.0900 228.0000 1.0000
68.1000 266.0000 1.0000
68.1100 264.0000 1.0000
68.1200 250.0000 1.0000
68.1300 251.0000 1.0000
68.1400 246.0000 1.0000
68.1500 237.0000 1.0000
68.1600 250.0000 1.0000
68.1700 240.0000 1.0000
68.1800 239.0000 1.0000
68.1900 234.0000 1.0000
68.2000 253.0000 1.0000
68.2100 258.0000 1.0000
68.2200 242.0000 1.0000
68.2300 234.0000 1.0000
68.2400 239.0000 1.0000
68.2500 239.0000 1.0000
68.2600 231.0000 1.0000
68.2700 267.0000 1.0000
68.2800 256.0000 1.0000
68.2900 255.0000 1.0000
68.3000 249.0000 1.0000
68.3100 251.0000 1.0000
68.3200 266.0000 1.0000
68.3300 250.0000 1.0000
68.3400 233.0000 1.0000
68.3500 257.0000 1.0000
68.3600 248.0000 1.0000
68.3700 240.0000 1.0000
68.3800 246.0000 1.0000
68.3900 238.0000 1.0000
68.4000 229.0000 1.0000
68.4100 232.0000 1.0000
68.4200 237.0000 1.0000
68.4300 248.0000 1.0000
68.4400 265.0000 1.0000
68.4500 238.0000 1.0000
68.4600 241.0000 1.0000
68.4700 233.0000 1.0000
68.4800 216.0000 1.0000
68.4900 224.0000 1.0000
68.5000 251.0000 1.0000
68.5100 244.0000 1.0000
68.5200 237.0000 1.0000
68.5300 244.0000 1.0000
68.5400 232.0000 1.0000
68.5500 225.0000 1.0000
68.5600 222.0000 1.0000
68.5700 248.0000 1.0000
68.5800 240.0000 1.0000
68.5900 236.0000 1.0000
68.6000 251.0000 1.0000
68.6100 242.0000 1.0000
68.6200 244.0000 1.0000
68.6300 273.0000 1.0000
68.6400 276.0000 1.0000
68.6500 259.0000 1.0000
68.6600 251.0000 1.0000
68.6700 266.0000 1.0000
68.6800 233.0000 1.0000
68.6900 236.0000 1.0000
68.7000 254.0000 1.0000
68.7100 210.0000 1.0000
68.7200 237.0000 1.0000
68.7300 231.0000 1.0000
68.7400 260.0000 1.0000
68.7500 239.0000 1.0000
68.7600 241.0000 1.0000
68.7700 248.0000 1.0000
68.7800 268.0000 1.0000
68.7900 270.0000 1.0000
68.8000 257.0000 1.0000
68.8100 219.0000 1.0000
68.8200 273.0000 1.0000
68.8300 255.0000 1.0000
68.8400 238.0000 1.0000
68.8500 238.0000 1.0000
68.8600 251.0000 1.0000
68.8700 237.0000 1.0000
68.8800 225.0000 1.0000
68.8900 239.0000 1.0000
68.9000 238.0000 1.0000
68.9100 240.0000 1.0000
68.9200 230.0000 1.0000
68.9300 266.0000 1.0000
68.9400 260.0000 1.0000
68.9500 221.0000 1.0000
68.9600 227.0000 1.0000
68.9700 249.0000 1.0000
68.9800 246.0000 1.0000
68.9900 236.0000 1.0000
69.0000 251.0000 1.0000
69.0100 275.0000 1.0000
69.0200 223.0000 1.0000
69.0300 221.0000 1.0000
69.0400 256.0000 1.0000
69.0500 250.0000 1.0000
69.0600 238.0000 1.0000
69.0700 218.0000 1.0000
69.0800 254.0000 1.0000
69.0900 220.0000 1.0000
69.1000 267.0000 1.0000
69.1100 231.0000 1.0000
69.1200 237.0000 1.0000
69.1300 246.0000 1.0000
69.1400 240.0000 1.0000
69.1500 240.0000 1.0000
69.1600 243.0000 1.0000
69.1700 240.0000 1.0000
69.1800 252.0000 1.0000
69.1900 233.0000 1.0000
69.2000 232.0000 1.0000
69.2100 277.0000 1.0000
69.2200 257.0000 1.0000
69.2300 232.0000 1.0000
69.2400 233.0000 1.0000
69.2500 227.0000 1.0000
69.2600 217.0000 1.0000
69.2700 218.0000 1.0000
69.2800 248.0000 1.0000
69.2900 237.0000 1.0000
69.3000 229.0000 1.0000
69.3100 247.0000 1.0000
69.3200 248.0000 1.0000
69.3300 244.0000 1.0000
69.3400 225.0000 1.0000
69.3500 269.0000 1.0000
69.3600 241.0000 1.0000
69.3700 231.0000 1.0000
69.3800 257.0000 1.0000
69.3900 259.0000 1.0000
69.4000 233.0000 1.0000
69.4100 234.0000 1.0000
69.4200 239.0000 1.0000
69.4300 214.0000 1.0000
69.4400 249.0000 1.0000
69.4500 228.0000 1.0000
69.4600 239.0000 1.0000
69.4700 206.0000 1.0000
69.4800 228.0000 1.0000
69.4900 256.0000 1.0000
69.5000 206.0000 1.0000
69.5100 240.0000 1.0000
69.5200 235.0000 1.0000
69.5300 243.0000 1.0000
69.5400 257.0000 1.0000
69.5500 240.0000 1.0000
69.5600 220.0000 1.0000
69.5700 220.0000 1.0000
69.5800 222.0000 1.0000
69.5900 258.0000 1.0000
69.6000 226.0000 1.0000
69.6100 217.0000 1.0000
69.6200 243.0000 1.0000
69.6300 233.0000 1.0000
69.6400 225.0000 1.0000
69.6500 235.0000 1.0000
69.6600 247.0000 1.0000
69.6700 243.0000 1.0000
69.6800 222.0000 1.0000
69.6900 214.0000 1.0000
69.7000 220.0000 1.0000
69.7100 245.0000 1.0000
69.7200 237.0000 1.0000
69.7300 243.0000 1.0000
69.7400 242.0000 1.0000
69.7500 238.0000 1.0000
69.7600 247.0000 1.0000
69.7700 239.0000 1.0000
69.7800 245.0000 1.0000
69.7900 252.0000 1.0000
69.8000 214.0000 1.0000
69.8100 232.0000 1.0000
69.8200 236.0000 1.0000
69.8300 212.0000 1.0000
69.8400 219.0000 1.0000
69.8500 230.0000 1.0000
69.8600 250.0000 1.0000
69.8700 271.0000 1.0000
69.8800 243.0000 1.0000
69.8900 230.0000 1.0000
69.9000 231.0000 1.0000
69.9100 218.0000 1.0000
69.9200 228.0000 1.0000
69.9300 241.0000 1.0000
69.9400 232.0000 1.0000
69.9500 254.0000 1.0000
69.9600 228.0000 1.0000
69.9700 243.0000 1.0000
69.9800 248.0000 1.0000
69.9900 215.0000 1.0000
70.0000 224.0000 1.0000
*RAS_INT_END
*RAS_TEMPERATURE_START
*RAS_TEMPERATURE_END
*RAS_DATA_END
