*RAS_DATA_START
*RAS_HEADER_START
*DISP_FMT_X "%.2f"
*DISP_FMT_Y "%.0f"
*DISP_FULLSCALE "14415.0000000000"
*DISP_LINE_COLOR "255.0000000000"
*DISP_LINE_STYLE "0.0000000000"
*DISP_LINE_WIDTH "0.2500000000"
*DISP_NOTE "測定データ-1"
*DISP_OFFSET_Y "0.0000000000"
*DISP_PEAKSEARCH_UNIT_Y "cps"
*DISP_RANGE_BOTTOM "0.0000000000"
*DISP_RANGE_LEFT "20.0000000000"
*DISP_RANGE_LOGCUTOFF "0.0100000000"
*DISP_RANGE_RIGHT "70.0000000000"
*DISP_RANGE_TOP "14415.0000000000"
*DISP_SCALE_MODE_Y "0.0000000000"
*DISP_TAB_NAME "2θ/θ"
*DISP_TITLE_Y "強度"
*DISP_UNIT_Y "cps"
*DISP_WINDOW_NAME "MSG_MACROENGINE"
*FILE_COMMENT " "
*FILE_MD5 ""
*FILE_MEMO " "
*FILE_OPERATOR "Administrator"
*FILE_SAMPLE " "
*FILE_TYPE "RAS_RAW"
*FILE_USERGROUP "システムマネージャ"
*FILE_VERSION "1.0000000000"
*HW_ATTACHMENT_ID "ATT0025"
*HW_ATTACHMENT_NAME "標準|Standard"
*HW_COUNTER_ID-0 "CUT0025"
*HW_COUNTER_ID-1 "CUT0020"
*HW_COUNTER_ID-2 "CUT0020"
*HW_COUNTER_ID-3 "CSL0021"
*HW_COUNTER_ID-4 "CMC0021"
*HW_COUNTER_NAME-0 "D/teX Ultra|D/teX Ultra"
*HW_COUNTER_NAME-1 "None|None"
*HW_COUNTER_NAME-2 "None|None"
*HW_COUNTER_NAME-3 "BBM|BBM"
*HW_COUNTER_NAME-4 "検出器モノクロメータ|Detector monochromator"
*HW_COUNTER_SELECT_NAME "D/teX Ultra|D/teX Ultra"
*HW_GONIOMETER_ID "GON0023"
*HW_GONIOMETER_NAME "SmartLab|SmartLab"
*HW_GONIOMETER_RADIUS-0 "90.0"
*HW_GONIOMETER_RADIUS-1 "114.0"
*HW_GONIOMETER_RADIUS-2 "190.0"
*HW_GONIOMETER_RADIUS-3 "300.0"
*HW_GONIOMETER_RADIUS-4 "187.0"
*HW_GONIOMETER_RADIUS-5 "300.0"
*HW_GONIOMETER_RADIUS-6 "113.0"
*HW_GONIOMETER_RADIUS-7 "331.0"
*HW_I_OPT_ID-0 "CBO0021"
*HW_I_OPT_ID-1 "ICR0023"
*HW_I_OPT_ID-2 "ISL0021"
*HW_I_OPT_ID-3 "ISO0021"
*HW_I_OPT_ID-4 "IAD0021"
*HW_I_OPT_ID-5 "IPR0001"
*HW_I_OPT_NAME-0 "CBOユニット|CBO unit"
*HW_I_OPT_NAME-1 "標準入射光学ユニット|Standard incident optical unit"
*HW_I_OPT_NAME-2 "標準入射スリットボックス|Standard incident slit box"
*HW_I_OPT_NAME-3 "入射平行スリット|Incident parallel slit"
*HW_I_OPT_NAME-4 "長手制限スリット|Length limiting slit"
*HW_I_OPT_NAME-5 "None|None"
*HW_R_ATTENUATER_AUTOMODE "0"
*HW_R_OPT_ID-0 "RSS0021"
*HW_R_OPT_ID-1 "RCR0023"
*HW_R_OPT_ID-2 "RSO0021"
*HW_R_OPT_ID-3 "RRS0021"
*HW_R_OPT_ID-4 "ATN0021"
*HW_R_OPT_ID-5 "RFL0021"
*HW_R_OPT_ID-6 "RAD0021"
*HW_R_OPT_NAME-0 "標準受光スリットボックス1|Standard receiving slit box # 1"
*HW_R_OPT_NAME-1 "標準受光光学ユニット1|Standard receiving unit # 1"
*HW_R_OPT_NAME-2 "標準受光光学ユニット2|Standard receiving optical unit # 2"
*HW_R_OPT_NAME-3 "標準受光スリットボックス2|Standard receiving slit box # 2"
*HW_R_OPT_NAME-4 "標準アッテネータ|Standard Attenuator"
*HW_R_OPT_NAME-5 "Cu Kβ|Cu K-beta"
*HW_R_OPT_NAME-6 "調整用受光スリット|Alignment receiving slit"
*HW_SAMPLE_HOLDER_ID "SMP0023"
*HW_SAMPLE_HOLDER_NAME "標準Zステージ|Standard Z stage"
*HW_XG_CURRENT_MAX "50"
*HW_XG_CURRENT_MIN "2"
*HW_XG_CURRENT_RESOLUTION "1"
*HW_XG_CURRENT_UNIT "mA"
*HW_XG_FOCUS "1mm x 10mm"
*HW_XG_FOCUS_TYPE "Normal"
*HW_XG_ID ""
*HW_XG_NAME "3kW 封入管(ID:1200)|3kW Sealed tube(ID:1200)"
*HW_XG_TARGET_ATOMIC_NUMBER "29.0000000000"
*HW_XG_TARGET_NAME "Cu"
*HW_XG_TYPE "Hermetic"
*HW_XG_VOLTAGE_MAX "60"
*HW_XG_VOLTAGE_MIN "20"
*HW_XG_VOLTAGE_RESOLUTION "1"
*HW_XG_VOLTAGE_UNIT "kV"
*HW_XG_WATT_MAX "1.500"
*HW_XG_WATT_UNIT "kW"
*HW_XG_WAVE_LENGTH_ALPHA1 "1.540593"
*HW_XG_WAVE_LENGTH_ALPHA2 "1.544414"
*HW_XG_WAVE_LENGTH_BETA "1.392250"
*MEAS_COND_AXIS_NAME-0 "2θ/θ"
*MEAS_COND_AXIS_NAME-1 "2θ"
*MEAS_COND_AXIS_NAME-2 "ω"
*MEAS_COND_AXIS_NAME-3 "Z"
*MEAS_COND_AXIS_NAME-4 "2θ/ω"
*MEAS_COND_AXIS_NAME-5 "θs"
*MEAS_COND_AXIS_NAME-6 "θd"
*MEAS_COND_AXIS_NAME-7 "Ts"
*MEAS_COND_AXIS_NAME-8 "CBO選択スリット"
*MEAS_COND_AXIS_NAME-9 "M"
*MEAS_COND_AXIS_NAME-10 "入射平行スリット"
*MEAS_COND_AXIS_NAME-11 "入射スリット"
*MEAS_COND_AXIS_NAME-12 ""
*MEAS_COND_AXIS_NAME-13 "Zs"
*MEAS_COND_AXIS_NAME-14 "入射光学素子"
*MEAS_COND_AXIS_NAME-15 "長手制限スリット"
*MEAS_COND_AXIS_NAME-16 "センタースリット"
*MEAS_COND_AXIS_NAME-17 "フィルター"
*MEAS_COND_AXIS_NAME-18 "受光スリット1"
*MEAS_COND_AXIS_NAME-19 "受光スリット2"
*MEAS_COND_AXIS_NAME-20 "受光光学素子"
*MEAS_COND_AXIS_NAME-21 "受光平行スリット"
*MEAS_COND_AXIS_NAME-22 "調整用受光スリット"
*MEAS_COND_AXIS_NAME-23 ""
*MEAS_COND_AXIS_NAME-24 ""
*MEAS_COND_AXIS_NAME-25 "Zd"
*MEAS_COND_AXIS_NAME-26 "アッテネータ"
*MEAS_COND_AXIS_NAME-27 "検出器モノクロメータ"
*MEAS_COND_AXIS_NAME-28 "モノクロメータスリット"
*MEAS_COND_AXIS_NAME-29 "プライマリビーム"
*MEAS_COND_AXIS_NAME-30 "PHA"
*MEAS_COND_AXIS_NAME_INTERNAL-0 "TwoThetaTheta"
*MEAS_COND_AXIS_NAME_INTERNAL-1 "TwoTheta"
*MEAS_COND_AXIS_NAME_INTERNAL-2 "Omega"
*MEAS_COND_AXIS_NAME_INTERNAL-3 "Z"
*MEAS_COND_AXIS_NAME_INTERNAL-4 "TwoThetaOmega"
*MEAS_COND_AXIS_NAME_INTERNAL-5 "ThetaS"
*MEAS_COND_AXIS_NAME_INTERNAL-6 "ThetaD"
*MEAS_COND_AXIS_NAME_INTERNAL-7 "Ts"
*MEAS_COND_AXIS_NAME_INTERNAL-8 "CBO"
*MEAS_COND_AXIS_NAME_INTERNAL-9 "CBO-M"
*MEAS_COND_AXIS_NAME_INTERNAL-10 "IncidentSollerSlit"
*MEAS_COND_AXIS_NAME_INTERNAL-11 "IncidentSlitBox"
*MEAS_COND_AXIS_NAME_INTERNAL-12 "IncidentSlitBox-_Axis"
*MEAS_COND_AXIS_NAME_INTERNAL-13 "Zs"
*MEAS_COND_AXIS_NAME_INTERNAL-14 "IncidentMonochromator"
*MEAS_COND_AXIS_NAME_INTERNAL-15 "IncidentAxdSlit"
*MEAS_COND_AXIS_NAME_INTERNAL-16 "CenterSlit"
*MEAS_COND_AXIS_NAME_INTERNAL-17 "Filter"
*MEAS_COND_AXIS_NAME_INTERNAL-18 "ReceivingSlitBox1"
*MEAS_COND_AXIS_NAME_INTERNAL-19 "ReceivingSlitBox2"
*MEAS_COND_AXIS_NAME_INTERNAL-20 "ReceivingOptics"
*MEAS_COND_AXIS_NAME_INTERNAL-21 "ReceivingSollerSlit"
*MEAS_COND_AXIS_NAME_INTERNAL-22 "ReceivingAxdSlit"
*MEAS_COND_AXIS_NAME_INTERNAL-23 "ReceivingSlitBox1-_Axis"
*MEAS_COND_AXIS_NAME_INTERNAL-24 "ReceivingSlitBox2-_Axis"
*MEAS_COND_AXIS_NAME_INTERNAL-25 "ReceivingSlitBox2-Zd"
*MEAS_COND_AXIS_NAME_INTERNAL-26 "Attenuator"
*MEAS_COND_AXIS_NAME_INTERNAL-27 "CounterMonochromator"
*MEAS_COND_AXIS_NAME_INTERNAL-28 "CounterSlit"
*MEAS_COND_AXIS_NAME_INTERNAL-29 "IncidentPrimary"
*MEAS_COND_AXIS_NAME_INTERNAL-30 "PHA"
*MEAS_COND_AXIS_NAME_MAGICNO-0 "83951616.0000000000"
*MEAS_COND_AXIS_NAME_MAGICNO-1 "268632064.0000000000"
*MEAS_COND_AXIS_NAME_MAGICNO-2 "268500992.0000000000"
*MEAS_COND_AXIS_NAME_MAGICNO-3 "285278208.0000000000"
*MEAS_COND_AXIS_NAME_MAGICNO-4 "83951616.0000000000"
*MEAS_COND_AXIS_NAME_MAGICNO-5 "131072.0000000000"
*MEAS_COND_AXIS_NAME_MAGICNO-6 "131072.0000000000"
*MEAS_COND_AXIS_NAME_MAGICNO-7 "318898176.0000000000"
*MEAS_COND_AXIS_NAME_MAGICNO-8 "20971521.0000000000"
*MEAS_COND_AXIS_NAME_MAGICNO-9 "285343744.0000000000"
*MEAS_COND_AXIS_NAME_MAGICNO-10 "20971521.0000000000"
*MEAS_COND_AXIS_NAME_MAGICNO-11 "22020097.0000000000"
*MEAS_COND_AXIS_NAME_MAGICNO-12 "25165824.0000000000"
*MEAS_COND_AXIS_NAME_MAGICNO-13 "318898176.0000000000"
*MEAS_COND_AXIS_NAME_MAGICNO-14 "1.0000000000"
*MEAS_COND_AXIS_NAME_MAGICNO-15 "20971521.0000000000"
*MEAS_COND_AXIS_NAME_MAGICNO-16 "20971521.0000000000"
*MEAS_COND_AXIS_NAME_MAGICNO-17 "20971521.0000000000"
*MEAS_COND_AXIS_NAME_MAGICNO-18 "23068673.0000000000"
*MEAS_COND_AXIS_NAME_MAGICNO-19 "23068673.0000000000"
*MEAS_COND_AXIS_NAME_MAGICNO-20 "20971521.0000000000"
*MEAS_COND_AXIS_NAME_MAGICNO-21 "20971521.0000000000"
*MEAS_COND_AXIS_NAME_MAGICNO-22 "20971521.0000000000"
*MEAS_COND_AXIS_NAME_MAGICNO-23 "25165824.0000000000"
*MEAS_COND_AXIS_NAME_MAGICNO-24 "25165824.0000000000"
*MEAS_COND_AXIS_NAME_MAGICNO-25 "285343744.0000000000"
*MEAS_COND_AXIS_NAME_MAGICNO-26 "17301505.0000000000"
*MEAS_COND_AXIS_NAME_MAGICNO-27 "20971521.0000000000"
*MEAS_COND_AXIS_NAME_MAGICNO-28 "20971521.0000000000"
*MEAS_COND_AXIS_NAME_MAGICNO-29 "20971521.0000000000"
*MEAS_COND_AXIS_NAME_MAGICNO-30 "0.0000000000"
*MEAS_COND_AXIS_OFFSET-0 "-"
*MEAS_COND_AXIS_OFFSET-1 "-0.0310000000"
*MEAS_COND_AXIS_OFFSET-2 "0.3978000000"
*MEAS_COND_AXIS_OFFSET-3 "-"
*MEAS_COND_AXIS_OFFSET-4 "-"
*MEAS_COND_AXIS_OFFSET-5 "0.3978000000"
*MEAS_COND_AXIS_OFFSET-6 "-0.4288000000"
*MEAS_COND_AXIS_OFFSET-7 "-"
*MEAS_COND_AXIS_OFFSET-8 "-"
*MEAS_COND_AXIS_OFFSET-9 "-"
*MEAS_COND_AXIS_OFFSET-10 "-"
*MEAS_COND_AXIS_OFFSET-11 "-"
*MEAS_COND_AXIS_OFFSET-12 "-"
*MEAS_COND_AXIS_OFFSET-13 "-"
*MEAS_COND_AXIS_OFFSET-14 "-"
*MEAS_COND_AXIS_OFFSET-15 "-"
*MEAS_COND_AXIS_OFFSET-16 "-"
*MEAS_COND_AXIS_OFFSET-17 "-"
*MEAS_COND_AXIS_OFFSET-18 "-"
*MEAS_COND_AXIS_OFFSET-19 "-"
*MEAS_COND_AXIS_OFFSET-20 "-"
*MEAS_COND_AXIS_OFFSET-21 "-"
*MEAS_COND_AXIS_OFFSET-22 "-"
*MEAS_COND_AXIS_OFFSET-23 "-"
*MEAS_COND_AXIS_OFFSET-24 "-"
*MEAS_COND_AXIS_OFFSET-25 "-"
*MEAS_COND_AXIS_OFFSET-26 "-"
*MEAS_COND_AXIS_OFFSET-27 "-"
*MEAS_COND_AXIS_OFFSET-28 "-"
*MEAS_COND_AXIS_OFFSET-29 "-"
*MEAS_COND_AXIS_OFFSET-30 "-"
*MEAS_COND_AXIS_POSITION-0 "0.0000000000"
*MEAS_COND_AXIS_POSITION-1 "0.0000000000"
*MEAS_COND_AXIS_POSITION-2 "0.0000000000"
*MEAS_COND_AXIS_POSITION-3 "-2.9770000000"
*MEAS_COND_AXIS_POSITION-4 "0.0000000000"
*MEAS_COND_AXIS_POSITION-5 "0.0000000000"
*MEAS_COND_AXIS_POSITION-6 "0.0000000000"
*MEAS_COND_AXIS_POSITION-7 "-0.7498700000"
*MEAS_COND_AXIS_POSITION-8 "BB"
*MEAS_COND_AXIS_POSITION-9 "0.0000000000"
*MEAS_COND_AXIS_POSITION-10 "Soller_slit_5.0deg"
*MEAS_COND_AXIS_POSITION-11 "2/3deg"
*MEAS_COND_AXIS_POSITION-12 "2.2088000000"
*MEAS_COND_AXIS_POSITION-13 "-0.6412500000"
*MEAS_COND_AXIS_POSITION-14 "0.0000000000"
*MEAS_COND_AXIS_POSITION-15 "10.0mm"
*MEAS_COND_AXIS_POSITION-16 "None"
*MEAS_COND_AXIS_POSITION-17 "Cu_K-beta"
*MEAS_COND_AXIS_POSITION-18 "13.000mm"
*MEAS_COND_AXIS_POSITION-19 "13.000mm"
*MEAS_COND_AXIS_POSITION-20 "No_unit"
*MEAS_COND_AXIS_POSITION-21 "Soller_slit_5.0deg"
*MEAS_COND_AXIS_POSITION-22 "None"
*MEAS_COND_AXIS_POSITION-23 "13.0000000000"
*MEAS_COND_AXIS_POSITION-24 "13.0000000000"
*MEAS_COND_AXIS_POSITION-25 "0.0281300000"
*MEAS_COND_AXIS_POSITION-26 "Open"
*MEAS_COND_AXIS_POSITION-27 "None"
*MEAS_COND_AXIS_POSITION-28 "None"
*MEAS_COND_AXIS_POSITION-29 "None"
*MEAS_COND_AXIS_POSITION-30 "38.0000000000"
*MEAS_COND_AXIS_UNIT-0 "deg"
*MEAS_COND_AXIS_UNIT-1 "deg"
*MEAS_COND_AXIS_UNIT-2 "deg"
*MEAS_COND_AXIS_UNIT-3 "mm"
*MEAS_COND_AXIS_UNIT-4 "deg"
*MEAS_COND_AXIS_UNIT-5 "deg"
*MEAS_COND_AXIS_UNIT-6 "deg"
*MEAS_COND_AXIS_UNIT-7 "mm"
*MEAS_COND_AXIS_UNIT-8 ""
*MEAS_COND_AXIS_UNIT-9 "pulse"
*MEAS_COND_AXIS_UNIT-10 ""
*MEAS_COND_AXIS_UNIT-11 ""
*MEAS_COND_AXIS_UNIT-12 "mm"
*MEAS_COND_AXIS_UNIT-13 "mm"
*MEAS_COND_AXIS_UNIT-14 ""
*MEAS_COND_AXIS_UNIT-15 ""
*MEAS_COND_AXIS_UNIT-16 ""
*MEAS_COND_AXIS_UNIT-17 ""
*MEAS_COND_AXIS_UNIT-18 ""
*MEAS_COND_AXIS_UNIT-19 ""
*MEAS_COND_AXIS_UNIT-20 ""
*MEAS_COND_AXIS_UNIT-21 ""
*MEAS_COND_AXIS_UNIT-22 ""
*MEAS_COND_AXIS_UNIT-23 "mm"
*MEAS_COND_AXIS_UNIT-24 "mm"
*MEAS_COND_AXIS_UNIT-25 "mm"
*MEAS_COND_AXIS_UNIT-26 ""
*MEAS_COND_AXIS_UNIT-27 ""
*MEAS_COND_AXIS_UNIT-28 ""
*MEAS_COND_AXIS_UNIT-29 ""
*MEAS_COND_AXIS_UNIT-30 "div"
*MEAS_COND_COUNTER_CNTLOSS_CORR "0.0000000000"
*MEAS_COND_COUNTER_PHABASE "38.0000000000"
*MEAS_COND_COUNTER_PHAWINDOW "16.0000000000"
*MEAS_COND_COUNTER_PHA_UNIT "div"
*MEAS_COND_COUNTER_TAUDIFF "30.0000000000"
*MEAS_COND_COUNTER_TAUINT "0.0000000000"
*MEAS_COND_IRRADIATION_MODE "OFF"
*MEAS_COND_IRRADIATION_WIDTH ""
*MEAS_COND_OPT_ATTR "集中法"
*MEAS_COND_OPT_NAME "@集中法"
*MEAS_COND_UNSYMMETRIC_MODE "OFF"
*MEAS_COND_XG_CURRENT "30.0000000000"
*MEAS_COND_XG_VOLTAGE "40.0000000000"
*MEAS_COND_XG_WAVE_TYPE "Ka"
*MEAS_DATA_COUNT "5001.0000000000"
*MEAS_SCAN_AXIS_X "2θ/θ"
*MEAS_SCAN_AXIS_X_INTERNAL "TwoThetaTheta"
*MEAS_SCAN_END_TIME "05/18/23 18:09:18"
*MEAS_SCAN_MODE "CONTINUOUS"
*MEAS_SCAN_MONITOR "0"
*MEAS_SCAN_RESOLUTION_X "0.0002"
*MEAS_SCAN_SPEED "2.5"
*MEAS_SCAN_SPEED_UNIT "deg/min"
*MEAS_SCAN_START "20.0000000000"
*MEAS_SCAN_START_TIME "05/18/23 17:47:55"
*MEAS_SCAN_STEP "0.0100000000"
*MEAS_SCAN_STOP "70.0000000000"
*MEAS_SCAN_UNIT_X "deg"
*MEAS_SCAN_UNIT_Y "counts"
*RAS_HEADER_END
*RAS_INT_START
20.0000 850.0000 1.0000
20.0100 870.0000 1.0000
20.0200 827.0000 1.0000
20.0300 884.0000 1.0000
20.0400 874.0000 1.0000
20.0500 853.0000 1.0000
20.0600 824.0000 1.0000
20.0700 794.0000 1.0000
20.0800 810.0000 1.0000
20.0900 815.0000 1.0000
20.1000 886.0000 1.0000
20.1100 877.0000 1.0000
20.1200 897.0000 1.0000
20.1300 900.0000 1.0000
20.1400 821.0000 1.0000
20.1500 863.0000 1.0000
20.1600 885.0000 1.0000
20.1700 849.0000 1.0000
20.1800 839.0000 1.0000
20.1900 866.0000 1.0000
20.2000 861.0000 1.0000
20.2100 869.0000 1.0000
20.2200 860.0000 1.0000
20.2300 846.0000 1.0000
20.2400 846.0000 1.0000
20.2500 818.0000 1.0000
20.2600 837.0000 1.0000
20.2700 869.0000 1.0000
20.2800 836.0000 1.0000
20.2900 846.0000 1.0000
20.3000 852.0000 1.0000
20.3100 814.0000 1.0000
20.3200 858.0000 1.0000
20.3300 855.0000 1.0000
20.3400 827.0000 1.0000
20.3500 885.0000 1.0000
20.3600 846.0000 1.0000
20.3700 835.0000 1.0000
20.3800 840.0000 1.0000
20.3900 851.0000 1.0000
20.4000 884.0000 1.0000
20.4100 814.0000 1.0000
20.4200 824.0000 1.0000
20.4300 775.0000 1.0000
20.4400 846.0000 1.0000
20.4500 878.0000 1.0000
20.4600 851.0000 1.0000
20.4700 806.0000 1.0000
20.4800 857.0000 1.0000
20.4900 834.0000 1.0000
20.5000 848.0000 1.0000
20.5100 866.0000 1.0000
20.5200 855.0000 1.0000
20.5300 831.0000 1.0000
20.5400 804.0000 1.0000
20.5500 866.0000 1.0000
20.5600 831.0000 1.0000
20.5700 871.0000 1.0000
20.5800 875.0000 1.0000
20.5900 847.0000 1.0000
20.6000 889.0000 1.0000
20.6100 789.0000 1.0000
20.6200 820.0000 1.0000
20.6300 865.0000 1.0000
20.6400 785.0000 1.0000
20.6500 868.0000 1.0000
20.6600 849.0000 1.0000
20.6700 821.0000 1.0000
20.6800 854.0000 1.0000
20.6900 827.0000 1.0000
20.7000 817.0000 1.0000
20.7100 843.0000 1.0000
20.7200 831.0000 1.0000
20.7300 814.0000 1.0000
20.7400 829.0000 1.0000
20.7500 841.0000 1.0000
20.7600 836.0000 1.0000
20.7700 866.0000 1.0000
20.7800 846.0000 1.0000
20.7900 853.0000 1.0000
20.8000 812.0000 1.0000
20.8100 825.0000 1.0000
20.8200 797.0000 1.0000
20.8300 802.0000 1.0000
20.8400 795.0000 1.0000
20.8500 793.0000 1.0000
20.8600 809.0000 1.0000
20.8700 807.0000 1.0000
20.8800 823.0000 1.0000
20.8900 867.0000 1.0000
20.9000 857.0000 1.0000
20.9100 823.0000 1.0000
20.9200 806.0000 1.0000
20.9300 847.0000 1.0000
20.9400 847.0000 1.0000
20.9500 830.0000 1.0000
20.9600 827.0000 1.0000
20.9700 844.0000 1.0000
20.9800 843.0000 1.0000
20.9900 876.0000 1.0000
21.0000 843.0000 1.0000
21.0100 824.0000 1.0000
21.0200 835.0000 1.0000
21.0300 822.0000 1.0000
21.0400 843.0000 1.0000
21.0500 832.0000 1.0000
21.0600 799.0000 1.0000
21.0700 829.0000 1.0000
21.0800 796.0000 1.0000
21.0900 845.0000 1.0000
21.1000 832.0000 1.0000
21.1100 854.0000 1.0000
21.1200 808.0000 1.0000
21.1300 843.0000 1.0000
21.1400 836.0000 1.0000
21.1500 805.0000 1.0000
21.1600 808.0000 1.0000
21.1700 802.0000 1.0000
21.1800 815.0000 1.0000
21.1900 803.0000 1.0000
21.2000 837.0000 1.0000
21.2100 842.0000 1.0000
21.2200 819.0000 1.0000
21.2300 780.0000 1.0000
21.2400 831.0000 1.0000
21.2500 815.0000 1.0000
21.2600 813.0000 1.0000
21.2700 808.0000 1.0000
21.2800 832.0000 1.0000
21.2900 814.0000 1.0000
21.3000 880.0000 1.0000
21.3100 891.0000 1.0000
21.3200 808.0000 1.0000
21.3300 833.0000 1.0000
21.3400 864.0000 1.0000
21.3500 823.0000 1.0000
21.3600 850.0000 1.0000
21.3700 802.0000 1.0000
21.3800 817.0000 1.0000
21.3900 836.0000 1.0000
21.4000 863.0000 1.0000
21.4100 823.0000 1.0000
21.4200 807.0000 1.0000
21.4300 818.0000 1.0000
21.4400 822.0000 1.0000
21.4500 854.0000 1.0000
21.4600 812.0000 1.0000
21.4700 816.0000 1.0000
21.4800 841.0000 1.0000
21.4900 829.0000 1.0000
21.5000 799.0000 1.0000
21.5100 818.0000 1.0000
21.5200 802.0000 1.0000
21.5300 834.0000 1.0000
21.5400 871.0000 1.0000
21.5500 757.0000 1.0000
21.5600 824.0000 1.0000
21.5700 802.0000 1.0000
21.5800 793.0000 1.0000
21.5900 802.0000 1.0000
21.6000 836.0000 1.0000
21.6100 805.0000 1.0000
21.6200 828.0000 1.0000
21.6300 820.0000 1.0000
21.6400 797.0000 1.0000
21.6500 778.0000 1.0000
21.6600 793.0000 1.0000
21.6700 783.0000 1.0000
21.6800 822.0000 1.0000
21.6900 796.0000 1.0000
21.7000 812.0000 1.0000
21.7100 862.0000 1.0000
21.7200 840.0000 1.0000
21.7300 833.0000 1.0000
21.7400 803.0000 1.0000
21.7500 845.0000 1.0000
21.7600 856.0000 1.0000
21.7700 762.0000 1.0000
21.7800 789.0000 1.0000
21.7900 824.0000 1.0000
21.8000 834.0000 1.0000
21.8100 777.0000 1.0000
21.8200 819.0000 1.0000
21.8300 760.0000 1.0000
21.8400 756.0000 1.0000
21.8500 804.0000 1.0000
21.8600 836.0000 1.0000
21.8700 852.0000 1.0000
21.8800 809.0000 1.0000
21.8900 806.0000 1.0000
21.9000 762.0000 1.0000
21.9100 800.0000 1.0000
21.9200 812.0000 1.0000
21.9300 804.0000 1.0000
21.9400 827.0000 1.0000
21.9500 836.0000 1.0000
21.9600 813.0000 1.0000
21.9700 805.0000 1.0000
21.9800 783.0000 1.0000
21.9900 784.0000 1.0000
22.0000 802.0000 1.0000
22.0100 754.0000 1.0000
22.0200 786.0000 1.0000
22.0300 847.0000 1.0000
22.0400 779.0000 1.0000
22.0500 791.0000 1.0000
22.0600 771.0000 1.0000
22.0700 807.0000 1.0000
22.0800 811.0000 1.0000
22.0900 816.0000 1.0000
22.1000 801.0000 1.0000
22.1100 800.0000 1.0000
22.1200 795.0000 1.0000
22.1300 831.0000 1.0000
22.1400 753.0000 1.0000
22.1500 757.0000 1.0000
22.1600 814.0000 1.0000
22.1700 833.0000 1.0000
22.1800 793.0000 1.0000
22.1900 782.0000 1.0000
22.2000 780.0000 1.0000
22.2100 793.0000 1.0000
22.2200 800.0000 1.0000
22.2300 777.0000 1.0000
22.2400 833.0000 1.0000
22.2500 828.0000 1.0000
22.2600 794.0000 1.0000
22.2700 769.0000 1.0000
22.2800 802.0000 1.0000
22.2900 778.0000 1.0000
22.3000 794.0000 1.0000
22.3100 831.0000 1.0000
22.3200 858.0000 1.0000
22.3300 774.0000 1.0000
22.3400 822.0000 1.0000
22.3500 756.0000 1.0000
22.3600 794.0000 1.0000
22.3700 782.0000 1.0000
22.3800 820.0000 1.0000
22.3900 742.0000 1.0000
22.4000 728.0000 1.0000
22.4100 819.0000 1.0000
22.4200 781.0000 1.0000
22.4300 838.0000 1.0000
22.4400 756.0000 1.0000
22.4500 787.0000 1.0000
22.4600 784.0000 1.0000
22.4700 772.0000 1.0000
22.4800 775.0000 1.0000
22.4900 820.0000 1.0000
22.5000 759.0000 1.0000
22.5100 755.0000 1.0000
22.5200 801.0000 1.0000
22.5300 762.0000 1.0000
22.5400 812.0000 1.0000
22.5500 786.0000 1.0000
22.5600 739.0000 1.0000
22.5700 785.0000 1.0000
22.5800 769.0000 1.0000
22.5900 756.0000 1.0000
22.6000 752.0000 1.0000
22.6100 758.0000 1.0000
22.6200 738.0000 1.0000
22.6300 775.0000 1.0000
22.6400 776.0000 1.0000
22.6500 751.0000 1.0000
22.6600 767.0000 1.0000
22.6700 825.0000 1.0000
22.6800 846.0000 1.0000
22.6900 799.0000 1.0000
22.7000 815.0000 1.0000
22.7100 785.0000 1.0000
22.7200 779.0000 1.0000
22.7300 746.0000 1.0000
22.7400 784.0000 1.0000
22.7500 789.0000 1.0000
22.7600 775.0000 1.0000
22.7700 811.0000 1.0000
22.7800 788.0000 1.0000
22.7900 789.0000 1.0000
22.8000 807.0000 1.0000
22.8100 757.0000 1.0000
22.8200 776.0000 1.0000
22.8300 731.0000 1.0000
22.8400 745.0000 1.0000
22.8500 783.0000 1.0000
22.8600 798.0000 1.0000
22.8700 735.0000 1.0000
22.8800 783.0000 1.0000
22.8900 758.0000 1.0000
22.9000 756.0000 1.0000
22.9100 761.0000 1.0000
22.9200 783.0000 1.0000
22.9300 721.0000 1.0000
22.9400 805.0000 1.0000
22.9500 767.0000 1.0000
22.9600 786.0000 1.0000
22.9700 763.0000 1.0000
22.9800 765.0000 1.0000
22.9900 731.0000 1.0000
23.0000 742.0000 1.0000
23.0100 764.0000 1.0000
23.0200 780.0000 1.0000
23.0300 793.0000 1.0000
23.0400 786.0000 1.0000
23.0500 755.0000 1.0000
23.0600 756.0000 1.0000
23.0700 772.0000 1.0000
23.0800 805.0000 1.0000
23.0900 779.0000 1.0000
23.1000 738.0000 1.0000
23.1100 770.0000 1.0000
23.1200 793.0000 1.0000
23.1300 810.0000 1.0000
23.1400 778.0000 1.0000
23.1500 732.0000 1.0000
23.1600 771.0000 1.0000
23.1700 750.0000 1.0000
23.1800 801.0000 1.0000
23.1900 737.0000 1.0000
23.2000 758.0000 1.0000
23.2100 775.0000 1.0000
23.2200 744.0000 1.0000
23.2300 757.0000 1.0000
23.2400 783.0000 1.0000
23.2500 737.0000 1.0000
23.2600 711.0000 1.0000
23.2700 752.0000 1.0000
23.2800 741.0000 1.0000
23.2900 702.0000 1.0000
23.3000 766.0000 1.0000
23.3100 736.0000 1.0000
23.3200 748.0000 1.0000
23.3300 749.0000 1.0000
23.3400 747.0000 1.0000
23.3500 740.0000 1.0000
23.3600 758.0000 1.0000
23.3700 699.0000 1.0000
23.3800 747.0000 1.0000
23.3900 786.0000 1.0000
23.4000 793.0000 1.0000
23.4100 728.0000 1.0000
23.4200 759.0000 1.0000
23.4300 734.0000 1.0000
23.4400 730.0000 1.0000
23.4500 751.0000 1.0000
23.4600 766.0000 1.0000
23.4700 750.0000 1.0000
23.4800 781.0000 1.0000
23.4900 752.0000 1.0000
23.5000 758.0000 1.0000
23.5100 748.0000 1.0000
23.5200 778.0000 1.0000
23.5300 740.0000 1.0000
23.5400 808.0000 1.0000
23.5500 789.0000 1.0000
23.5600 772.0000 1.0000
23.5700 746.0000 1.0000
23.5800 766.0000 1.0000
23.5900 764.0000 1.0000
23.6000 787.0000 1.0000
23.6100 745.0000 1.0000
23.6200 781.0000 1.0000
23.6300 759.0000 1.0000
23.6400 746.0000 1.0000
23.6500 741.0000 1.0000
23.6600 818.0000 1.0000
23.6700 808.0000 1.0000
23.6800 732.0000 1.0000
23.6900 739.0000 1.0000
23.7000 806.0000 1.0000
23.7100 778.0000 1.0000
23.7200 776.0000 1.0000
23.7300 793.0000 1.0000
23.7400 798.0000 1.0000
23.7500 747.0000 1.0000
23.7600 755.0000 1.0000
23.7700 767.0000 1.0000
23.7800 764.0000 1.0000
23.7900 767.0000 1.0000
23.8000 783.0000 1.0000
23.8100 772.0000 1.0000
23.8200 797.0000 1.0000
23.8300 746.0000 1.0000
23.8400 792.0000 1.0000
23.8500 819.0000 1.0000
23.8600 757.0000 1.0000
23.8700 722.0000 1.0000
23.8800 753.0000 1.0000
23.8900 821.0000 1.0000
23.9000 755.0000 1.0000
23.9100 747.0000 1.0000
23.9200 739.0000 1.0000
23.9300 767.0000 1.0000
23.9400 774.0000 1.0000
23.9500 774.0000 1.0000
23.9600 798.0000 1.0000
23.9700 761.0000 1.0000
23.9800 819.0000 1.0000
23.9900 782.0000 1.0000
24.0000 781.0000 1.0000
24.0100 788.0000 1.0000
24.0200 829.0000 1.0000
24.0300 778.0000 1.0000
24.0400 739.0000 1.0000
24.0500 751.0000 1.0000
24.0600 797.0000 1.0000
24.0700 815.0000 1.0000
24.0800 800.0000 1.0000
24.0900 797.0000 1.0000
24.1000 814.0000 1.0000
24.1100 799.0000 1.0000
24.1200 744.0000 1.0000
24.1300 796.0000 1.0000
24.1400 831.0000 1.0000
24.1500 813.0000 1.0000
24.1600 743.0000 1.0000
24.1700 808.0000 1.0000
24.1800 769.0000 1.0000
24.1900 772.0000 1.0000
24.2000 758.0000 1.0000
24.2100 741.0000 1.0000
24.2200 775.0000 1.0000
24.2300 763.0000 1.0000
24.2400 776.0000 1.0000
24.2500 772.0000 1.0000
24.2600 751.0000 1.0000
24.2700 748.0000 1.0000
24.2800 785.0000 1.0000
24.2900 773.0000 1.0000
24.3000 751.0000 1.0000
24.3100 736.0000 1.0000
24.3200 776.0000 1.0000
24.3300 731.0000 1.0000
24.3400 760.0000 1.0000
24.3500 786.0000 1.0000
24.3600 820.0000 1.0000
24.3700 768.0000 1.0000
24.3800 750.0000 1.0000
24.3900 783.0000 1.0000
24.4000 719.0000 1.0000
24.4100 724.0000 1.0000
24.4200 762.0000 1.0000
24.4300 777.0000 1.0000
24.4400 721.0000 1.0000
24.4500 770.0000 1.0000
24.4600 772.0000 1.0000
24.4700 747.0000 1.0000
24.4800 815.0000 1.0000
24.4900 768.0000 1.0000
24.5000 731.0000 1.0000
24.5100 748.0000 1.0000
24.5200 746.0000 1.0000
24.5300 792.0000 1.0000
24.5400 708.0000 1.0000
24.5500 754.0000 1.0000
24.5600 760.0000 1.0000
24.5700 758.0000 1.0000
24.5800 750.0000 1.0000
24.5900 725.0000 1.0000
24.6000 766.0000 1.0000
24.6100 720.0000 1.0000
24.6200 742.0000 1.0000
24.6300 762.0000 1.0000
24.6400 771.0000 1.0000
24.6500 742.0000 1.0000
24.6600 749.0000 1.0000
24.6700 742.0000 1.0000
24.6800 754.0000 1.0000
24.6900 773.0000 1.0000
24.7000 735.0000 1.0000
24.7100 793.0000 1.0000
24.7200 777.0000 1.0000
24.7300 778.0000 1.0000
24.7400 742.0000 1.0000
24.7500 696.0000 1.0000
24.7600 745.0000 1.0000
24.7700 702.0000 1.0000
24.7800 718.0000 1.0000
24.7900 756.0000 1.0000
24.8000 726.0000 1.0000
24.8100 725.0000 1.0000
24.8200 765.0000 1.0000
24.8300 788.0000 1.0000
24.8400 729.0000 1.0000
24.8500 775.0000 1.0000
24.8600 753.0000 1.0000
24.8700 756.0000 1.0000
24.8800 757.0000 1.0000
24.8900 701.0000 1.0000
24.9000 786.0000 1.0000
24.9100 778.0000 1.0000
24.9200 770.0000 1.0000
24.9300 734.0000 1.0000
24.9400 714.0000 1.0000
24.9500 763.0000 1.0000
24.9600 761.0000 1.0000
24.9700 784.0000 1.0000
24.9800 744.0000 1.0000
24.9900 777.0000 1.0000
25.0000 698.0000 1.0000
25.0100 704.0000 1.0000
25.0200 755.0000 1.0000
25.0300 769.0000 1.0000
25.0400 712.0000 1.0000
25.0500 748.0000 1.0000
25.0600 789.0000 1.0000
25.0700 790.0000 1.0000
25.0800 730.0000 1.0000
25.0900 747.0000 1.0000
25.1000 724.0000 1.0000
25.1100 731.0000 1.0000
25.1200 734.0000 1.0000
25.1300 790.0000 1.0000
25.1400 764.0000 1.0000
25.1500 753.0000 1.0000
25.1600 765.0000 1.0000
25.1700 728.0000 1.0000
25.1800 746.0000 1.0000
25.1900 689.0000 1.0000
25.2000 737.0000 1.0000
25.2100 732.0000 1.0000
25.2200 739.0000 1.0000
25.2300 750.0000 1.0000
25.2400 775.0000 1.0000
25.2500 769.0000 1.0000
25.2600 776.0000 1.0000
25.2700 738.0000 1.0000
25.2800 744.0000 1.0000
25.2900 751.0000 1.0000
25.3000 743.0000 1.0000
25.3100 736.0000 1.0000
25.3200 729.0000 1.0000
25.3300 722.0000 1.0000
25.3400 761.0000 1.0000
25.3500 753.0000 1.0000
25.3600 762.0000 1.0000
25.3700 809.0000 1.0000
25.3800 725.0000 1.0000
25.3900 762.0000 1.0000
25.4000 751.0000 1.0000
25.4100 787.0000 1.0000
25.4200 756.0000 1.0000
25.4300 766.0000 1.0000
25.4400 759.0000 1.0000
25.4500 721.0000 1.0000
25.4600 793.0000 1.0000
25.4700 789.0000 1.0000
25.4800 748.0000 1.0000
25.4900 786.0000 1.0000
25.5000 727.0000 1.0000
25.5100 759.0000 1.0000
25.5200 777.0000 1.0000
25.5300 790.0000 1.0000
25.5400 765.0000 1.0000
25.5500 736.0000 1.0000
25.5600 793.0000 1.0000
25.5700 775.0000 1.0000
25.5800 781.0000 1.0000
25.5900 754.0000 1.0000
25.6000 733.0000 1.0000
25.6100 759.0000 1.0000
25.6200 754.0000 1.0000
25.6300 788.0000 1.0000
25.6400 753.0000 1.0000
25.6500 779.0000 1.0000
25.6600 762.0000 1.0000
25.6700 725.0000 1.0000
25.6800 814.0000 1.0000
25.6900 833.0000 1.0000
25.7000 789.0000 1.0000
25.7100 762.0000 1.0000
25.7200 828.0000 1.0000
25.7300 795.0000 1.0000
25.7400 776.0000 1.0000
25.7500 792.0000 1.0000
25.7600 768.0000 1.0000
25.7700 777.0000 1.0000
25.7800 757.0000 1.0000
25.7900 806.0000 1.0000
25.8000 777.0000 1.0000
25.8100 760.0000 1.0000
25.8200 774.0000 1.0000
25.8300 818.0000 1.0000
25.8400 773.0000 1.0000
25.8500 820.0000 1.0000
25.8600 791.0000 1.0000
25.8700 799.0000 1.0000
25.8800 799.0000 1.0000
25.8900 796.0000 1.0000
25.9000 809.0000 1.0000
25.9100 808.0000 1.0000
25.9200 791.0000 1.0000
25.9300 763.0000 1.0000
25.9400 819.0000 1.0000
25.9500 853.0000 1.0000
25.9600 821.0000 1.0000
25.9700 881.0000 1.0000
25.9800 798.0000 1.0000
25.9900 809.0000 1.0000
26.0000 809.0000 1.0000
26.0100 841.0000 1.0000
26.0200 813.0000 1.0000
26.0300 845.0000 1.0000
26.0400 849.0000 1.0000
26.0500 837.0000 1.0000
26.0600 887.0000 1.0000
26.0700 884.0000 1.0000
26.0800 933.0000 1.0000
26.0900 896.0000 1.0000
26.1000 915.0000 1.0000
26.1100 885.0000 1.0000
26.1200 900.0000 1.0000
26.1300 929.0000 1.0000
26.1400 994.0000 1.0000
26.1500 981.0000 1.0000
26.1600 973.0000 1.0000
26.1700 1036.0000 1.0000
26.1800 1034.0000 1.0000
26.1900 1020.0000 1.0000
26.2000 1029.0000 1.0000
26.2100 1068.0000 1.0000
26.2200 1073.0000 1.0000
26.2300 1150.0000 1.0000
26.2400 1150.0000 1.0000
26.2500 1211.0000 1.0000
26.2600 1261.0000 1.0000
26.2700 1305.0000 1.0000
26.2800 1305.0000 1.0000
26.2900 1396.0000 1.0000
26.3000 1473.0000 1.0000
26.3100 1585.0000 1.0000
26.3200 1612.0000 1.0000
26.3300 1657.0000 1.0000
26.3400 1780.0000 1.0000
26.3500 1910.0000 1.0000
26.3600 2015.0000 1.0000
26.3700 2147.0000 1.0000
26.3800 2267.0000 1.0000
26.3900 2429.0000 1.0000
26.4000 2549.0000 1.0000
26.4100 2610.0000 1.0000
26.4200 2726.0000 1.0000
26.4300 2793.0000 1.0000
26.4400 2870.0000 1.0000
26.4500 2883.0000 1.0000
26.4600 2835.0000 1.0000
26.4700 2803.0000 1.0000
26.4800 2717.0000 1.0000
26.4900 2609.0000 1.0000
26.5000 2566.0000 1.0000
26.5100 2442.0000 1.0000
26.5200 2264.0000 1.0000
26.5300 2168.0000 1.0000
26.5400 2066.0000 1.0000
26.5500 1984.0000 1.0000
26.5600 1832.0000 1.0000
26.5700 1744.0000 1.0000
26.5800 1691.0000 1.0000
26.5900 1573.0000 1.0000
26.6000 1502.0000 1.0000
26.6100 1431.0000 1.0000
26.6200 1357.0000 1.0000
26.6300 1310.0000 1.0000
26.6400 1252.0000 1.0000
26.6500 1169.0000 1.0000
26.6600 1176.0000 1.0000
26.6700 1167.0000 1.0000
26.6800 1126.0000 1.0000
26.6900 1076.0000 1.0000
26.7000 1041.0000 1.0000
26.7100 1034.0000 1.0000
26.7200 988.0000 1.0000
26.7300 975.0000 1.0000
26.7400 940.0000 1.0000
26.7500 976.0000 1.0000
26.7600 933.0000 1.0000
26.7700 939.0000 1.0000
26.7800 915.0000 1.0000
26.7900 920.0000 1.0000
26.8000 845.0000 1.0000
26.8100 903.0000 1.0000
26.8200 885.0000 1.0000
26.8300 829.0000 1.0000
26.8400 825.0000 1.0000
26.8500 894.0000 1.0000
26.8600 854.0000 1.0000
26.8700 878.0000 1.0000
26.8800 865.0000 1.0000
26.8900 823.0000 1.0000
26.9000 804.0000 1.0000
26.9100 786.0000 1.0000
26.9200 805.0000 1.0000
26.9300 804.0000 1.0000
26.9400 818.0000 1.0000
26.9500 762.0000 1.0000
26.9600 828.0000 1.0000
26.9700 783.0000 1.0000
26.9800 820.0000 1.0000
26.9900 768.0000 1.0000
27.0000 781.0000 1.0000
27.0100 748.0000 1.0000
27.0200 772.0000 1.0000
27.0300 780.0000 1.0000
27.0400 731.0000 1.0000
27.0500 718.0000 1.0000
27.0600 770.0000 1.0000
27.0700 776.0000 1.0000
27.0800 761.0000 1.0000
27.0900 782.0000 1.0000
27.1000 767.0000 1.0000
27.1100 796.0000 1.0000
27.1200 719.0000 1.0000
27.1300 764.0000 1.0000
27.1400 766.0000 1.0000
27.1500 714.0000 1.0000
27.1600 723.0000 1.0000
27.1700 687.0000 1.0000
27.1800 718.0000 1.0000
27.1900 754.0000 1.0000
27.2000 759.0000 1.0000
27.2100 764.0000 1.0000
27.2200 742.0000 1.0000
27.2300 735.0000 1.0000
27.2400 743.0000 1.0000
27.2500 697.0000 1.0000
27.2600 724.0000 1.0000
27.2700 709.0000 1.0000
27.2800 724.0000 1.0000
27.2900 759.0000 1.0000
27.3000 715.0000 1.0000
27.3100 716.0000 1.0000
27.3200 716.0000 1.0000
27.3300 741.0000 1.0000
27.3400 723.0000 1.0000
27.3500 742.0000 1.0000
27.3600 682.0000 1.0000
27.3700 769.0000 1.0000
27.3800 720.0000 1.0000
27.3900 735.0000 1.0000
27.4000 764.0000 1.0000
27.4100 736.0000 1.0000
27.4200 704.0000 1.0000
27.4300 732.0000 1.0000
27.4400 697.0000 1.0000
27.4500 720.0000 1.0000
27.4600 722.0000 1.0000
27.4700 738.0000 1.0000
27.4800 707.0000 1.0000
27.4900 731.0000 1.0000
27.5000 687.0000 1.0000
27.5100 696.0000 1.0000
27.5200 725.0000 1.0000
27.5300 725.0000 1.0000
27.5400 749.0000 1.0000
27.5500 716.0000 1.0000
27.5600 705.0000 1.0000
27.5700 722.0000 1.0000
27.5800 690.0000 1.0000
27.5900 699.0000 1.0000
27.6000 723.0000 1.0000
27.6100 710.0000 1.0000
27.6200 702.0000 1.0000
27.6300 734.0000 1.0000
27.6400 732.0000 1.0000
27.6500 696.0000 1.0000
27.6600 717.0000 1.0000
27.6700 699.0000 1.0000
27.6800 694.0000 1.0000
27.6900 733.0000 1.0000
27.7000 705.0000 1.0000
27.7100 700.0000 1.0000
27.7200 706.0000 1.0000
27.7300 697.0000 1.0000
27.7400 726.0000 1.0000
27.7500 694.0000 1.0000
27.7600 683.0000 1.0000
27.7700 693.0000 1.0000
27.7800 655.0000 1.0000
27.7900 701.0000 1.0000
27.8000 718.0000 1.0000
27.8100 691.0000 1.0000
27.8200 712.0000 1.0000
27.8300 702.0000 1.0000
27.8400 722.0000 1.0000
27.8500 725.0000 1.0000
27.8600 715.0000 1.0000
27.8700 690.0000 1.0000
27.8800 681.0000 1.0000
27.8900 693.0000 1.0000
27.9000 704.0000 1.0000
27.9100 737.0000 1.0000
27.9200 689.0000 1.0000
27.9300 681.0000 1.0000
27.9400 693.0000 1.0000
27.9500 686.0000 1.0000
27.9600 660.0000 1.0000
27.9700 681.0000 1.0000
27.9800 697.0000 1.0000
27.9900 688.0000 1.0000
28.0000 719.0000 1.0000
28.0100 677.0000 1.0000
28.0200 702.0000 1.0000
28.0300 662.0000 1.0000
28.0400 636.0000 1.0000
28.0500 680.0000 1.0000
28.0600 688.0000 1.0000
28.0700 685.0000 1.0000
28.0800 676.0000 1.0000
28.0900 664.0000 1.0000
28.1000 713.0000 1.0000
28.1100 697.0000 1.0000
28.1200 643.0000 1.0000
28.1300 711.0000 1.0000
28.1400 690.0000 1.0000
28.1500 674.0000 1.0000
28.1600 695.0000 1.0000
28.1700 673.0000 1.0000
28.1800 659.0000 1.0000
28.1900 703.0000 1.0000
28.2000 711.0000 1.0000
28.2100 715.0000 1.0000
28.2200 688.0000 1.0000
28.2300 664.0000 1.0000
28.2400 708.0000 1.0000
28.2500 710.0000 1.0000
28.2600 648.0000 1.0000
28.2700 722.0000 1.0000
28.2800 666.0000 1.0000
28.2900 691.0000 1.0000
28.3000 699.0000 1.0000
28.3100 674.0000 1.0000
28.3200 710.0000 1.0000
28.3300 661.0000 1.0000
28.3400 659.0000 1.0000
28.3500 689.0000 1.0000
28.3600 697.0000 1.0000
28.3700 682.0000 1.0000
28.3800 697.0000 1.0000
28.3900 691.0000 1.0000
28.4000 661.0000 1.0000
28.4100 701.0000 1.0000
28.4200 668.0000 1.0000
28.4300 675.0000 1.0000
28.4400 681.0000 1.0000
28.4500 673.0000 1.0000
28.4600 661.0000 1.0000
28.4700 680.0000 1.0000
28.4800 651.0000 1.0000
28.4900 664.0000 1.0000
28.5000 699.0000 1.0000
28.5100 674.0000 1.0000
28.5200 669.0000 1.0000
28.5300 632.0000 1.0000
28.5400 684.0000 1.0000
28.5500 691.0000 1.0000
28.5600 637.0000 1.0000
28.5700 629.0000 1.0000
28.5800 606.0000 1.0000
28.5900 631.0000 1.0000
28.6000 666.0000 1.0000
28.6100 670.0000 1.0000
28.6200 682.0000 1.0000
28.6300 636.0000 1.0000
28.6400 639.0000 1.0000
28.6500 650.0000 1.0000
28.6600 666.0000 1.0000
28.6700 683.0000 1.0000
28.6800 640.0000 1.0000
28.6900 627.0000 1.0000
28.7000 640.0000 1.0000
28.7100 655.0000 1.0000
28.7200 664.0000 1.0000
28.7300 727.0000 1.0000
28.7400 679.0000 1.0000
28.7500 708.0000 1.0000
28.7600 641.0000 1.0000
28.7700 647.0000 1.0000
28.7800 626.0000 1.0000
28.7900 661.0000 1.0000
28.8000 659.0000 1.0000
28.8100 649.0000 1.0000
28.8200 607.0000 1.0000
28.8300 734.0000 1.0000
28.8400 678.0000 1.0000
28.8500 635.0000 1.0000
28.8600 661.0000 1.0000
28.8700 645.0000 1.0000
28.8800 647.0000 1.0000
28.8900 697.0000 1.0000
28.9000 644.0000 1.0000
28.9100 643.0000 1.0000
28.9200 649.0000 1.0000
28.9300 652.0000 1.0000
28.9400 646.0000 1.0000
28.9500 632.0000 1.0000
28.9600 609.0000 1.0000
28.9700 660.0000 1.0000
28.9800 671.0000 1.0000
28.9900 679.0000 1.0000
29.0000 658.0000 1.0000
29.0100 666.0000 1.0000
29.0200 624.0000 1.0000
29.0300 625.0000 1.0000
29.0400 643.0000 1.0000
29.0500 633.0000 1.0000
29.0600 590.0000 1.0000
29.0700 655.0000 1.0000
29.0800 674.0000 1.0000
29.0900 638.0000 1.0000
29.1000 685.0000 1.0000
29.1100 629.0000 1.0000
29.1200 596.0000 1.0000
29.1300 654.0000 1.0000
29.1400 662.0000 1.0000
29.1500 697.0000 1.0000
29.1600 649.0000 1.0000
29.1700 670.0000 1.0000
29.1800 649.0000 1.0000
29.1900 670.0000 1.0000
29.2000 651.0000 1.0000
29.2100 626.0000 1.0000
29.2200 653.0000 1.0000
29.2300 643.0000 1.0000
29.2400 669.0000 1.0000
29.2500 619.0000 1.0000
29.2600 668.0000 1.0000
29.2700 623.0000 1.0000
29.2800 604.0000 1.0000
29.2900 634.0000 1.0000
29.3000 607.0000 1.0000
29.3100 624.0000 1.0000
29.3200 648.0000 1.0000
29.3300 675.0000 1.0000
29.3400 693.0000 1.0000
29.3500 676.0000 1.0000
29.3600 641.0000 1.0000
29.3700 645.0000 1.0000
29.3800 623.0000 1.0000
29.3900 652.0000 1.0000
29.4000 626.0000 1.0000
29.4100 634.0000 1.0000
29.4200 641.0000 1.0000
29.4300 628.0000 1.0000
29.4400 624.0000 1.0000
29.4500 617.0000 1.0000
29.4600 631.0000 1.0000
29.4700 675.0000 1.0000
29.4800 655.0000 1.0000
29.4900 619.0000 1.0000
29.5000 662.0000 1.0000
29.5100 652.0000 1.0000
29.5200 653.0000 1.0000
29.5300 663.0000 1.0000
29.5400 642.0000 1.0000
29.5500 612.0000 1.0000
29.5600 602.0000 1.0000
29.5700 676.0000 1.0000
29.5800 668.0000 1.0000
29.5900 646.0000 1.0000
29.6000 618.0000 1.0000
29.6100 553.0000 1.0000
29.6200 644.0000 1.0000
29.6300 654.0000 1.0000
29.6400 663.0000 1.0000
29.6500 634.0000 1.0000
29.6600 601.0000 1.0000
29.6700 650.0000 1.0000
29.6800 636.0000 1.0000
29.6900 669.0000 1.0000
29.7000 623.0000 1.0000
29.7100 648.0000 1.0000
29.7200 623.0000 1.0000
29.7300 637.0000 1.0000
29.7400 629.0000 1.0000
29.7500 647.0000 1.0000
29.7600 606.0000 1.0000
29.7700 661.0000 1.0000
29.7800 641.0000 1.0000
29.7900 632.0000 1.0000
29.8000 589.0000 1.0000
29.8100 629.0000 1.0000
29.8200 649.0000 1.0000
29.8300 655.0000 1.0000
29.8400 601.0000 1.0000
29.8500 615.0000 1.0000
29.8600 628.0000 1.0000
29.8700 625.0000 1.0000
29.8800 624.0000 1.0000
29.8900 640.0000 1.0000
29.9000 608.0000 1.0000
29.9100 585.0000 1.0000
29.9200 607.0000 1.0000
29.9300 660.0000 1.0000
29.9400 609.0000 1.0000
29.9500 620.0000 1.0000
29.9600 636.0000 1.0000
29.9700 637.0000 1.0000
29.9800 599.0000 1.0000
29.9900 672.0000 1.0000
30.0000 644.0000 1.0000
30.0100 607.0000 1.0000
30.0200 612.0000 1.0000
30.0300 623.0000 1.0000
30.0400 605.0000 1.0000
30.0500 609.0000 1.0000
30.0600 597.0000 1.0000
30.0700 601.0000 1.0000
30.0800 639.0000 1.0000
30.0900 627.0000 1.0000
30.1000 637.0000 1.0000
30.1100 634.0000 1.0000
30.1200 634.0000 1.0000
30.1300 625.0000 1.0000
30.1400 620.0000 1.0000
30.1500 619.0000 1.0000
30.1600 617.0000 1.0000
30.1700 635.0000 1.0000
30.1800 671.0000 1.0000
30.1900 620.0000 1.0000
30.2000 587.0000 1.0000
30.2100 614.0000 1.0000
30.2200 630.0000 1.0000
30.2300 630.0000 1.0000
30.2400 615.0000 1.0000
30.2500 628.0000 1.0000
30.2600 602.0000 1.0000
30.2700 620.0000 1.0000
30.2800 589.0000 1.0000
30.2900 656.0000 1.0000
30.3000 634.0000 1.0000
30.3100 609.0000 1.0000
30.3200 617.0000 1.0000
30.3300 645.0000 1.0000
30.3400 606.0000 1.0000
30.3500 627.0000 1.0000
30.3600 586.0000 1.0000
30.3700 601.0000 1.0000
30.3800 618.0000 1.0000
30.3900 590.0000 1.0000
30.4000 604.0000 1.0000
30.4100 605.0000 1.0000
30.4200 607.0000 1.0000
30.4300 631.0000 1.0000
30.4400 597.0000 1.0000
30.4500 626.0000 1.0000
30.4600 629.0000 1.0000
30.4700 587.0000 1.0000
30.4800 613.0000 1.0000
30.4900 644.0000 1.0000
30.5000 633.0000 1.0000
30.5100 636.0000 1.0000
30.5200 614.0000 1.0000
30.5300 608.0000 1.0000
30.5400 606.0000 1.0000
30.5500 596.0000 1.0000
30.5600 563.0000 1.0000
30.5700 635.0000 1.0000
30.5800 603.0000 1.0000
30.5900 591.0000 1.0000
30.6000 594.0000 1.0000
30.6100 616.0000 1.0000
30.6200 603.0000 1.0000
30.6300 598.0000 1.0000
30.6400 565.0000 1.0000
30.6500 617.0000 1.0000
30.6600 630.0000 1.0000
30.6700 635.0000 1.0000
30.6800 596.0000 1.0000
30.6900 608.0000 1.0000
30.7000 589.0000 1.0000
30.7100 584.0000 1.0000
30.7200 605.0000 1.0000
30.7300 615.0000 1.0000
30.7400 606.0000 1.0000
30.7500 610.0000 1.0000
30.7600 586.0000 1.0000
30.7700 587.0000 1.0000
30.7800 571.0000 1.0000
30.7900 590.0000 1.0000
30.8000 578.0000 1.0000
30.8100 558.0000 1.0000
30.8200 603.0000 1.0000
30.8300 623.0000 1.0000
30.8400 608.0000 1.0000
30.8500 571.0000 1.0000
30.8600 590.0000 1.0000
30.8700 599.0000 1.0000
30.8800 619.0000 1.0000
30.8900 656.0000 1.0000
30.9000 618.0000 1.0000
30.9100 601.0000 1.0000
30.9200 632.0000 1.0000
30.9300 601.0000 1.0000
30.9400 600.0000 1.0000
30.9500 583.0000 1.0000
30.9600 611.0000 1.0000
30.9700 593.0000 1.0000
30.9800 596.0000 1.0000
30.9900 601.0000 1.0000
31.0000 626.0000 1.0000
31.0100 582.0000 1.0000
31.0200 629.0000 1.0000
31.0300 622.0000 1.0000
31.0400 625.0000 1.0000
31.0500 578.0000 1.0000
31.0600 595.0000 1.0000
31.0700 606.0000 1.0000
31.0800 577.0000 1.0000
31.0900 596.0000 1.0000
31.1000 618.0000 1.0000
31.1100 605.0000 1.0000
31.1200 602.0000 1.0000
31.1300 545.0000 1.0000
31.1400 597.0000 1.0000
31.1500 634.0000 1.0000
31.1600 629.0000 1.0000
31.1700 618.0000 1.0000
31.1800 591.0000 1.0000
31.1900 631.0000 1.0000
31.2000 579.0000 1.0000
31.2100 606.0000 1.0000
31.2200 616.0000 1.0000
31.2300 598.0000 1.0000
31.2400 616.0000 1.0000
31.2500 621.0000 1.0000
31.2600 581.0000 1.0000
31.2700 582.0000 1.0000
31.2800 595.0000 1.0000
31.2900 590.0000 1.0000
31.3000 624.0000 1.0000
31.3100 609.0000 1.0000
31.3200 605.0000 1.0000
31.3300 580.0000 1.0000
31.3400 608.0000 1.0000
31.3500 601.0000 1.0000
31.3600 608.0000 1.0000
31.3700 629.0000 1.0000
31.3800 587.0000 1.0000
31.3900 599.0000 1.0000
31.4000 643.0000 1.0000
31.4100 613.0000 1.0000
31.4200 565.0000 1.0000
31.4300 580.0000 1.0000
31.4400 636.0000 1.0000
31.4500 562.0000 1.0000
31.4600 582.0000 1.0000
31.4700 626.0000 1.0000
31.4800 578.0000 1.0000
31.4900 563.0000 1.0000
31.5000 577.0000 1.0000
31.5100 582.0000 1.0000
31.5200 579.0000 1.0000
31.5300 609.0000 1.0000
31.5400 631.0000 1.0000
31.5500 615.0000 1.0000
31.5600 574.0000 1.0000
31.5700 566.0000 1.0000
31.5800 600.0000 1.0000
31.5900 585.0000 1.0000
31.6000 578.0000 1.0000
31.6100 604.0000 1.0000
31.6200 596.0000 1.0000
31.6300 573.0000 1.0000
31.6400 584.0000 1.0000
31.6500 552.0000 1.0000
31.6600 586.0000 1.0000
31.6700 578.0000 1.0000
31.6800 569.0000 1.0000
31.6900 586.0000 1.0000
31.7000 591.0000 1.0000
31.7100 582.0000 1.0000
31.7200 554.0000 1.0000
31.7300 574.0000 1.0000
31.7400 591.0000 1.0000
31.7500 608.0000 1.0000
31.7600 540.0000 1.0000
31.7700 558.0000 1.0000
31.7800 562.0000 1.0000
31.7900 570.0000 1.0000
31.8000 547.0000 1.0000
31.8100 540.0000 1.0000
31.8200 590.0000 1.0000
31.8300 584.0000 1.0000
31.8400 600.0000 1.0000
31.8500 551.0000 1.0000
31.8600 570.0000 1.0000
31.8700 581.0000 1.0000
31.8800 580.0000 1.0000
31.8900 579.0000 1.0000
31.9000 595.0000 1.0000
31.9100 556.0000 1.0000
31.9200 544.0000 1.0000
31.9300 558.0000 1.0000
31.9400 587.0000 1.0000
31.9500 577.0000 1.0000
31.9600 527.0000 1.0000
31.9700 588.0000 1.0000
31.9800 579.0000 1.0000
31.9900 585.0000 1.0000
32.0000 591.0000 1.0000
32.0100 589.0000 1.0000
32.0200 531.0000 1.0000
32.0300 576.0000 1.0000
32.0400 575.0000 1.0000
32.0500 569.0000 1.0000
32.0600 530.0000 1.0000
32.0700 564.0000 1.0000
32.0800 574.0000 1.0000
32.0900 581.0000 1.0000
32.1000 522.0000 1.0000
32.1100 581.0000 1.0000
32.1200 575.0000 1.0000
32.1300 561.0000 1.0000
32.1400 563.0000 1.0000
32.1500 582.0000 1.0000
32.1600 551.0000 1.0000
32.1700 562.0000 1.0000
32.1800 608.0000 1.0000
32.1900 566.0000 1.0000
32.2000 622.0000 1.0000
32.2100 541.0000 1.0000
32.2200 557.0000 1.0000
32.2300 520.0000 1.0000
32.2400 546.0000 1.0000
32.2500 560.0000 1.0000
32.2600 553.0000 1.0000
32.2700 578.0000 1.0000
32.2800 573.0000 1.0000
32.2900 574.0000 1.0000
32.3000 569.0000 1.0000
32.3100 549.0000 1.0000
32.3200 594.0000 1.0000
32.3300 582.0000 1.0000
32.3400 611.0000 1.0000
32.3500 590.0000 1.0000
32.3600 576.0000 1.0000
32.3700 578.0000 1.0000
32.3800 567.0000 1.0000
32.3900 577.0000 1.0000
32.4000 565.0000 1.0000
32.4100 583.0000 1.0000
32.4200 552.0000 1.0000
32.4300 553.0000 1.0000
32.4400 572.0000 1.0000
32.4500 573.0000 1.0000
32.4600 557.0000 1.0000
32.4700 560.0000 1.0000
32.4800 570.0000 1.0000
32.4900 571.0000 1.0000
32.5000 609.0000 1.0000
32.5100 568.0000 1.0000
32.5200 547.0000 1.0000
32.5300 553.0000 1.0000
32.5400 546.0000 1.0000
32.5500 530.0000 1.0000
32.5600 549.0000 1.0000
32.5700 542.0000 1.0000
32.5800 564.0000 1.0000
32.5900 548.0000 1.0000
32.6000 537.0000 1.0000
32.6100 602.0000 1.0000
32.6200 592.0000 1.0000
32.6300 593.0000 1.0000
32.6400 558.0000 1.0000
32.6500 566.0000 1.0000
32.6600 546.0000 1.0000
32.6700 613.0000 1.0000
32.6800 566.0000 1.0000
32.6900 558.0000 1.0000
32.7000 526.0000 1.0000
32.7100 554.0000 1.0000
32.7200 553.0000 1.0000
32.7300 576.0000 1.0000
32.7400 539.0000 1.0000
32.7500 571.0000 1.0000
32.7600 586.0000 1.0000
32.7700 586.0000 1.0000
32.7800 578.0000 1.0000
32.7900 534.0000 1.0000
32.8000 570.0000 1.0000
32.8100 529.0000 1.0000
32.8200 601.0000 1.0000
32.8300 553.0000 1.0000
32.8400 573.0000 1.0000
32.8500 568.0000 1.0000
32.8600 617.0000 1.0000
32.8700 590.0000 1.0000
32.8800 548.0000 1.0000
32.8900 577.0000 1.0000
32.9000 570.0000 1.0000
32.9100 570.0000 1.0000
32.9200 587.0000 1.0000
32.9300 581.0000 1.0000
32.9400 598.0000 1.0000
32.9500 586.0000 1.0000
32.9600 565.0000 1.0000
32.9700 618.0000 1.0000
32.9800 639.0000 1.0000
32.9900 643.0000 1.0000
33.0000 619.0000 1.0000
33.0100 590.0000 1.0000
33.0200 655.0000 1.0000
33.0300 661.0000 1.0000
33.0400 652.0000 1.0000
33.0500 694.0000 1.0000
33.0600 642.0000 1.0000
33.0700 687.0000 1.0000
33.0800 654.0000 1.0000
33.0900 648.0000 1.0000
33.1000 665.0000 1.0000
33.1100 695.0000 1.0000
33.1200 705.0000 1.0000
33.1300 658.0000 1.0000
33.1400 648.0000 1.0000
33.1500 615.0000 1.0000
33.1600 643.0000 1.0000
33.1700 634.0000 1.0000
33.1800 640.0000 1.0000
33.1900 650.0000 1.0000
33.2000 641.0000 1.0000
33.2100 615.0000 1.0000
33.2200 621.0000 1.0000
33.2300 647.0000 1.0000
33.2400 653.0000 1.0000
33.2500 649.0000 1.0000
33.2600 642.0000 1.0000
33.2700 626.0000 1.0000
33.2800 631.0000 1.0000
33.2900 615.0000 1.0000
33.3000 653.0000 1.0000
33.3100 635.0000 1.0000
33.3200 613.0000 1.0000
33.3300 652.0000 1.0000
33.3400 641.0000 1.0000
33.3500 659.0000 1.0000
33.3600 660.0000 1.0000
33.3700 659.0000 1.0000
33.3800 668.0000 1.0000
33.3900 666.0000 1.0000
33.4000 675.0000 1.0000
33.4100 734.0000 1.0000
33.4200 717.0000 1.0000
33.4300 709.0000 1.0000
33.4400 706.0000 1.0000
33.4500 771.0000 1.0000
33.4600 754.0000 1.0000
33.4700 755.0000 1.0000
33.4800 824.0000 1.0000
33.4900 820.0000 1.0000
33.5000 833.0000 1.0000
33.5100 842.0000 1.0000
33.5200 856.0000 1.0000
33.5300 916.0000 1.0000
33.5400 951.0000 1.0000
33.5500 971.0000 1.0000
33.5600 1053.0000 1.0000
33.5700 1091.0000 1.0000
33.5800 1141.0000 1.0000
33.5900 1198.0000 1.0000
33.6000 1266.0000 1.0000
33.6100 1277.0000 1.0000
33.6200 1331.0000 1.0000
33.6300 1392.0000 1.0000
33.6400 1439.0000 1.0000
33.6500 1375.0000 1.0000
33.6600 1418.0000 1.0000
33.6700 1478.0000 1.0000
33.6800 1449.0000 1.0000
33.6900 1421.0000 1.0000
33.7000 1423.0000 1.0000
33.7100 1381.0000 1.0000
33.7200 1335.0000 1.0000
33.7300 1281.0000 1.0000
33.7400 1218.0000 1.0000
33.7500 1147.0000 1.0000
33.7600 1127.0000 1.0000
33.7700 1085.0000 1.0000
33.7800 1037.0000 1.0000
33.7900 997.0000 1.0000
33.8000 917.0000 1.0000
33.8100 894.0000 1.0000
33.8200 913.0000 1.0000
33.8300 858.0000 1.0000
33.8400 818.0000 1.0000
33.8500 842.0000 1.0000
33.8600 755.0000 1.0000
33.8700 730.0000 1.0000
33.8800 727.0000 1.0000
33.8900 750.0000 1.0000
33.9000 750.0000 1.0000
33.9100 708.0000 1.0000
33.9200 708.0000 1.0000
33.9300 700.0000 1.0000
33.9400 694.0000 1.0000
33.9500 639.0000 1.0000
33.9600 622.0000 1.0000
33.9700 644.0000 1.0000
33.9800 614.0000 1.0000
33.9900 651.0000 1.0000
34.0000 622.0000 1.0000
34.0100 626.0000 1.0000
34.0200 607.0000 1.0000
34.0300 611.0000 1.0000
34.0400 606.0000 1.0000
34.0500 604.0000 1.0000
34.0600 588.0000 1.0000
34.0700 547.0000 1.0000
34.0800 568.0000 1.0000
34.0900 532.0000 1.0000
34.1000 566.0000 1.0000
34.1100 582.0000 1.0000
34.1200 551.0000 1.0000
34.1300 528.0000 1.0000
34.1400 572.0000 1.0000
34.1500 567.0000 1.0000
34.1600 571.0000 1.0000
34.1700 595.0000 1.0000
34.1800 568.0000 1.0000
34.1900 562.0000 1.0000
34.2000 593.0000 1.0000
34.2100 551.0000 1.0000
34.2200 535.0000 1.0000
34.2300 513.0000 1.0000
34.2400 554.0000 1.0000
34.2500 518.0000 1.0000
34.2600 542.0000 1.0000
34.2700 507.0000 1.0000
34.2800 520.0000 1.0000
34.2900 545.0000 1.0000
34.3000 532.0000 1.0000
34.3100 494.0000 1.0000
34.3200 553.0000 1.0000
34.3300 544.0000 1.0000
34.3400 520.0000 1.0000
34.3500 516.0000 1.0000
34.3600 549.0000 1.0000
34.3700 518.0000 1.0000
34.3800 538.0000 1.0000
34.3900 524.0000 1.0000
34.4000 507.0000 1.0000
34.4100 520.0000 1.0000
34.4200 516.0000 1.0000
34.4300 524.0000 1.0000
34.4400 524.0000 1.0000
34.4500 553.0000 1.0000
34.4600 498.0000 1.0000
34.4700 466.0000 1.0000
34.4800 542.0000 1.0000
34.4900 481.0000 1.0000
34.5000 488.0000 1.0000
34.5100 511.0000 1.0000
34.5200 491.0000 1.0000
34.5300 479.0000 1.0000
34.5400 498.0000 1.0000
34.5500 549.0000 1.0000
34.5600 522.0000 1.0000
34.5700 539.0000 1.0000
34.5800 505.0000 1.0000
34.5900 522.0000 1.0000
34.6000 490.0000 1.0000
34.6100 502.0000 1.0000
34.6200 509.0000 1.0000
34.6300 496.0000 1.0000
34.6400 480.0000 1.0000
34.6500 504.0000 1.0000
34.6600 511.0000 1.0000
34.6700 496.0000 1.0000
34.6800 494.0000 1.0000
34.6900 490.0000 1.0000
34.7000 464.0000 1.0000
34.7100 462.0000 1.0000
34.7200 470.0000 1.0000
34.7300 506.0000 1.0000
34.7400 495.0000 1.0000
34.7500 477.0000 1.0000
34.7600 493.0000 1.0000
34.7700 473.0000 1.0000
34.7800 477.0000 1.0000
34.7900 520.0000 1.0000
34.8000 515.0000 1.0000
34.8100 495.0000 1.0000
34.8200 485.0000 1.0000
34.8300 511.0000 1.0000
34.8400 504.0000 1.0000
34.8500 468.0000 1.0000
34.8600 500.0000 1.0000
34.8700 484.0000 1.0000
34.8800 485.0000 1.0000
34.8900 474.0000 1.0000
34.9000 478.0000 1.0000
34.9100 464.0000 1.0000
34.9200 537.0000 1.0000
34.9300 519.0000 1.0000
34.9400 471.0000 1.0000
34.9500 462.0000 1.0000
34.9600 471.0000 1.0000
34.9700 504.0000 1.0000
34.9800 466.0000 1.0000
34.9900 501.0000 1.0000
35.0000 522.0000 1.0000
35.0100 499.0000 1.0000
35.0200 475.0000 1.0000
35.0300 468.0000 1.0000
35.0400 502.0000 1.0000
35.0500 473.0000 1.0000
35.0600 474.0000 1.0000
35.0700 455.0000 1.0000
35.0800 484.0000 1.0000
35.0900 504.0000 1.0000
35.1000 484.0000 1.0000
35.1100 485.0000 1.0000
35.1200 499.0000 1.0000
35.1300 484.0000 1.0000
35.1400 479.0000 1.0000
35.1500 486.0000 1.0000
35.1600 498.0000 1.0000
35.1700 469.0000 1.0000
35.1800 478.0000 1.0000
35.1900 459.0000 1.0000
35.2000 479.0000 1.0000
35.2100 481.0000 1.0000
35.2200 495.0000 1.0000
35.2300 526.0000 1.0000
35.2400 506.0000 1.0000
35.2500 526.0000 1.0000
35.2600 496.0000 1.0000
35.2700 464.0000 1.0000
35.2800 491.0000 1.0000
35.2900 546.0000 1.0000
35.3000 514.0000 1.0000
35.3100 523.0000 1.0000
35.3200 534.0000 1.0000
35.3300 539.0000 1.0000
35.3400 516.0000 1.0000
35.3500 510.0000 1.0000
35.3600 583.0000 1.0000
35.3700 543.0000 1.0000
35.3800 552.0000 1.0000
35.3900 514.0000 1.0000
35.4000 581.0000 1.0000
35.4100 604.0000 1.0000
35.4200 611.0000 1.0000
35.4300 609.0000 1.0000
35.4400 591.0000 1.0000
35.4500 622.0000 1.0000
35.4600 675.0000 1.0000
35.4700 689.0000 1.0000
35.4800 741.0000 1.0000
35.4900 725.0000 1.0000
35.5000 773.0000 1.0000
35.5100 798.0000 1.0000
35.5200 828.0000 1.0000
35.5300 818.0000 1.0000
35.5400 872.0000 1.0000
35.5500 898.0000 1.0000
35.5600 906.0000 1.0000
35.5700 832.0000 1.0000
35.5800 938.0000 1.0000
35.5900 915.0000 1.0000
35.6000 933.0000 1.0000
35.6100 878.0000 1.0000
35.6200 891.0000 1.0000
35.6300 852.0000 1.0000
35.6400 835.0000 1.0000
35.6500 843.0000 1.0000
35.6600 823.0000 1.0000
35.6700 790.0000 1.0000
35.6800 771.0000 1.0000
35.6900 708.0000 1.0000
35.7000 689.0000 1.0000
35.7100 693.0000 1.0000
35.7200 632.0000 1.0000
35.7300 619.0000 1.0000
35.7400 583.0000 1.0000
35.7500 592.0000 1.0000
35.7600 582.0000 1.0000
35.7700 570.0000 1.0000
35.7800 586.0000 1.0000
35.7900 571.0000 1.0000
35.8000 523.0000 1.0000
35.8100 491.0000 1.0000
35.8200 527.0000 1.0000
35.8300 512.0000 1.0000
35.8400 498.0000 1.0000
35.8500 478.0000 1.0000
35.8600 484.0000 1.0000
35.8700 483.0000 1.0000
35.8800 471.0000 1.0000
35.8900 426.0000 1.0000
35.9000 448.0000 1.0000
35.9100 463.0000 1.0000
35.9200 458.0000 1.0000
35.9300 468.0000 1.0000
35.9400 457.0000 1.0000
35.9500 465.0000 1.0000
35.9600 459.0000 1.0000
35.9700 457.0000 1.0000
35.9800 478.0000 1.0000
35.9900 450.0000 1.0000
36.0000 440.0000 1.0000
36.0100 430.0000 1.0000
36.0200 453.0000 1.0000
36.0300 486.0000 1.0000
36.0400 444.0000 1.0000
36.0500 432.0000 1.0000
36.0600 416.0000 1.0000
36.0700 439.0000 1.0000
36.0800 464.0000 1.0000
36.0900 432.0000 1.0000
36.1000 472.0000 1.0000
36.1100 449.0000 1.0000
36.1200 432.0000 1.0000
36.1300 450.0000 1.0000
36.1400 465.0000 1.0000
36.1500 453.0000 1.0000
36.1600 462.0000 1.0000
36.1700 479.0000 1.0000
36.1800 457.0000 1.0000
36.1900 448.0000 1.0000
36.2000 447.0000 1.0000
36.2100 434.0000 1.0000
36.2200 445.0000 1.0000
36.2300 441.0000 1.0000
36.2400 429.0000 1.0000
36.2500 431.0000 1.0000
36.2600 433.0000 1.0000
36.2700 473.0000 1.0000
36.2800 462.0000 1.0000
36.2900 457.0000 1.0000
36.3000 449.0000 1.0000
36.3100 463.0000 1.0000
36.3200 475.0000 1.0000
36.3300 409.0000 1.0000
36.3400 439.0000 1.0000
36.3500 421.0000 1.0000
36.3600 458.0000 1.0000
36.3700 442.0000 1.0000
36.3800 467.0000 1.0000
36.3900 439.0000 1.0000
36.4000 457.0000 1.0000
36.4100 446.0000 1.0000
36.4200 454.0000 1.0000
36.4300 444.0000 1.0000
36.4400 460.0000 1.0000
36.4500 432.0000 1.0000
36.4600 433.0000 1.0000
36.4700 432.0000 1.0000
36.4800 422.0000 1.0000
36.4900 457.0000 1.0000
36.5000 472.0000 1.0000
36.5100 483.0000 1.0000
36.5200 465.0000 1.0000
36.5300 472.0000 1.0000
36.5400 457.0000 1.0000
36.5500 454.0000 1.0000
36.5600 441.0000 1.0000
36.5700 447.0000 1.0000
36.5800 473.0000 1.0000
36.5900 459.0000 1.0000
36.6000 430.0000 1.0000
36.6100 438.0000 1.0000
36.6200 440.0000 1.0000
36.6300 465.0000 1.0000
36.6400 448.0000 1.0000
36.6500 425.0000 1.0000
36.6600 457.0000 1.0000
36.6700 438.0000 1.0000
36.6800 472.0000 1.0000
36.6900 482.0000 1.0000
36.7000 466.0000 1.0000
36.7100 436.0000 1.0000
36.7200 447.0000 1.0000
36.7300 450.0000 1.0000
36.7400 424.0000 1.0000
36.7500 444.0000 1.0000
36.7600 446.0000 1.0000
36.7700 451.0000 1.0000
36.7800 482.0000 1.0000
36.7900 442.0000 1.0000
36.8000 465.0000 1.0000
36.8100 458.0000 1.0000
36.8200 401.0000 1.0000
36.8300 441.0000 1.0000
36.8400 462.0000 1.0000
36.8500 430.0000 1.0000
36.8600 472.0000 1.0000
36.8700 413.0000 1.0000
36.8800 421.0000 1.0000
36.8900 452.0000 1.0000
36.9000 467.0000 1.0000
36.9100 437.0000 1.0000
36.9200 395.0000 1.0000
36.9300 425.0000 1.0000
36.9400 443.0000 1.0000
36.9500 443.0000 1.0000
36.9600 450.0000 1.0000
36.9700 440.0000 1.0000
36.9800 427.0000 1.0000
36.9900 423.0000 1.0000
37.0000 437.0000 1.0000
37.0100 450.0000 1.0000
37.0200 448.0000 1.0000
37.0300 469.0000 1.0000
37.0400 490.0000 1.0000
37.0500 432.0000 1.0000
37.0600 446.0000 1.0000
37.0700 442.0000 1.0000
37.0800 449.0000 1.0000
37.0900 448.0000 1.0000
37.1000 457.0000 1.0000
37.1100 452.0000 1.0000
37.1200 446.0000 1.0000
37.1300 454.0000 1.0000
37.1400 511.0000 1.0000
37.1500 451.0000 1.0000
37.1600 498.0000 1.0000
37.1700 444.0000 1.0000
37.1800 425.0000 1.0000
37.1900 455.0000 1.0000
37.2000 427.0000 1.0000
37.2100 448.0000 1.0000
37.2200 471.0000 1.0000
37.2300 460.0000 1.0000
37.2400 469.0000 1.0000
37.2500 477.0000 1.0000
37.2600 501.0000 1.0000
37.2700 459.0000 1.0000
37.2800 484.0000 1.0000
37.2900 514.0000 1.0000
37.3000 494.0000 1.0000
37.3100 469.0000 1.0000
37.3200 513.0000 1.0000
37.3300 503.0000 1.0000
37.3400 498.0000 1.0000
37.3500 499.0000 1.0000
37.3600 553.0000 1.0000
37.3700 571.0000 1.0000
37.3800 571.0000 1.0000
37.3900 573.0000 1.0000
37.4000 597.0000 1.0000
37.4100 601.0000 1.0000
37.4200 595.0000 1.0000
37.4300 649.0000 1.0000
37.4400 660.0000 1.0000
37.4500 686.0000 1.0000
37.4600 680.0000 1.0000
37.4700 664.0000 1.0000
37.4800 771.0000 1.0000
37.4900 768.0000 1.0000
37.5000 784.0000 1.0000
37.5100 759.0000 1.0000
37.5200 892.0000 1.0000
37.5300 871.0000 1.0000
37.5400 949.0000 1.0000
37.5500 1043.0000 1.0000
37.5600 1064.0000 1.0000
37.5700 1088.0000 1.0000
37.5800 1198.0000 1.0000
37.5900 1296.0000 1.0000
37.6000 1337.0000 1.0000
37.6100 1430.0000 1.0000
37.6200 1530.0000 1.0000
37.6300 1612.0000 1.0000
37.6400 1763.0000 1.0000
37.6500 1838.0000 1.0000
37.6600 1879.0000 1.0000
37.6700 2029.0000 1.0000
37.6800 2094.0000 1.0000
37.6900 2096.0000 1.0000
37.7000 2155.0000 1.0000
37.7100 2096.0000 1.0000
37.7200 2187.0000 1.0000
37.7300 2186.0000 1.0000
37.7400 2118.0000 1.0000
37.7500 2058.0000 1.0000
37.7600 1998.0000 1.0000
37.7700 1940.0000 1.0000
37.7800 1953.0000 1.0000
37.7900 1848.0000 1.0000
37.8000 1804.0000 1.0000
37.8100 1729.0000 1.0000
37.8200 1713.0000 1.0000
37.8300 1558.0000 1.0000
37.8400 1442.0000 1.0000
37.8500 1322.0000 1.0000
37.8600 1319.0000 1.0000
37.8700 1232.0000 1.0000
37.8800 1169.0000 1.0000
37.8900 1073.0000 1.0000
37.9000 1012.0000 1.0000
37.9100 952.0000 1.0000
37.9200 924.0000 1.0000
37.9300 835.0000 1.0000
37.9400 821.0000 1.0000
37.9500 783.0000 1.0000
37.9600 760.0000 1.0000
37.9700 700.0000 1.0000
37.9800 677.0000 1.0000
37.9900 658.0000 1.0000
38.0000 679.0000 1.0000
38.0100 638.0000 1.0000
38.0200 586.0000 1.0000
38.0300 536.0000 1.0000
38.0400 546.0000 1.0000
38.0500 514.0000 1.0000
38.0600 553.0000 1.0000
38.0700 531.0000 1.0000
38.0800 535.0000 1.0000
38.0900 545.0000 1.0000
38.1000 517.0000 1.0000
38.1100 527.0000 1.0000
38.1200 456.0000 1.0000
38.1300 494.0000 1.0000
38.1400 466.0000 1.0000
38.1500 476.0000 1.0000
38.1600 435.0000 1.0000
38.1700 476.0000 1.0000
38.1800 445.0000 1.0000
38.1900 449.0000 1.0000
38.2000 453.0000 1.0000
38.2100 468.0000 1.0000
38.2200 473.0000 1.0000
38.2300 440.0000 1.0000
38.2400 413.0000 1.0000
38.2500 413.0000 1.0000
38.2600 441.0000 1.0000
38.2700 391.0000 1.0000
38.2800 420.0000 1.0000
38.2900 451.0000 1.0000
38.3000 408.0000 1.0000
38.3100 455.0000 1.0000
38.3200 392.0000 1.0000
38.3300 427.0000 1.0000
38.3400 434.0000 1.0000
38.3500 410.0000 1.0000
38.3600 431.0000 1.0000
38.3700 435.0000 1.0000
38.3800 410.0000 1.0000
38.3900 411.0000 1.0000
38.4000 426.0000 1.0000
38.4100 417.0000 1.0000
38.4200 413.0000 1.0000
38.4300 419.0000 1.0000
38.4400 378.0000 1.0000
38.4500 398.0000 1.0000
38.4600 429.0000 1.0000
38.4700 413.0000 1.0000
38.4800 410.0000 1.0000
38.4900 412.0000 1.0000
38.5000 388.0000 1.0000
38.5100 402.0000 1.0000
38.5200 441.0000 1.0000
38.5300 419.0000 1.0000
38.5400 402.0000 1.0000
38.5500 415.0000 1.0000
38.5600 428.0000 1.0000
38.5700 406.0000 1.0000
38.5800 386.0000 1.0000
38.5900 394.0000 1.0000
38.6000 397.0000 1.0000
38.6100 414.0000 1.0000
38.6200 393.0000 1.0000
38.6300 420.0000 1.0000
38.6400 440.0000 1.0000
38.6500 421.0000 1.0000
38.6600 425.0000 1.0000
38.6700 442.0000 1.0000
38.6800 404.0000 1.0000
38.6900 420.0000 1.0000
38.7000 412.0000 1.0000
38.7100 420.0000 1.0000
38.7200 419.0000 1.0000
38.7300 455.0000 1.0000
38.7400 414.0000 1.0000
38.7500 437.0000 1.0000
38.7600 447.0000 1.0000
38.7700 402.0000 1.0000
38.7800 406.0000 1.0000
38.7900 415.0000 1.0000
38.8000 419.0000 1.0000
38.8100 446.0000 1.0000
38.8200 426.0000 1.0000
38.8300 412.0000 1.0000
38.8400 433.0000 1.0000
38.8500 420.0000 1.0000
38.8600 407.0000 1.0000
38.8700 403.0000 1.0000
38.8800 400.0000 1.0000
38.8900 426.0000 1.0000
38.9000 400.0000 1.0000
38.9100 408.0000 1.0000
38.9200 373.0000 1.0000
38.9300 377.0000 1.0000
38.9400 384.0000 1.0000
38.9500 406.0000 1.0000
38.9600 409.0000 1.0000
38.9700 426.0000 1.0000
38.9800 393.0000 1.0000
38.9900 416.0000 1.0000
39.0000 419.0000 1.0000
39.0100 396.0000 1.0000
39.0200 364.0000 1.0000
39.0300 412.0000 1.0000
39.0400 385.0000 1.0000
39.0500 387.0000 1.0000
39.0600 385.0000 1.0000
39.0700 384.0000 1.0000
39.0800 377.0000 1.0000
39.0900 401.0000 1.0000
39.1000 377.0000 1.0000
39.1100 362.0000 1.0000
39.1200 365.0000 1.0000
39.1300 413.0000 1.0000
39.1400 371.0000 1.0000
39.1500 391.0000 1.0000
39.1600 400.0000 1.0000
39.1700 402.0000 1.0000
39.1800 399.0000 1.0000
39.1900 385.0000 1.0000
39.2000 393.0000 1.0000
39.2100 380.0000 1.0000
39.2200 409.0000 1.0000
39.2300 410.0000 1.0000
39.2400 350.0000 1.0000
39.2500 387.0000 1.0000
39.2600 410.0000 1.0000
39.2700 409.0000 1.0000
39.2800 374.0000 1.0000
39.2900 374.0000 1.0000
39.3000 381.0000 1.0000
39.3100 402.0000 1.0000
39.3200 357.0000 1.0000
39.3300 400.0000 1.0000
39.3400 381.0000 1.0000
39.3500 382.0000 1.0000
39.3600 396.0000 1.0000
39.3700 358.0000 1.0000
39.3800 383.0000 1.0000
39.3900 373.0000 1.0000
39.4000 397.0000 1.0000
39.4100 355.0000 1.0000
39.4200 361.0000 1.0000
39.4300 394.0000 1.0000
39.4400 405.0000 1.0000
39.4500 373.0000 1.0000
39.4600 355.0000 1.0000
39.4700 374.0000 1.0000
39.4800 395.0000 1.0000
39.4900 354.0000 1.0000
39.5000 370.0000 1.0000
39.5100 354.0000 1.0000
39.5200 382.0000 1.0000
39.5300 399.0000 1.0000
39.5400 395.0000 1.0000
39.5500 373.0000 1.0000
39.5600 375.0000 1.0000
39.5700 369.0000 1.0000
39.5800 357.0000 1.0000
39.5900 376.0000 1.0000
39.6000 352.0000 1.0000
39.6100 369.0000 1.0000
39.6200 354.0000 1.0000
39.6300 384.0000 1.0000
39.6400 368.0000 1.0000
39.6500 356.0000 1.0000
39.6600 358.0000 1.0000
39.6700 354.0000 1.0000
39.6800 354.0000 1.0000
39.6900 373.0000 1.0000
39.7000 399.0000 1.0000
39.7100 393.0000 1.0000
39.7200 372.0000 1.0000
39.7300 382.0000 1.0000
39.7400 374.0000 1.0000
39.7500 367.0000 1.0000
39.7600 358.0000 1.0000
39.7700 388.0000 1.0000
39.7800 389.0000 1.0000
39.7900 337.0000 1.0000
39.8000 387.0000 1.0000
39.8100 371.0000 1.0000
39.8200 374.0000 1.0000
39.8300 383.0000 1.0000
39.8400 368.0000 1.0000
39.8500 378.0000 1.0000
39.8600 364.0000 1.0000
39.8700 401.0000 1.0000
39.8800 367.0000 1.0000
39.8900 378.0000 1.0000
39.9000 369.0000 1.0000
39.9100 383.0000 1.0000
39.9200 351.0000 1.0000
39.9300 385.0000 1.0000
39.9400 396.0000 1.0000
39.9500 377.0000 1.0000
39.9600 362.0000 1.0000
39.9700 365.0000 1.0000
39.9800 366.0000 1.0000
39.9900 372.0000 1.0000
40.0000 381.0000 1.0000
40.0100 341.0000 1.0000
40.0200 384.0000 1.0000
40.0300 382.0000 1.0000
40.0400 382.0000 1.0000
40.0500 379.0000 1.0000
40.0600 380.0000 1.0000
40.0700 348.0000 1.0000
40.0800 351.0000 1.0000
40.0900 379.0000 1.0000
40.1000 354.0000 1.0000
40.1100 364.0000 1.0000
40.1200 360.0000 1.0000
40.1300 393.0000 1.0000
40.1400 349.0000 1.0000
40.1500 350.0000 1.0000
40.1600 351.0000 1.0000
40.1700 339.0000 1.0000
40.1800 341.0000 1.0000
40.1900 356.0000 1.0000
40.2000 368.0000 1.0000
40.2100 355.0000 1.0000
40.2200 354.0000 1.0000
40.2300 357.0000 1.0000
40.2400 350.0000 1.0000
40.2500 356.0000 1.0000
40.2600 387.0000 1.0000
40.2700 355.0000 1.0000
40.2800 360.0000 1.0000
40.2900 374.0000 1.0000
40.3000 373.0000 1.0000
40.3100 389.0000 1.0000
40.3200 366.0000 1.0000
40.3300 370.0000 1.0000
40.3400 382.0000 1.0000
40.3500 347.0000 1.0000
40.3600 363.0000 1.0000
40.3700 385.0000 1.0000
40.3800 333.0000 1.0000
40.3900 365.0000 1.0000
40.4000 358.0000 1.0000
40.4100 341.0000 1.0000
40.4200 385.0000 1.0000
40.4300 398.0000 1.0000
40.4400 369.0000 1.0000
40.4500 381.0000 1.0000
40.4600 354.0000 1.0000
40.4700 355.0000 1.0000
40.4800 328.0000 1.0000
40.4900 363.0000 1.0000
40.5000 395.0000 1.0000
40.5100 374.0000 1.0000
40.5200 346.0000 1.0000
40.5300 345.0000 1.0000
40.5400 361.0000 1.0000
40.5500 388.0000 1.0000
40.5600 380.0000 1.0000
40.5700 388.0000 1.0000
40.5800 364.0000 1.0000
40.5900 356.0000 1.0000
40.6000 357.0000 1.0000
40.6100 342.0000 1.0000
40.6200 364.0000 1.0000
40.6300 391.0000 1.0000
40.6400 350.0000 1.0000
40.6500 348.0000 1.0000
40.6600 358.0000 1.0000
40.6700 355.0000 1.0000
40.6800 387.0000 1.0000
40.6900 356.0000 1.0000
40.7000 330.0000 1.0000
40.7100 351.0000 1.0000
40.7200 366.0000 1.0000
40.7300 359.0000 1.0000
40.7400 381.0000 1.0000
40.7500 355.0000 1.0000
40.7600 386.0000 1.0000
40.7700 352.0000 1.0000
40.7800 383.0000 1.0000
40.7900 394.0000 1.0000
40.8000 381.0000 1.0000
40.8100 353.0000 1.0000
40.8200 364.0000 1.0000
40.8300 391.0000 1.0000
40.8400 388.0000 1.0000
40.8500 390.0000 1.0000
40.8600 394.0000 1.0000
40.8700 360.0000 1.0000
40.8800 385.0000 1.0000
40.8900 352.0000 1.0000
40.9000 384.0000 1.0000
40.9100 387.0000 1.0000
40.9200 358.0000 1.0000
40.9300 373.0000 1.0000
40.9400 372.0000 1.0000
40.9500 366.0000 1.0000
40.9600 372.0000 1.0000
40.9700 371.0000 1.0000
40.9800 360.0000 1.0000
40.9900 376.0000 1.0000
41.0000 361.0000 1.0000
41.0100 352.0000 1.0000
41.0200 378.0000 1.0000
41.0300 353.0000 1.0000
41.0400 354.0000 1.0000
41.0500 355.0000 1.0000
41.0600 367.0000 1.0000
41.0700 364.0000 1.0000
41.0800 366.0000 1.0000
41.0900 387.0000 1.0000
41.1000 330.0000 1.0000
41.1100 335.0000 1.0000
41.1200 324.0000 1.0000
41.1300 326.0000 1.0000
41.1400 375.0000 1.0000
41.1500 369.0000 1.0000
41.1600 341.0000 1.0000
41.1700 350.0000 1.0000
41.1800 376.0000 1.0000
41.1900 379.0000 1.0000
41.2000 378.0000 1.0000
41.2100 348.0000 1.0000
41.2200 346.0000 1.0000
41.2300 351.0000 1.0000
41.2400 364.0000 1.0000
41.2500 354.0000 1.0000
41.2600 365.0000 1.0000
41.2700 361.0000 1.0000
41.2800 358.0000 1.0000
41.2900 344.0000 1.0000
41.3000 356.0000 1.0000
41.3100 341.0000 1.0000
41.3200 387.0000 1.0000
41.3300 386.0000 1.0000
41.3400 382.0000 1.0000
41.3500 353.0000 1.0000
41.3600 344.0000 1.0000
41.3700 363.0000 1.0000
41.3800 384.0000 1.0000
41.3900 368.0000 1.0000
41.4000 340.0000 1.0000
41.4100 361.0000 1.0000
41.4200 330.0000 1.0000
41.4300 337.0000 1.0000
41.4400 342.0000 1.0000
41.4500 369.0000 1.0000
41.4600 375.0000 1.0000
41.4700 365.0000 1.0000
41.4800 355.0000 1.0000
41.4900 370.0000 1.0000
41.5000 371.0000 1.0000
41.5100 362.0000 1.0000
41.5200 335.0000 1.0000
41.5300 340.0000 1.0000
41.5400 358.0000 1.0000
41.5500 365.0000 1.0000
41.5600 368.0000 1.0000
41.5700 342.0000 1.0000
41.5800 305.0000 1.0000
41.5900 360.0000 1.0000
41.6000 384.0000 1.0000
41.6100 354.0000 1.0000
41.6200 363.0000 1.0000
41.6300 325.0000 1.0000
41.6400 356.0000 1.0000
41.6500 371.0000 1.0000
41.6600 362.0000 1.0000
41.6700 364.0000 1.0000
41.6800 328.0000 1.0000
41.6900 349.0000 1.0000
41.7000 357.0000 1.0000
41.7100 348.0000 1.0000
41.7200 373.0000 1.0000
41.7300 345.0000 1.0000
41.7400 355.0000 1.0000
41.7500 365.0000 1.0000
41.7600 364.0000 1.0000
41.7700 374.0000 1.0000
41.7800 332.0000 1.0000
41.7900 331.0000 1.0000
41.8000 340.0000 1.0000
41.8100 345.0000 1.0000
41.8200 350.0000 1.0000
41.8300 366.0000 1.0000
41.8400 361.0000 1.0000
41.8500 350.0000 1.0000
41.8600 347.0000 1.0000
41.8700 384.0000 1.0000
41.8800 373.0000 1.0000
41.8900 348.0000 1.0000
41.9000 343.0000 1.0000
41.9100 342.0000 1.0000
41.9200 332.0000 1.0000
41.9300 353.0000 1.0000
41.9400 352.0000 1.0000
41.9500 356.0000 1.0000
41.9600 368.0000 1.0000
41.9700 366.0000 1.0000
41.9800 367.0000 1.0000
41.9900 357.0000 1.0000
42.0000 358.0000 1.0000
42.0100 333.0000 1.0000
42.0200 356.0000 1.0000
42.0300 349.0000 1.0000
42.0400 348.0000 1.0000
42.0500 379.0000 1.0000
42.0600 333.0000 1.0000
42.0700 312.0000 1.0000
42.0800 310.0000 1.0000
42.0900 350.0000 1.0000
42.1000 319.0000 1.0000
42.1100 349.0000 1.0000
42.1200 373.0000 1.0000
42.1300 370.0000 1.0000
42.1400 335.0000 1.0000
42.1500 352.0000 1.0000
42.1600 341.0000 1.0000
42.1700 342.0000 1.0000
42.1800 343.0000 1.0000
42.1900 352.0000 1.0000
42.2000 356.0000 1.0000
42.2100 345.0000 1.0000
42.2200 365.0000 1.0000
42.2300 342.0000 1.0000
42.2400 346.0000 1.0000
42.2500 348.0000 1.0000
42.2600 366.0000 1.0000
42.2700 354.0000 1.0000
42.2800 365.0000 1.0000
42.2900 363.0000 1.0000
42.3000 355.0000 1.0000
42.3100 386.0000 1.0000
42.3200 359.0000 1.0000
42.3300 411.0000 1.0000
42.3400 389.0000 1.0000
42.3500 347.0000 1.0000
42.3600 367.0000 1.0000
42.3700 386.0000 1.0000
42.3800 407.0000 1.0000
42.3900 406.0000 1.0000
42.4000 384.0000 1.0000
42.4100 412.0000 1.0000
42.4200 375.0000 1.0000
42.4300 408.0000 1.0000
42.4400 391.0000 1.0000
42.4500 347.0000 1.0000
42.4600 361.0000 1.0000
42.4700 413.0000 1.0000
42.4800 361.0000 1.0000
42.4900 382.0000 1.0000
42.5000 399.0000 1.0000
42.5100 387.0000 1.0000
42.5200 389.0000 1.0000
42.5300 373.0000 1.0000
42.5400 392.0000 1.0000
42.5500 375.0000 1.0000
42.5600 374.0000 1.0000
42.5700 385.0000 1.0000
42.5800 417.0000 1.0000
42.5900 364.0000 1.0000
42.6000 323.0000 1.0000
42.6100 373.0000 1.0000
42.6200 364.0000 1.0000
42.6300 360.0000 1.0000
42.6400 363.0000 1.0000
42.6500 336.0000 1.0000
42.6600 370.0000 1.0000
42.6700 336.0000 1.0000
42.6800 344.0000 1.0000
42.6900 333.0000 1.0000
42.7000 367.0000 1.0000
42.7100 338.0000 1.0000
42.7200 357.0000 1.0000
42.7300 375.0000 1.0000
42.7400 355.0000 1.0000
42.7500 332.0000 1.0000
42.7600 338.0000 1.0000
42.7700 370.0000 1.0000
42.7800 361.0000 1.0000
42.7900 335.0000 1.0000
42.8000 358.0000 1.0000
42.8100 344.0000 1.0000
42.8200 326.0000 1.0000
42.8300 363.0000 1.0000
42.8400 364.0000 1.0000
42.8500 327.0000 1.0000
42.8600 333.0000 1.0000
42.8700 343.0000 1.0000
42.8800 336.0000 1.0000
42.8900 350.0000 1.0000
42.9000 351.0000 1.0000
42.9100 348.0000 1.0000
42.9200 375.0000 1.0000
42.9300 377.0000 1.0000
42.9400 337.0000 1.0000
42.9500 348.0000 1.0000
42.9600 340.0000 1.0000
42.9700 359.0000 1.0000
42.9800 345.0000 1.0000
42.9900 354.0000 1.0000
43.0000 357.0000 1.0000
43.0100 326.0000 1.0000
43.0200 339.0000 1.0000
43.0300 355.0000 1.0000
43.0400 359.0000 1.0000
43.0500 340.0000 1.0000
43.0600 351.0000 1.0000
43.0700 340.0000 1.0000
43.0800 322.0000 1.0000
43.0900 356.0000 1.0000
43.1000 340.0000 1.0000
43.1100 329.0000 1.0000
43.1200 329.0000 1.0000
43.1300 307.0000 1.0000
43.1400 350.0000 1.0000
43.1500 344.0000 1.0000
43.1600 338.0000 1.0000
43.1700 336.0000 1.0000
43.1800 357.0000 1.0000
43.1900 343.0000 1.0000
43.2000 348.0000 1.0000
43.2100 351.0000 1.0000
43.2200 335.0000 1.0000
43.2300 349.0000 1.0000
43.2400 323.0000 1.0000
43.2500 333.0000 1.0000
43.2600 367.0000 1.0000
43.2700 323.0000 1.0000
43.2800 322.0000 1.0000
43.2900 356.0000 1.0000
43.3000 395.0000 1.0000
43.3100 337.0000 1.0000
43.3200 344.0000 1.0000
43.3300 351.0000 1.0000
43.3400 321.0000 1.0000
43.3500 331.0000 1.0000
43.3600 324.0000 1.0000
43.3700 346.0000 1.0000
43.3800 328.0000 1.0000
43.3900 304.0000 1.0000
43.4000 337.0000 1.0000
43.4100 330.0000 1.0000
43.4200 350.0000 1.0000
43.4300 323.0000 1.0000
43.4400 322.0000 1.0000
43.4500 321.0000 1.0000
43.4600 335.0000 1.0000
43.4700 327.0000 1.0000
43.4800 323.0000 1.0000
43.4900 355.0000 1.0000
43.5000 344.0000 1.0000
43.5100 372.0000 1.0000
43.5200 350.0000 1.0000
43.5300 332.0000 1.0000
43.5400 351.0000 1.0000
43.5500 354.0000 1.0000
43.5600 313.0000 1.0000
43.5700 327.0000 1.0000
43.5800 337.0000 1.0000
43.5900 351.0000 1.0000
43.6000 319.0000 1.0000
43.6100 316.0000 1.0000
43.6200 322.0000 1.0000
43.6300 284.0000 1.0000
43.6400 338.0000 1.0000
43.6500 367.0000 1.0000
43.6600 332.0000 1.0000
43.6700 370.0000 1.0000
43.6800 342.0000 1.0000
43.6900 336.0000 1.0000
43.7000 352.0000 1.0000
43.7100 321.0000 1.0000
43.7200 319.0000 1.0000
43.7300 348.0000 1.0000
43.7400 330.0000 1.0000
43.7500 353.0000 1.0000
43.7600 318.0000 1.0000
43.7700 320.0000 1.0000
43.7800 323.0000 1.0000
43.7900 326.0000 1.0000
43.8000 325.0000 1.0000
43.8100 331.0000 1.0000
43.8200 352.0000 1.0000
43.8300 347.0000 1.0000
43.8400 328.0000 1.0000
43.8500 331.0000 1.0000
43.8600 318.0000 1.0000
43.8700 324.0000 1.0000
43.8800 347.0000 1.0000
43.8900 339.0000 1.0000
43.9000 311.0000 1.0000
43.9100 329.0000 1.0000
43.9200 327.0000 1.0000
43.9300 312.0000 1.0000
43.9400 310.0000 1.0000
43.9500 342.0000 1.0000
43.9600 351.0000 1.0000
43.9700 320.0000 1.0000
43.9800 311.0000 1.0000
43.9900 342.0000 1.0000
44.0000 329.0000 1.0000
44.0100 312.0000 1.0000
44.0200 341.0000 1.0000
44.0300 310.0000 1.0000
44.0400 327.0000 1.0000
44.0500 315.0000 1.0000
44.0600 326.0000 1.0000
44.0700 322.0000 1.0000
44.0800 355.0000 1.0000
44.0900 319.0000 1.0000
44.1000 330.0000 1.0000
44.1100 325.0000 1.0000
44.1200 329.0000 1.0000
44.1300 319.0000 1.0000
44.1400 332.0000 1.0000
44.1500 314.0000 1.0000
44.1600 300.0000 1.0000
44.1700 322.0000 1.0000
44.1800 304.0000 1.0000
44.1900 324.0000 1.0000
44.2000 324.0000 1.0000
44.2100 335.0000 1.0000
44.2200 321.0000 1.0000
44.2300 345.0000 1.0000
44.2400 333.0000 1.0000
44.2500 308.0000 1.0000
44.2600 319.0000 1.0000
44.2700 325.0000 1.0000
44.2800 283.0000 1.0000
44.2900 322.0000 1.0000
44.3000 349.0000 1.0000
44.3100 320.0000 1.0000
44.3200 303.0000 1.0000
44.3300 310.0000 1.0000
44.3400 323.0000 1.0000
44.3500 326.0000 1.0000
44.3600 317.0000 1.0000
44.3700 345.0000 1.0000
44.3800 320.0000 1.0000
44.3900 296.0000 1.0000
44.4000 305.0000 1.0000
44.4100 316.0000 1.0000
44.4200 339.0000 1.0000
44.4300 341.0000 1.0000
44.4400 330.0000 1.0000
44.4500 330.0000 1.0000
44.4600 302.0000 1.0000
44.4700 339.0000 1.0000
44.4800 323.0000 1.0000
44.4900 311.0000 1.0000
44.5000 316.0000 1.0000
44.5100 305.0000 1.0000
44.5200 307.0000 1.0000
44.5300 298.0000 1.0000
44.5400 325.0000 1.0000
44.5500 324.0000 1.0000
44.5600 311.0000 1.0000
44.5700 286.0000 1.0000
44.5800 325.0000 1.0000
44.5900 343.0000 1.0000
44.6000 336.0000 1.0000
44.6100 329.0000 1.0000
44.6200 338.0000 1.0000
44.6300 305.0000 1.0000
44.6400 312.0000 1.0000
44.6500 337.0000 1.0000
44.6600 290.0000 1.0000
44.6700 300.0000 1.0000
44.6800 313.0000 1.0000
44.6900 305.0000 1.0000
44.7000 319.0000 1.0000
44.7100 325.0000 1.0000
44.7200 322.0000 1.0000
44.7300 308.0000 1.0000
44.7400 307.0000 1.0000
44.7500 307.0000 1.0000
44.7600 338.0000 1.0000
44.7700 308.0000 1.0000
44.7800 306.0000 1.0000
44.7900 319.0000 1.0000
44.8000 315.0000 1.0000
44.8100 334.0000 1.0000
44.8200 334.0000 1.0000
44.8300 332.0000 1.0000
44.8400 323.0000 1.0000
44.8500 337.0000 1.0000
44.8600 316.0000 1.0000
44.8700 319.0000 1.0000
44.8800 310.0000 1.0000
44.8900 326.0000 1.0000
44.9000 337.0000 1.0000
44.9100 335.0000 1.0000
44.9200 322.0000 1.0000
44.9300 312.0000 1.0000
44.9400 320.0000 1.0000
44.9500 334.0000 1.0000
44.9600 330.0000 1.0000
44.9700 322.0000 1.0000
44.9800 312.0000 1.0000
44.9900 337.0000 1.0000
45.0000 329.0000 1.0000
45.0100 320.0000 1.0000
45.0200 321.0000 1.0000
45.0300 317.0000 1.0000
45.0400 310.0000 1.0000
45.0500 294.0000 1.0000
45.0600 301.0000 1.0000
45.0700 326.0000 1.0000
45.0800 317.0000 1.0000
45.0900 327.0000 1.0000
45.1000 302.0000 1.0000
45.1100 309.0000 1.0000
45.1200 301.0000 1.0000
45.1300 324.0000 1.0000
45.1400 324.0000 1.0000
45.1500 320.0000 1.0000
45.1600 307.0000 1.0000
45.1700 294.0000 1.0000
45.1800 320.0000 1.0000
45.1900 308.0000 1.0000
45.2000 342.0000 1.0000
45.2100 323.0000 1.0000
45.2200 313.0000 1.0000
45.2300 324.0000 1.0000
45.2400 328.0000 1.0000
45.2500 351.0000 1.0000
45.2600 295.0000 1.0000
45.2700 307.0000 1.0000
45.2800 322.0000 1.0000
45.2900 315.0000 1.0000
45.3000 317.0000 1.0000
45.3100 291.0000 1.0000
45.3200 305.0000 1.0000
45.3300 351.0000 1.0000
45.3400 319.0000 1.0000
45.3500 313.0000 1.0000
45.3600 313.0000 1.0000
45.3700 325.0000 1.0000
45.3800 311.0000 1.0000
45.3900 317.0000 1.0000
45.4000 322.0000 1.0000
45.4100 341.0000 1.0000
45.4200 325.0000 1.0000
45.4300 323.0000 1.0000
45.4400 333.0000 1.0000
45.4500 288.0000 1.0000
45.4600 321.0000 1.0000
45.4700 307.0000 1.0000
45.4800 301.0000 1.0000
45.4900 360.0000 1.0000
45.5000 324.0000 1.0000
45.5100 327.0000 1.0000
45.5200 339.0000 1.0000
45.5300 303.0000 1.0000
45.5400 322.0000 1.0000
45.5500 296.0000 1.0000
45.5600 317.0000 1.0000
45.5700 304.0000 1.0000
45.5800 314.0000 1.0000
45.5900 327.0000 1.0000
45.6000 302.0000 1.0000
45.6100 314.0000 1.0000
45.6200 345.0000 1.0000
45.6300 335.0000 1.0000
45.6400 328.0000 1.0000
45.6500 306.0000 1.0000
45.6600 312.0000 1.0000
45.6700 333.0000 1.0000
45.6800 332.0000 1.0000
45.6900 316.0000 1.0000
45.7000 311.0000 1.0000
45.7100 339.0000 1.0000
45.7200 305.0000 1.0000
45.7300 329.0000 1.0000
45.7400 339.0000 1.0000
45.7500 347.0000 1.0000
45.7600 342.0000 1.0000
45.7700 328.0000 1.0000
45.7800 318.0000 1.0000
45.7900 315.0000 1.0000
45.8000 297.0000 1.0000
45.8100 329.0000 1.0000
45.8200 320.0000 1.0000
45.8300 299.0000 1.0000
45.8400 290.0000 1.0000
45.8500 316.0000 1.0000
45.8600 320.0000 1.0000
45.8700 317.0000 1.0000
45.8800 316.0000 1.0000
45.8900 327.0000 1.0000
45.9000 328.0000 1.0000
45.9100 311.0000 1.0000
45.9200 307.0000 1.0000
45.9300 327.0000 1.0000
45.9400 332.0000 1.0000
45.9500 338.0000 1.0000
45.9600 333.0000 1.0000
45.9700 328.0000 1.0000
45.9800 329.0000 1.0000
45.9900 325.0000 1.0000
46.0000 328.0000 1.0000
46.0100 321.0000 1.0000
46.0200 310.0000 1.0000
46.0300 343.0000 1.0000
46.0400 329.0000 1.0000
46.0500 329.0000 1.0000
46.0600 307.0000 1.0000
46.0700 335.0000 1.0000
46.0800 306.0000 1.0000
46.0900 312.0000 1.0000
46.1000 322.0000 1.0000
46.1100 332.0000 1.0000
46.1200 314.0000 1.0000
46.1300 305.0000 1.0000
46.1400 318.0000 1.0000
46.1500 321.0000 1.0000
46.1600 329.0000 1.0000
46.1700 341.0000 1.0000
46.1800 353.0000 1.0000
46.1900 346.0000 1.0000
46.2000 313.0000 1.0000
46.2100 343.0000 1.0000
46.2200 348.0000 1.0000
46.2300 336.0000 1.0000
46.2400 329.0000 1.0000
46.2500 313.0000 1.0000
46.2600 355.0000 1.0000
46.2700 301.0000 1.0000
46.2800 297.0000 1.0000
46.2900 331.0000 1.0000
46.3000 335.0000 1.0000
46.3100 325.0000 1.0000
46.3200 289.0000 1.0000
46.3300 299.0000 1.0000
46.3400 294.0000 1.0000
46.3500 307.0000 1.0000
46.3600 328.0000 1.0000
46.3700 337.0000 1.0000
46.3800 316.0000 1.0000
46.3900 317.0000 1.0000
46.4000 276.0000 1.0000
46.4100 319.0000 1.0000
46.4200 347.0000 1.0000
46.4300 315.0000 1.0000
46.4400 320.0000 1.0000
46.4500 310.0000 1.0000
46.4600 319.0000 1.0000
46.4700 318.0000 1.0000
46.4800 329.0000 1.0000
46.4900 335.0000 1.0000
46.5000 295.0000 1.0000
46.5100 301.0000 1.0000
46.5200 309.0000 1.0000
46.5300 313.0000 1.0000
46.5400 294.0000 1.0000
46.5500 299.0000 1.0000
46.5600 320.0000 1.0000
46.5700 302.0000 1.0000
46.5800 327.0000 1.0000
46.5900 318.0000 1.0000
46.6000 319.0000 1.0000
46.6100 330.0000 1.0000
46.6200 333.0000 1.0000
46.6300 292.0000 1.0000
46.6400 306.0000 1.0000
46.6500 304.0000 1.0000
46.6600 319.0000 1.0000
46.6700 319.0000 1.0000
46.6800 314.0000 1.0000
46.6900 314.0000 1.0000
46.7000 308.0000 1.0000
46.7100 322.0000 1.0000
46.7200 295.0000 1.0000
46.7300 335.0000 1.0000
46.7400 326.0000 1.0000
46.7500 303.0000 1.0000
46.7600 314.0000 1.0000
46.7700 332.0000 1.0000
46.7800 312.0000 1.0000
46.7900 320.0000 1.0000
46.8000 317.0000 1.0000
46.8100 327.0000 1.0000
46.8200 311.0000 1.0000
46.8300 290.0000 1.0000
46.8400 293.0000 1.0000
46.8500 275.0000 1.0000
46.8600 309.0000 1.0000
46.8700 308.0000 1.0000
46.8800 311.0000 1.0000
46.8900 328.0000 1.0000
46.9000 317.0000 1.0000
46.9100 314.0000 1.0000
46.9200 331.0000 1.0000
46.9300 310.0000 1.0000
46.9400 318.0000 1.0000
46.9500 297.0000 1.0000
46.9600 294.0000 1.0000
46.9700 301.0000 1.0000
46.9800 293.0000 1.0000
46.9900 345.0000 1.0000
47.0000 299.0000 1.0000
47.0100 304.0000 1.0000
47.0200 302.0000 1.0000
47.0300 279.0000 1.0000
47.0400 310.0000 1.0000
47.0500 301.0000 1.0000
47.0600 303.0000 1.0000
47.0700 313.0000 1.0000
47.0800 314.0000 1.0000
47.0900 296.0000 1.0000
47.1000 289.0000 1.0000
47.1100 299.0000 1.0000
47.1200 327.0000 1.0000
47.1300 317.0000 1.0000
47.1400 306.0000 1.0000
47.1500 279.0000 1.0000
47.1600 309.0000 1.0000
47.1700 314.0000 1.0000
47.1800 311.0000 1.0000
47.1900 289.0000 1.0000
47.2000 322.0000 1.0000
47.2100 333.0000 1.0000
47.2200 325.0000 1.0000
47.2300 320.0000 1.0000
47.2400 326.0000 1.0000
47.2500 325.0000 1.0000
47.2600 283.0000 1.0000
47.2700 329.0000 1.0000
47.2800 301.0000 1.0000
47.2900 293.0000 1.0000
47.3000 292.0000 1.0000
47.3100 300.0000 1.0000
47.3200 304.0000 1.0000
47.3300 304.0000 1.0000
47.3400 300.0000 1.0000
47.3500 303.0000 1.0000
47.3600 300.0000 1.0000
47.3700 290.0000 1.0000
47.3800 331.0000 1.0000
47.3900 317.0000 1.0000
47.4000 302.0000 1.0000
47.4100 274.0000 1.0000
47.4200 299.0000 1.0000
47.4300 294.0000 1.0000
47.4400 309.0000 1.0000
47.4500 283.0000 1.0000
47.4600 282.0000 1.0000
47.4700 326.0000 1.0000
47.4800 319.0000 1.0000
47.4900 326.0000 1.0000
47.5000 311.0000 1.0000
47.5100 309.0000 1.0000
47.5200 292.0000 1.0000
47.5300 299.0000 1.0000
47.5400 307.0000 1.0000
47.5500 340.0000 1.0000
47.5600 314.0000 1.0000
47.5700 314.0000 1.0000
47.5800 305.0000 1.0000
47.5900 289.0000 1.0000
47.6000 300.0000 1.0000
47.6100 303.0000 1.0000
47.6200 320.0000 1.0000
47.6300 317.0000 1.0000
47.6400 320.0000 1.0000
47.6500 291.0000 1.0000
47.6600 302.0000 1.0000
47.6700 316.0000 1.0000
47.6800 308.0000 1.0000
47.6900 286.0000 1.0000
47.7000 260.0000 1.0000
47.7100 282.0000 1.0000
47.7200 284.0000 1.0000
47.7300 291.0000 1.0000
47.7400 303.0000 1.0000
47.7500 279.0000 1.0000
47.7600 314.0000 1.0000
47.7700 280.0000 1.0000
47.7800 315.0000 1.0000
47.7900 324.0000 1.0000
47.8000 297.0000 1.0000
47.8100 306.0000 1.0000
47.8200 316.0000 1.0000
47.8300 308.0000 1.0000
47.8400 317.0000 1.0000
47.8500 275.0000 1.0000
47.8600 293.0000 1.0000
47.8700 318.0000 1.0000
47.8800 320.0000 1.0000
47.8900 327.0000 1.0000
47.9000 292.0000 1.0000
47.9100 278.0000 1.0000
47.9200 312.0000 1.0000
47.9300 289.0000 1.0000
47.9400 291.0000 1.0000
47.9500 278.0000 1.0000
47.9600 297.0000 1.0000
47.9700 308.0000 1.0000
47.9800 310.0000 1.0000
47.9900 299.0000 1.0000
48.0000 314.0000 1.0000
48.0100 279.0000 1.0000
48.0200 308.0000 1.0000
48.0300 311.0000 1.0000
48.0400 308.0000 1.0000
48.0500 278.0000 1.0000
48.0600 287.0000 1.0000
48.0700 284.0000 1.0000
48.0800 302.0000 1.0000
48.0900 300.0000 1.0000
48.1000 311.0000 1.0000
48.1100 311.0000 1.0000
48.1200 293.0000 1.0000
48.1300 268.0000 1.0000
48.1400 286.0000 1.0000
48.1500 321.0000 1.0000
48.1600 338.0000 1.0000
48.1700 302.0000 1.0000
48.1800 299.0000 1.0000
48.1900 284.0000 1.0000
48.2000 289.0000 1.0000
48.2100 281.0000 1.0000
48.2200 266.0000 1.0000
48.2300 287.0000 1.0000
48.2400 308.0000 1.0000
48.2500 306.0000 1.0000
48.2600 291.0000 1.0000
48.2700 313.0000 1.0000
48.2800 320.0000 1.0000
48.2900 300.0000 1.0000
48.3000 291.0000 1.0000
48.3100 320.0000 1.0000
48.3200 292.0000 1.0000
48.3300 297.0000 1.0000
48.3400 281.0000 1.0000
48.3500 286.0000 1.0000
48.3600 286.0000 1.0000
48.3700 321.0000 1.0000
48.3800 308.0000 1.0000
48.3900 285.0000 1.0000
48.4000 302.0000 1.0000
48.4100 306.0000 1.0000
48.4200 297.0000 1.0000
48.4300 316.0000 1.0000
48.4400 294.0000 1.0000
48.4500 294.0000 1.0000
48.4600 288.0000 1.0000
48.4700 314.0000 1.0000
48.4800 316.0000 1.0000
48.4900 308.0000 1.0000
48.5000 282.0000 1.0000
48.5100 284.0000 1.0000
48.5200 277.0000 1.0000
48.5300 283.0000 1.0000
48.5400 270.0000 1.0000
48.5500 275.0000 1.0000
48.5600 266.0000 1.0000
48.5700 300.0000 1.0000
48.5800 293.0000 1.0000
48.5900 309.0000 1.0000
48.6000 319.0000 1.0000
48.6100 273.0000 1.0000
48.6200 295.0000 1.0000
48.6300 309.0000 1.0000
48.6400 278.0000 1.0000
48.6500 315.0000 1.0000
48.6600 313.0000 1.0000
48.6700 286.0000 1.0000
48.6800 311.0000 1.0000
48.6900 295.0000 1.0000
48.7000 301.0000 1.0000
48.7100 296.0000 1.0000
48.7200 286.0000 1.0000
48.7300 272.0000 1.0000
48.7400 307.0000 1.0000
48.7500 304.0000 1.0000
48.7600 296.0000 1.0000
48.7700 298.0000 1.0000
48.7800 304.0000 1.0000
48.7900 299.0000 1.0000
48.8000 274.0000 1.0000
48.8100 308.0000 1.0000
48.8200 295.0000 1.0000
48.8300 312.0000 1.0000
48.8400 282.0000 1.0000
48.8500 301.0000 1.0000
48.8600 293.0000 1.0000
48.8700 305.0000 1.0000
48.8800 314.0000 1.0000
48.8900 283.0000 1.0000
48.9000 290.0000 1.0000
48.9100 324.0000 1.0000
48.9200 301.0000 1.0000
48.9300 309.0000 1.0000
48.9400 308.0000 1.0000
48.9500 284.0000 1.0000
48.9600 273.0000 1.0000
48.9700 283.0000 1.0000
48.9800 280.0000 1.0000
48.9900 302.0000 1.0000
49.0000 285.0000 1.0000
49.0100 291.0000 1.0000
49.0200 272.0000 1.0000
49.0300 293.0000 1.0000
49.0400 302.0000 1.0000
49.0500 306.0000 1.0000
49.0600 288.0000 1.0000
49.0700 287.0000 1.0000
49.0800 310.0000 1.0000
49.0900 298.0000 1.0000
49.1000 299.0000 1.0000
49.1100 312.0000 1.0000
49.1200 295.0000 1.0000
49.1300 309.0000 1.0000
49.1400 318.0000 1.0000
49.1500 311.0000 1.0000
49.1600 302.0000 1.0000
49.1700 286.0000 1.0000
49.1800 327.0000 1.0000
49.1900 305.0000 1.0000
49.2000 296.0000 1.0000
49.2100 295.0000 1.0000
49.2200 321.0000 1.0000
49.2300 310.0000 1.0000
49.2400 308.0000 1.0000
49.2500 298.0000 1.0000
49.2600 305.0000 1.0000
49.2700 292.0000 1.0000
49.2800 313.0000 1.0000
49.2900 290.0000 1.0000
49.3000 317.0000 1.0000
49.3100 286.0000 1.0000
49.3200 309.0000 1.0000
49.3300 271.0000 1.0000
49.3400 317.0000 1.0000
49.3500 287.0000 1.0000
49.3600 295.0000 1.0000
49.3700 320.0000 1.0000
49.3800 304.0000 1.0000
49.3900 327.0000 1.0000
49.4000 298.0000 1.0000
49.4100 313.0000 1.0000
49.4200 313.0000 1.0000
49.4300 303.0000 1.0000
49.4400 303.0000 1.0000
49.4500 318.0000 1.0000
49.4600 321.0000 1.0000
49.4700 306.0000 1.0000
49.4800 337.0000 1.0000
49.4900 365.0000 1.0000
49.5000 343.0000 1.0000
49.5100 319.0000 1.0000
49.5200 327.0000 1.0000
49.5300 280.0000 1.0000
49.5400 303.0000 1.0000
49.5500 309.0000 1.0000
49.5600 304.0000 1.0000
49.5700 290.0000 1.0000
49.5800 302.0000 1.0000
49.5900 284.0000 1.0000
49.6000 300.0000 1.0000
49.6100 313.0000 1.0000
49.6200 323.0000 1.0000
49.6300 329.0000 1.0000
49.6400 289.0000 1.0000
49.6500 302.0000 1.0000
49.6600 281.0000 1.0000
49.6700 270.0000 1.0000
49.6800 293.0000 1.0000
49.6900 321.0000 1.0000
49.7000 312.0000 1.0000
49.7100 309.0000 1.0000
49.7200 276.0000 1.0000
49.7300 277.0000 1.0000
49.7400 305.0000 1.0000
49.7500 309.0000 1.0000
49.7600 283.0000 1.0000
49.7700 308.0000 1.0000
49.7800 318.0000 1.0000
49.7900 285.0000 1.0000
49.8000 264.0000 1.0000
49.8100 284.0000 1.0000
49.8200 298.0000 1.0000
49.8300 304.0000 1.0000
49.8400 283.0000 1.0000
49.8500 291.0000 1.0000
49.8600 291.0000 1.0000
49.8700 322.0000 1.0000
49.8800 307.0000 1.0000
49.8900 320.0000 1.0000
49.9000 299.0000 1.0000
49.9100 306.0000 1.0000
49.9200 320.0000 1.0000
49.9300 299.0000 1.0000
49.9400 284.0000 1.0000
49.9500 300.0000 1.0000
49.9600 298.0000 1.0000
49.9700 317.0000 1.0000
49.9800 290.0000 1.0000
49.9900 310.0000 1.0000
50.0000 248.0000 1.0000
50.0100 302.0000 1.0000
50.0200 282.0000 1.0000
50.0300 307.0000 1.0000
50.0400 285.0000 1.0000
50.0500 303.0000 1.0000
50.0600 288.0000 1.0000
50.0700 296.0000 1.0000
50.0800 272.0000 1.0000
50.0900 283.0000 1.0000
50.1000 280.0000 1.0000
50.1100 276.0000 1.0000
50.1200 288.0000 1.0000
50.1300 284.0000 1.0000
50.1400 311.0000 1.0000
50.1500 302.0000 1.0000
50.1600 286.0000 1.0000
50.1700 293.0000 1.0000
50.1800 287.0000 1.0000
50.1900 301.0000 1.0000
50.2000 287.0000 1.0000
50.2100 292.0000 1.0000
50.2200 313.0000 1.0000
50.2300 293.0000 1.0000
50.2400 308.0000 1.0000
50.2500 303.0000 1.0000
50.2600 309.0000 1.0000
50.2700 300.0000 1.0000
50.2800 303.0000 1.0000
50.2900 322.0000 1.0000
50.3000 317.0000 1.0000
50.3100 301.0000 1.0000
50.3200 283.0000 1.0000
50.3300 279.0000 1.0000
50.3400 324.0000 1.0000
50.3500 290.0000 1.0000
50.3600 294.0000 1.0000
50.3700 309.0000 1.0000
50.3800 269.0000 1.0000
50.3900 271.0000 1.0000
50.4000 317.0000 1.0000
50.4100 323.0000 1.0000
50.4200 294.0000 1.0000
50.4300 292.0000 1.0000
50.4400 281.0000 1.0000
50.4500 299.0000 1.0000
50.4600 271.0000 1.0000
50.4700 293.0000 1.0000
50.4800 284.0000 1.0000
50.4900 277.0000 1.0000
50.5000 306.0000 1.0000
50.5100 287.0000 1.0000
50.5200 298.0000 1.0000
50.5300 287.0000 1.0000
50.5400 308.0000 1.0000
50.5500 318.0000 1.0000
50.5600 310.0000 1.0000
50.5700 320.0000 1.0000
50.5800 305.0000 1.0000
50.5900 293.0000 1.0000
50.6000 276.0000 1.0000
50.6100 296.0000 1.0000
50.6200 303.0000 1.0000
50.6300 294.0000 1.0000
50.6400 257.0000 1.0000
50.6500 301.0000 1.0000
50.6600 308.0000 1.0000
50.6700 290.0000 1.0000
50.6800 262.0000 1.0000
50.6900 292.0000 1.0000
50.7000 287.0000 1.0000
50.7100 311.0000 1.0000
50.7200 305.0000 1.0000
50.7300 339.0000 1.0000
50.7400 294.0000 1.0000
50.7500 316.0000 1.0000
50.7600 329.0000 1.0000
50.7700 296.0000 1.0000
50.7800 294.0000 1.0000
50.7900 298.0000 1.0000
50.8000 311.0000 1.0000
50.8100 287.0000 1.0000
50.8200 317.0000 1.0000
50.8300 313.0000 1.0000
50.8400 306.0000 1.0000
50.8500 308.0000 1.0000
50.8600 305.0000 1.0000
50.8700 282.0000 1.0000
50.8800 291.0000 1.0000
50.8900 288.0000 1.0000
50.9000 308.0000 1.0000
50.9100 305.0000 1.0000
50.9200 324.0000 1.0000
50.9300 306.0000 1.0000
50.9400 305.0000 1.0000
50.9500 347.0000 1.0000
50.9600 305.0000 1.0000
50.9700 309.0000 1.0000
50.9800 330.0000 1.0000
50.9900 356.0000 1.0000
51.0000 342.0000 1.0000
51.0100 341.0000 1.0000
51.0200 307.0000 1.0000
51.0300 335.0000 1.0000
51.0400 315.0000 1.0000
51.0500 330.0000 1.0000
51.0600 373.0000 1.0000
51.0700 343.0000 1.0000
51.0800 340.0000 1.0000
51.0900 339.0000 1.0000
51.1000 354.0000 1.0000
51.1100 371.0000 1.0000
51.1200 373.0000 1.0000
51.1300 381.0000 1.0000
51.1400 383.0000 1.0000
51.1500 367.0000 1.0000
51.1600 379.0000 1.0000
51.1700 390.0000 1.0000
51.1800 415.0000 1.0000
51.1900 427.0000 1.0000
51.2000 436.0000 1.0000
51.2100 449.0000 1.0000
51.2200 446.0000 1.0000
51.2300 461.0000 1.0000
51.2400 512.0000 1.0000
51.2500 526.0000 1.0000
51.2600 540.0000 1.0000
51.2700 596.0000 1.0000
51.2800 610.0000 1.0000
51.2900 611.0000 1.0000
51.3000 615.0000 1.0000
51.3100 651.0000 1.0000
51.3200 753.0000 1.0000
51.3300 844.0000 1.0000
51.3400 817.0000 1.0000
51.3500 877.0000 1.0000
51.3600 956.0000 1.0000
51.3700 1078.0000 1.0000
51.3800 1084.0000 1.0000
51.3900 1246.0000 1.0000
51.4000 1328.0000 1.0000
51.4100 1432.0000 1.0000
51.4200 1505.0000 1.0000
51.4300 1635.0000 1.0000
51.4400 1723.0000 1.0000
51.4500 1820.0000 1.0000
51.4600 1906.0000 1.0000
51.4700 1971.0000 1.0000
51.4800 2022.0000 1.0000
51.4900 2072.0000 1.0000
51.5000 2003.0000 1.0000
51.5100 2018.0000 1.0000
51.5200 2031.0000 1.0000
51.5300 1990.0000 1.0000
51.5400 1959.0000 1.0000
51.5500 1832.0000 1.0000
51.5600 1764.0000 1.0000
51.5700 1735.0000 1.0000
51.5800 1588.0000 1.0000
51.5900 1562.0000 1.0000
51.6000 1608.0000 1.0000
51.6100 1546.0000 1.0000
51.6200 1496.0000 1.0000
51.6300 1426.0000 1.0000
51.6400 1378.0000 1.0000
51.6500 1334.0000 1.0000
51.6600 1232.0000 1.0000
51.6700 1160.0000 1.0000
51.6800 1149.0000 1.0000
51.6900 1028.0000 1.0000
51.7000 934.0000 1.0000
51.7100 875.0000 1.0000
51.7200 856.0000 1.0000
51.7300 774.0000 1.0000
51.7400 716.0000 1.0000
51.7500 669.0000 1.0000
51.7600 660.0000 1.0000
51.7700 601.0000 1.0000
51.7800 542.0000 1.0000
51.7900 538.0000 1.0000
51.8000 558.0000 1.0000
51.8100 540.0000 1.0000
51.8200 487.0000 1.0000
51.8300 473.0000 1.0000
51.8400 454.0000 1.0000
51.8500 425.0000 1.0000
51.8600 420.0000 1.0000
51.8700 417.0000 1.0000
51.8800 464.0000 1.0000
51.8900 397.0000 1.0000
51.9000 432.0000 1.0000
51.9100 390.0000 1.0000
51.9200 417.0000 1.0000
51.9300 392.0000 1.0000
51.9400 391.0000 1.0000
51.9500 400.0000 1.0000
51.9600 362.0000 1.0000
51.9700 371.0000 1.0000
51.9800 362.0000 1.0000
51.9900 378.0000 1.0000
52.0000 379.0000 1.0000
52.0100 357.0000 1.0000
52.0200 368.0000 1.0000
52.0300 337.0000 1.0000
52.0400 377.0000 1.0000
52.0500 340.0000 1.0000
52.0600 352.0000 1.0000
52.0700 337.0000 1.0000
52.0800 326.0000 1.0000
52.0900 325.0000 1.0000
52.1000 350.0000 1.0000
52.1100 332.0000 1.0000
52.1200 345.0000 1.0000
52.1300 324.0000 1.0000
52.1400 324.0000 1.0000
52.1500 314.0000 1.0000
52.1600 333.0000 1.0000
52.1700 329.0000 1.0000
52.1800 312.0000 1.0000
52.1900 321.0000 1.0000
52.2000 324.0000 1.0000
52.2100 327.0000 1.0000
52.2200 328.0000 1.0000
52.2300 344.0000 1.0000
52.2400 304.0000 1.0000
52.2500 327.0000 1.0000
52.2600 304.0000 1.0000
52.2700 326.0000 1.0000
52.2800 319.0000 1.0000
52.2900 308.0000 1.0000
52.3000 294.0000 1.0000
52.3100 308.0000 1.0000
52.3200 303.0000 1.0000
52.3300 288.0000 1.0000
52.3400 296.0000 1.0000
52.3500 329.0000 1.0000
52.3600 311.0000 1.0000
52.3700 292.0000 1.0000
52.3800 299.0000 1.0000
52.3900 300.0000 1.0000
52.4000 308.0000 1.0000
52.4100 325.0000 1.0000
52.4200 272.0000 1.0000
52.4300 321.0000 1.0000
52.4400 280.0000 1.0000
52.4500 268.0000 1.0000
52.4600 291.0000 1.0000
52.4700 327.0000 1.0000
52.4800 277.0000 1.0000
52.4900 321.0000 1.0000
52.5000 297.0000 1.0000
52.5100 294.0000 1.0000
52.5200 316.0000 1.0000
52.5300 306.0000 1.0000
52.5400 280.0000 1.0000
52.5500 300.0000 1.0000
52.5600 297.0000 1.0000
52.5700 289.0000 1.0000
52.5800 277.0000 1.0000
52.5900 306.0000 1.0000
52.6000 319.0000 1.0000
52.6100 293.0000 1.0000
52.6200 275.0000 1.0000
52.6300 289.0000 1.0000
52.6400 306.0000 1.0000
52.6500 309.0000 1.0000
52.6600 296.0000 1.0000
52.6700 283.0000 1.0000
52.6800 276.0000 1.0000
52.6900 279.0000 1.0000
52.7000 285.0000 1.0000
52.7100 279.0000 1.0000
52.7200 280.0000 1.0000
52.7300 301.0000 1.0000
52.7400 303.0000 1.0000
52.7500 296.0000 1.0000
52.7600 254.0000 1.0000
52.7700 288.0000 1.0000
52.7800 275.0000 1.0000
52.7900 306.0000 1.0000
52.8000 293.0000 1.0000
52.8100 285.0000 1.0000
52.8200 296.0000 1.0000
52.8300 328.0000 1.0000
52.8400 274.0000 1.0000
52.8500 285.0000 1.0000
52.8600 279.0000 1.0000
52.8700 299.0000 1.0000
52.8800 287.0000 1.0000
52.8900 276.0000 1.0000
52.9000 276.0000 1.0000
52.9100 270.0000 1.0000
52.9200 280.0000 1.0000
52.9300 268.0000 1.0000
52.9400 261.0000 1.0000
52.9500 254.0000 1.0000
52.9600 315.0000 1.0000
52.9700 310.0000 1.0000
52.9800 291.0000 1.0000
52.9900 273.0000 1.0000
53.0000 281.0000 1.0000
53.0100 298.0000 1.0000
53.0200 282.0000 1.0000
53.0300 307.0000 1.0000
53.0400 308.0000 1.0000
53.0500 281.0000 1.0000
53.0600 284.0000 1.0000
53.0700 292.0000 1.0000
53.0800 320.0000 1.0000
53.0900 293.0000 1.0000
53.1000 324.0000 1.0000
53.1100 330.0000 1.0000
53.1200 309.0000 1.0000
53.1300 253.0000 1.0000
53.1400 301.0000 1.0000
53.1500 264.0000 1.0000
53.1600 279.0000 1.0000
53.1700 281.0000 1.0000
53.1800 293.0000 1.0000
53.1900 310.0000 1.0000
53.2000 278.0000 1.0000
53.2100 279.0000 1.0000
53.2200 296.0000 1.0000
53.2300 287.0000 1.0000
53.2400 301.0000 1.0000
53.2500 294.0000 1.0000
53.2600 293.0000 1.0000
53.2700 293.0000 1.0000
53.2800 286.0000 1.0000
53.2900 282.0000 1.0000
53.3000 278.0000 1.0000
53.3100 294.0000 1.0000
53.3200 294.0000 1.0000
53.3300 298.0000 1.0000
53.3400 288.0000 1.0000
53.3500 297.0000 1.0000
53.3600 299.0000 1.0000
53.3700 293.0000 1.0000
53.3800 307.0000 1.0000
53.3900 293.0000 1.0000
53.4000 310.0000 1.0000
53.4100 297.0000 1.0000
53.4200 273.0000 1.0000
53.4300 277.0000 1.0000
53.4400 275.0000 1.0000
53.4500 296.0000 1.0000
53.4600 299.0000 1.0000
53.4700 312.0000 1.0000
53.4800 272.0000 1.0000
53.4900 255.0000 1.0000
53.5000 280.0000 1.0000
53.5100 282.0000 1.0000
53.5200 285.0000 1.0000
53.5300 307.0000 1.0000
53.5400 293.0000 1.0000
53.5500 314.0000 1.0000
53.5600 307.0000 1.0000
53.5700 313.0000 1.0000
53.5800 274.0000 1.0000
53.5900 282.0000 1.0000
53.6000 271.0000 1.0000
53.6100 286.0000 1.0000
53.6200 288.0000 1.0000
53.6300 284.0000 1.0000
53.6400 299.0000 1.0000
53.6500 303.0000 1.0000
53.6600 306.0000 1.0000
53.6700 276.0000 1.0000
53.6800 275.0000 1.0000
53.6900 281.0000 1.0000
53.7000 281.0000 1.0000
53.7100 297.0000 1.0000
53.7200 297.0000 1.0000
53.7300 278.0000 1.0000
53.7400 295.0000 1.0000
53.7500 297.0000 1.0000
53.7600 271.0000 1.0000
53.7700 257.0000 1.0000
53.7800 295.0000 1.0000
53.7900 298.0000 1.0000
53.8000 300.0000 1.0000
53.8100 327.0000 1.0000
53.8200 283.0000 1.0000
53.8300 316.0000 1.0000
53.8400 318.0000 1.0000
53.8500 306.0000 1.0000
53.8600 316.0000 1.0000
53.8700 289.0000 1.0000
53.8800 291.0000 1.0000
53.8900 308.0000 1.0000
53.9000 306.0000 1.0000
53.9100 312.0000 1.0000
53.9200 305.0000 1.0000
53.9300 292.0000 1.0000
53.9400 335.0000 1.0000
53.9500 312.0000 1.0000
53.9600 297.0000 1.0000
53.9700 331.0000 1.0000
53.9800 306.0000 1.0000
53.9900 330.0000 1.0000
54.0000 328.0000 1.0000
54.0100 329.0000 1.0000
54.0200 338.0000 1.0000
54.0300 341.0000 1.0000
54.0400 322.0000 1.0000
54.0500 306.0000 1.0000
54.0600 287.0000 1.0000
54.0700 325.0000 1.0000
54.0800 343.0000 1.0000
54.0900 342.0000 1.0000
54.1000 321.0000 1.0000
54.1100 338.0000 1.0000
54.1200 335.0000 1.0000
54.1300 335.0000 1.0000
54.1400 335.0000 1.0000
54.1500 314.0000 1.0000
54.1600 333.0000 1.0000
54.1700 288.0000 1.0000
54.1800 306.0000 1.0000
54.1900 326.0000 1.0000
54.2000 323.0000 1.0000
54.2100 335.0000 1.0000
54.2200 338.0000 1.0000
54.2300 331.0000 1.0000
54.2400 314.0000 1.0000
54.2500 318.0000 1.0000
54.2600 324.0000 1.0000
54.2700 323.0000 1.0000
54.2800 320.0000 1.0000
54.2900 333.0000 1.0000
54.3000 342.0000 1.0000
54.3100 320.0000 1.0000
54.3200 362.0000 1.0000
54.3300 350.0000 1.0000
54.3400 343.0000 1.0000
54.3500 339.0000 1.0000
54.3600 332.0000 1.0000
54.3700 377.0000 1.0000
54.3800 359.0000 1.0000
54.3900 329.0000 1.0000
54.4000 347.0000 1.0000
54.4100 411.0000 1.0000
54.4200 409.0000 1.0000
54.4300 372.0000 1.0000
54.4400 443.0000 1.0000
54.4500 407.0000 1.0000
54.4600 399.0000 1.0000
54.4700 414.0000 1.0000
54.4800 457.0000 1.0000
54.4900 453.0000 1.0000
54.5000 484.0000 1.0000
54.5100 428.0000 1.0000
54.5200 427.0000 1.0000
54.5300 446.0000 1.0000
54.5400 452.0000 1.0000
54.5500 462.0000 1.0000
54.5600 397.0000 1.0000
54.5700 421.0000 1.0000
54.5800 411.0000 1.0000
54.5900 414.0000 1.0000
54.6000 407.0000 1.0000
54.6100 420.0000 1.0000
54.6200 404.0000 1.0000
54.6300 431.0000 1.0000
54.6400 410.0000 1.0000
54.6500 413.0000 1.0000
54.6600 420.0000 1.0000
54.6700 416.0000 1.0000
54.6800 388.0000 1.0000
54.6900 398.0000 1.0000
54.7000 370.0000 1.0000
54.7100 376.0000 1.0000
54.7200 368.0000 1.0000
54.7300 377.0000 1.0000
54.7400 367.0000 1.0000
54.7500 391.0000 1.0000
54.7600 366.0000 1.0000
54.7700 339.0000 1.0000
54.7800 358.0000 1.0000
54.7900 338.0000 1.0000
54.8000 322.0000 1.0000
54.8100 320.0000 1.0000
54.8200 295.0000 1.0000
54.8300 323.0000 1.0000
54.8400 341.0000 1.0000
54.8500 325.0000 1.0000
54.8600 315.0000 1.0000
54.8700 320.0000 1.0000
54.8800 322.0000 1.0000
54.8900 297.0000 1.0000
54.9000 295.0000 1.0000
54.9100 304.0000 1.0000
54.9200 307.0000 1.0000
54.9300 302.0000 1.0000
54.9400 312.0000 1.0000
54.9500 281.0000 1.0000
54.9600 281.0000 1.0000
54.9700 294.0000 1.0000
54.9800 286.0000 1.0000
54.9900 283.0000 1.0000
55.0000 305.0000 1.0000
55.0100 293.0000 1.0000
55.0200 293.0000 1.0000
55.0300 295.0000 1.0000
55.0400 307.0000 1.0000
55.0500 275.0000 1.0000
55.0600 288.0000 1.0000
55.0700 268.0000 1.0000
55.0800 257.0000 1.0000
55.0900 297.0000 1.0000
55.1000 302.0000 1.0000
55.1100 268.0000 1.0000
55.1200 273.0000 1.0000
55.1300 272.0000 1.0000
55.1400 292.0000 1.0000
55.1500 285.0000 1.0000
55.1600 321.0000 1.0000
55.1700 293.0000 1.0000
55.1800 304.0000 1.0000
55.1900 290.0000 1.0000
55.2000 309.0000 1.0000
55.2100 283.0000 1.0000
55.2200 300.0000 1.0000
55.2300 286.0000 1.0000
55.2400 289.0000 1.0000
55.2500 293.0000 1.0000
55.2600 273.0000 1.0000
55.2700 278.0000 1.0000
55.2800 276.0000 1.0000
55.2900 279.0000 1.0000
55.3000 270.0000 1.0000
55.3100 302.0000 1.0000
55.3200 282.0000 1.0000
55.3300 270.0000 1.0000
55.3400 291.0000 1.0000
55.3500 274.0000 1.0000
55.3600 290.0000 1.0000
55.3700 293.0000 1.0000
55.3800 271.0000 1.0000
55.3900 294.0000 1.0000
55.4000 299.0000 1.0000
55.4100 271.0000 1.0000
55.4200 271.0000 1.0000
55.4300 288.0000 1.0000
55.4400 275.0000 1.0000
55.4500 282.0000 1.0000
55.4600 281.0000 1.0000
55.4700 263.0000 1.0000
55.4800 292.0000 1.0000
55.4900 279.0000 1.0000
55.5000 281.0000 1.0000
55.5100 249.0000 1.0000
55.5200 286.0000 1.0000
55.5300 285.0000 1.0000
55.5400 286.0000 1.0000
55.5500 317.0000 1.0000
55.5600 260.0000 1.0000
55.5700 274.0000 1.0000
55.5800 249.0000 1.0000
55.5900 286.0000 1.0000
55.6000 274.0000 1.0000
55.6100 265.0000 1.0000
55.6200 239.0000 1.0000
55.6300 297.0000 1.0000
55.6400 295.0000 1.0000
55.6500 314.0000 1.0000
55.6600 294.0000 1.0000
55.6700 266.0000 1.0000
55.6800 307.0000 1.0000
55.6900 269.0000 1.0000
55.7000 299.0000 1.0000
55.7100 285.0000 1.0000
55.7200 260.0000 1.0000
55.7300 294.0000 1.0000
55.7400 255.0000 1.0000
55.7500 271.0000 1.0000
55.7600 294.0000 1.0000
55.7700 253.0000 1.0000
55.7800 268.0000 1.0000
55.7900 256.0000 1.0000
55.8000 275.0000 1.0000
55.8100 269.0000 1.0000
55.8200 249.0000 1.0000
55.8300 277.0000 1.0000
55.8400 273.0000 1.0000
55.8500 290.0000 1.0000
55.8600 281.0000 1.0000
55.8700 277.0000 1.0000
55.8800 315.0000 1.0000
55.8900 267.0000 1.0000
55.9000 272.0000 1.0000
55.9100 268.0000 1.0000
55.9200 275.0000 1.0000
55.9300 276.0000 1.0000
55.9400 295.0000 1.0000
55.9500 281.0000 1.0000
55.9600 264.0000 1.0000
55.9700 254.0000 1.0000
55.9800 271.0000 1.0000
55.9900 293.0000 1.0000
56.0000 260.0000 1.0000
56.0100 277.0000 1.0000
56.0200 288.0000 1.0000
56.0300 290.0000 1.0000
56.0400 294.0000 1.0000
56.0500 297.0000 1.0000
56.0600 280.0000 1.0000
56.0700 271.0000 1.0000
56.0800 289.0000 1.0000
56.0900 296.0000 1.0000
56.1000 273.0000 1.0000
56.1100 294.0000 1.0000
56.1200 299.0000 1.0000
56.1300 292.0000 1.0000
56.1400 266.0000 1.0000
56.1500 282.0000 1.0000
56.1600 263.0000 1.0000
56.1700 270.0000 1.0000
56.1800 276.0000 1.0000
56.1900 275.0000 1.0000
56.2000 298.0000 1.0000
56.2100 287.0000 1.0000
56.2200 266.0000 1.0000
56.2300 313.0000 1.0000
56.2400 285.0000 1.0000
56.2500 285.0000 1.0000
56.2600 248.0000 1.0000
56.2700 263.0000 1.0000
56.2800 289.0000 1.0000
56.2900 267.0000 1.0000
56.3000 269.0000 1.0000
56.3100 270.0000 1.0000
56.3200 268.0000 1.0000
56.3300 275.0000 1.0000
56.3400 303.0000 1.0000
56.3500 297.0000 1.0000
56.3600 278.0000 1.0000
56.3700 289.0000 1.0000
56.3800 262.0000 1.0000
56.3900 280.0000 1.0000
56.4000 270.0000 1.0000
56.4100 270.0000 1.0000
56.4200 261.0000 1.0000
56.4300 288.0000 1.0000
56.4400 289.0000 1.0000
56.4500 285.0000 1.0000
56.4600 279.0000 1.0000
56.4700 274.0000 1.0000
56.4800 259.0000 1.0000
56.4900 269.0000 1.0000
56.5000 257.0000 1.0000
56.5100 269.0000 1.0000
56.5200 254.0000 1.0000
56.5300 267.0000 1.0000
56.5400 276.0000 1.0000
56.5500 279.0000 1.0000
56.5600 279.0000 1.0000
56.5700 266.0000 1.0000
56.5800 303.0000 1.0000
56.5900 268.0000 1.0000
56.6000 283.0000 1.0000
56.6100 257.0000 1.0000
56.6200 259.0000 1.0000
56.6300 279.0000 1.0000
56.6400 265.0000 1.0000
56.6500 261.0000 1.0000
56.6600 310.0000 1.0000
56.6700 303.0000 1.0000
56.6800 276.0000 1.0000
56.6900 292.0000 1.0000
56.7000 280.0000 1.0000
56.7100 265.0000 1.0000
56.7200 274.0000 1.0000
56.7300 253.0000 1.0000
56.7400 290.0000 1.0000
56.7500 290.0000 1.0000
56.7600 272.0000 1.0000
56.7700 274.0000 1.0000
56.7800 284.0000 1.0000
56.7900 290.0000 1.0000
56.8000 268.0000 1.0000
56.8100 248.0000 1.0000
56.8200 272.0000 1.0000
56.8300 240.0000 1.0000
56.8400 248.0000 1.0000
56.8500 259.0000 1.0000
56.8600 286.0000 1.0000
56.8700 290.0000 1.0000
56.8800 291.0000 1.0000
56.8900 281.0000 1.0000
56.9000 307.0000 1.0000
56.9100 290.0000 1.0000
56.9200 272.0000 1.0000
56.9300 277.0000 1.0000
56.9400 285.0000 1.0000
56.9500 248.0000 1.0000
56.9600 269.0000 1.0000
56.9700 272.0000 1.0000
56.9800 249.0000 1.0000
56.9900 293.0000 1.0000
57.0000 273.0000 1.0000
57.0100 267.0000 1.0000
57.0200 283.0000 1.0000
57.0300 299.0000 1.0000
57.0400 260.0000 1.0000
57.0500 314.0000 1.0000
57.0600 282.0000 1.0000
57.0700 276.0000 1.0000
57.0800 276.0000 1.0000
57.0900 281.0000 1.0000
57.1000 305.0000 1.0000
57.1100 277.0000 1.0000
57.1200 300.0000 1.0000
57.1300 269.0000 1.0000
57.1400 285.0000 1.0000
57.1500 271.0000 1.0000
57.1600 272.0000 1.0000
57.1700 282.0000 1.0000
57.1800 282.0000 1.0000
57.1900 264.0000 1.0000
57.2000 282.0000 1.0000
57.2100 321.0000 1.0000
57.2200 298.0000 1.0000
57.2300 284.0000 1.0000
57.2400 268.0000 1.0000
57.2500 285.0000 1.0000
57.2600 294.0000 1.0000
57.2700 327.0000 1.0000
57.2800 289.0000 1.0000
57.2900 301.0000 1.0000
57.3000 294.0000 1.0000
57.3100 288.0000 1.0000
57.3200 279.0000 1.0000
57.3300 261.0000 1.0000
57.3400 283.0000 1.0000
57.3500 274.0000 1.0000
57.3600 289.0000 1.0000
57.3700 302.0000 1.0000
57.3800 263.0000 1.0000
57.3900 280.0000 1.0000
57.4000 269.0000 1.0000
57.4100 284.0000 1.0000
57.4200 304.0000 1.0000
57.4300 241.0000 1.0000
57.4400 295.0000 1.0000
57.4500 286.0000 1.0000
57.4600 286.0000 1.0000
57.4700 282.0000 1.0000
57.4800 287.0000 1.0000
57.4900 260.0000 1.0000
57.5000 282.0000 1.0000
57.5100 262.0000 1.0000
57.5200 252.0000 1.0000
57.5300 277.0000 1.0000
57.5400 291.0000 1.0000
57.5500 308.0000 1.0000
57.5600 302.0000 1.0000
57.5700 269.0000 1.0000
57.5800 264.0000 1.0000
57.5900 272.0000 1.0000
57.6000 275.0000 1.0000
57.6100 300.0000 1.0000
57.6200 293.0000 1.0000
57.6300 253.0000 1.0000
57.6400 287.0000 1.0000
57.6500 268.0000 1.0000
57.6600 281.0000 1.0000
57.6700 287.0000 1.0000
57.6800 299.0000 1.0000
57.6900 280.0000 1.0000
57.7000 289.0000 1.0000
57.7100 264.0000 1.0000
57.7200 304.0000 1.0000
57.7300 266.0000 1.0000
57.7400 274.0000 1.0000
57.7500 257.0000 1.0000
57.7600 295.0000 1.0000
57.7700 297.0000 1.0000
57.7800 296.0000 1.0000
57.7900 292.0000 1.0000
57.8000 273.0000 1.0000
57.8100 270.0000 1.0000
57.8200 295.0000 1.0000
57.8300 300.0000 1.0000
57.8400 280.0000 1.0000
57.8500 307.0000 1.0000
57.8600 272.0000 1.0000
57.8700 262.0000 1.0000
57.8800 296.0000 1.0000
57.8900 276.0000 1.0000
57.9000 248.0000 1.0000
57.9100 282.0000 1.0000
57.9200 300.0000 1.0000
57.9300 249.0000 1.0000
57.9400 256.0000 1.0000
57.9500 280.0000 1.0000
57.9600 279.0000 1.0000
57.9700 274.0000 1.0000
57.9800 270.0000 1.0000
57.9900 286.0000 1.0000
58.0000 284.0000 1.0000
58.0100 279.0000 1.0000
58.0200 269.0000 1.0000
58.0300 283.0000 1.0000
58.0400 277.0000 1.0000
58.0500 286.0000 1.0000
58.0600 278.0000 1.0000
58.0700 271.0000 1.0000
58.0800 268.0000 1.0000
58.0900 255.0000 1.0000
58.1000 260.0000 1.0000
58.1100 273.0000 1.0000
58.1200 293.0000 1.0000
58.1300 292.0000 1.0000
58.1400 266.0000 1.0000
58.1500 269.0000 1.0000
58.1600 305.0000 1.0000
58.1700 266.0000 1.0000
58.1800 291.0000 1.0000
58.1900 262.0000 1.0000
58.2000 252.0000 1.0000
58.2100 263.0000 1.0000
58.2200 270.0000 1.0000
58.2300 295.0000 1.0000
58.2400 292.0000 1.0000
58.2500 270.0000 1.0000
58.2600 289.0000 1.0000
58.2700 288.0000 1.0000
58.2800 261.0000 1.0000
58.2900 260.0000 1.0000
58.3000 264.0000 1.0000
58.3100 275.0000 1.0000
58.3200 274.0000 1.0000
58.3300 255.0000 1.0000
58.3400 279.0000 1.0000
58.3500 294.0000 1.0000
58.3600 263.0000 1.0000
58.3700 253.0000 1.0000
58.3800 253.0000 1.0000
58.3900 302.0000 1.0000
58.4000 289.0000 1.0000
58.4100 287.0000 1.0000
58.4200 278.0000 1.0000
58.4300 272.0000 1.0000
58.4400 266.0000 1.0000
58.4500 290.0000 1.0000
58.4600 312.0000 1.0000
58.4700 288.0000 1.0000
58.4800 266.0000 1.0000
58.4900 287.0000 1.0000
58.5000 290.0000 1.0000
58.5100 296.0000 1.0000
58.5200 274.0000 1.0000
58.5300 259.0000 1.0000
58.5400 253.0000 1.0000
58.5500 251.0000 1.0000
58.5600 279.0000 1.0000
58.5700 251.0000 1.0000
58.5800 284.0000 1.0000
58.5900 288.0000 1.0000
58.6000 275.0000 1.0000
58.6100 289.0000 1.0000
58.6200 280.0000 1.0000
58.6300 274.0000 1.0000
58.6400 274.0000 1.0000
58.6500 297.0000 1.0000
58.6600 271.0000 1.0000
58.6700 282.0000 1.0000
58.6800 269.0000 1.0000
58.6900 288.0000 1.0000
58.7000 259.0000 1.0000
58.7100 279.0000 1.0000
58.7200 276.0000 1.0000
58.7300 260.0000 1.0000
58.7400 268.0000 1.0000
58.7500 295.0000 1.0000
58.7600 268.0000 1.0000
58.7700 271.0000 1.0000
58.7800 260.0000 1.0000
58.7900 273.0000 1.0000
58.8000 272.0000 1.0000
58.8100 286.0000 1.0000
58.8200 269.0000 1.0000
58.8300 284.0000 1.0000
58.8400 249.0000 1.0000
58.8500 258.0000 1.0000
58.8600 284.0000 1.0000
58.8700 261.0000 1.0000
58.8800 289.0000 1.0000
58.8900 278.0000 1.0000
58.9000 287.0000 1.0000
58.9100 271.0000 1.0000
58.9200 294.0000 1.0000
58.9300 294.0000 1.0000
58.9400 251.0000 1.0000
58.9500 273.0000 1.0000
58.9600 285.0000 1.0000
58.9700 287.0000 1.0000
58.9800 274.0000 1.0000
58.9900 264.0000 1.0000
59.0000 247.0000 1.0000
59.0100 268.0000 1.0000
59.0200 273.0000 1.0000
59.0300 268.0000 1.0000
59.0400 292.0000 1.0000
59.0500 278.0000 1.0000
59.0600 260.0000 1.0000
59.0700 258.0000 1.0000
59.0800 295.0000 1.0000
59.0900 272.0000 1.0000
59.1000 240.0000 1.0000
59.1100 260.0000 1.0000
59.1200 295.0000 1.0000
59.1300 308.0000 1.0000
59.1400 279.0000 1.0000
59.1500 258.0000 1.0000
59.1600 267.0000 1.0000
59.1700 254.0000 1.0000
59.1800 269.0000 1.0000
59.1900 285.0000 1.0000
59.2000 261.0000 1.0000
59.2100 281.0000 1.0000
59.2200 278.0000 1.0000
59.2300 274.0000 1.0000
59.2400 267.0000 1.0000
59.2500 262.0000 1.0000
59.2600 274.0000 1.0000
59.2700 268.0000 1.0000
59.2800 253.0000 1.0000
59.2900 270.0000 1.0000
59.3000 281.0000 1.0000
59.3100 278.0000 1.0000
59.3200 255.0000 1.0000
59.3300 262.0000 1.0000
59.3400 277.0000 1.0000
59.3500 258.0000 1.0000
59.3600 263.0000 1.0000
59.3700 268.0000 1.0000
59.3800 256.0000 1.0000
59.3900 277.0000 1.0000
59.4000 281.0000 1.0000
59.4100 271.0000 1.0000
59.4200 290.0000 1.0000
59.4300 249.0000 1.0000
59.4400 279.0000 1.0000
59.4500 280.0000 1.0000
59.4600 281.0000 1.0000
59.4700 275.0000 1.0000
59.4800 304.0000 1.0000
59.4900 297.0000 1.0000
59.5000 300.0000 1.0000
59.5100 259.0000 1.0000
59.5200 294.0000 1.0000
59.5300 261.0000 1.0000
59.5400 292.0000 1.0000
59.5500 281.0000 1.0000
59.5600 270.0000 1.0000
59.5700 280.0000 1.0000
59.5800 272.0000 1.0000
59.5900 257.0000 1.0000
59.6000 270.0000 1.0000
59.6100 271.0000 1.0000
59.6200 266.0000 1.0000
59.6300 262.0000 1.0000
59.6400 265.0000 1.0000
59.6500 269.0000 1.0000
59.6600 246.0000 1.0000
59.6700 274.0000 1.0000
59.6800 272.0000 1.0000
59.6900 252.0000 1.0000
59.7000 285.0000 1.0000
59.7100 277.0000 1.0000
59.7200 302.0000 1.0000
59.7300 301.0000 1.0000
59.7400 268.0000 1.0000
59.7500 253.0000 1.0000
59.7600 277.0000 1.0000
59.7700 289.0000 1.0000
59.7800 264.0000 1.0000
59.7900 287.0000 1.0000
59.8000 283.0000 1.0000
59.8100 251.0000 1.0000
59.8200 262.0000 1.0000
59.8300 287.0000 1.0000
59.8400 277.0000 1.0000
59.8500 277.0000 1.0000
59.8600 267.0000 1.0000
59.8700 262.0000 1.0000
59.8800 258.0000 1.0000
59.8900 258.0000 1.0000
59.9000 251.0000 1.0000
59.9100 271.0000 1.0000
59.9200 275.0000 1.0000
59.9300 286.0000 1.0000
59.9400 290.0000 1.0000
59.9500 284.0000 1.0000
59.9600 269.0000 1.0000
59.9700 255.0000 1.0000
59.9800 249.0000 1.0000
59.9900 280.0000 1.0000
60.0000 270.0000 1.0000
60.0100 247.0000 1.0000
60.0200 259.0000 1.0000
60.0300 259.0000 1.0000
60.0400 281.0000 1.0000
60.0500 258.0000 1.0000
60.0600 240.0000 1.0000
60.0700 279.0000 1.0000
60.0800 254.0000 1.0000
60.0900 252.0000 1.0000
60.1000 253.0000 1.0000
60.1100 269.0000 1.0000
60.1200 289.0000 1.0000
60.1300 253.0000 1.0000
60.1400 258.0000 1.0000
60.1500 279.0000 1.0000
60.1600 253.0000 1.0000
60.1700 251.0000 1.0000
60.1800 271.0000 1.0000
60.1900 289.0000 1.0000
60.2000 274.0000 1.0000
60.2100 270.0000 1.0000
60.2200 275.0000 1.0000
60.2300 264.0000 1.0000
60.2400 273.0000 1.0000
60.2500 256.0000 1.0000
60.2600 270.0000 1.0000
60.2700 271.0000 1.0000
60.2800 257.0000 1.0000
60.2900 248.0000 1.0000
60.3000 277.0000 1.0000
60.3100 280.0000 1.0000
60.3200 272.0000 1.0000
60.3300 273.0000 1.0000
60.3400 287.0000 1.0000
60.3500 264.0000 1.0000
60.3600 280.0000 1.0000
60.3700 290.0000 1.0000
60.3800 264.0000 1.0000
60.3900 261.0000 1.0000
60.4000 268.0000 1.0000
60.4100 287.0000 1.0000
60.4200 283.0000 1.0000
60.4300 265.0000 1.0000
60.4400 264.0000 1.0000
60.4500 277.0000 1.0000
60.4600 267.0000 1.0000
60.4700 255.0000 1.0000
60.4800 276.0000 1.0000
60.4900 267.0000 1.0000
60.5000 253.0000 1.0000
60.5100 271.0000 1.0000
60.5200 285.0000 1.0000
60.5300 291.0000 1.0000
60.5400 267.0000 1.0000
60.5500 275.0000 1.0000
60.5600 280.0000 1.0000
60.5700 288.0000 1.0000
60.5800 260.0000 1.0000
60.5900 293.0000 1.0000
60.6000 310.0000 1.0000
60.6100 266.0000 1.0000
60.6200 264.0000 1.0000
60.6300 269.0000 1.0000
60.6400 262.0000 1.0000
60.6500 263.0000 1.0000
60.6600 281.0000 1.0000
60.6700 269.0000 1.0000
60.6800 281.0000 1.0000
60.6900 284.0000 1.0000
60.7000 253.0000 1.0000
60.7100 282.0000 1.0000
60.7200 278.0000 1.0000
60.7300 292.0000 1.0000
60.7400 279.0000 1.0000
60.7500 285.0000 1.0000
60.7600 268.0000 1.0000
60.7700 256.0000 1.0000
60.7800 270.0000 1.0000
60.7900 254.0000 1.0000
60.8000 265.0000 1.0000
60.8100 281.0000 1.0000
60.8200 276.0000 1.0000
60.8300 309.0000 1.0000
60.8400 276.0000 1.0000
60.8500 295.0000 1.0000
60.8600 303.0000 1.0000
60.8700 272.0000 1.0000
60.8800 288.0000 1.0000
60.8900 289.0000 1.0000
60.9000 300.0000 1.0000
60.9100 329.0000 1.0000
60.9200 262.0000 1.0000
60.9300 280.0000 1.0000
60.9400 271.0000 1.0000
60.9500 275.0000 1.0000
60.9600 302.0000 1.0000
60.9700 263.0000 1.0000
60.9800 278.0000 1.0000
60.9900 296.0000 1.0000
61.0000 265.0000 1.0000
61.0100 290.0000 1.0000
61.0200 307.0000 1.0000
61.0300 306.0000 1.0000
61.0400 273.0000 1.0000
61.0500 289.0000 1.0000
61.0600 311.0000 1.0000
61.0700 285.0000 1.0000
61.0800 282.0000 1.0000
61.0900 271.0000 1.0000
61.1000 286.0000 1.0000
61.1100 294.0000 1.0000
61.1200 298.0000 1.0000
61.1300 296.0000 1.0000
61.1400 283.0000 1.0000
61.1500 311.0000 1.0000
61.1600 323.0000 1.0000
61.1700 301.0000 1.0000
61.1800 305.0000 1.0000
61.1900 340.0000 1.0000
61.2000 311.0000 1.0000
61.2100 335.0000 1.0000
61.2200 309.0000 1.0000
61.2300 314.0000 1.0000
61.2400 318.0000 1.0000
61.2500 310.0000 1.0000
61.2600 343.0000 1.0000
61.2700 317.0000 1.0000
61.2800 361.0000 1.0000
61.2900 347.0000 1.0000
61.3000 334.0000 1.0000
61.3100 384.0000 1.0000
61.3200 390.0000 1.0000
61.3300 386.0000 1.0000
61.3400 396.0000 1.0000
61.3500 350.0000 1.0000
61.3600 397.0000 1.0000
61.3700 395.0000 1.0000
61.3800 452.0000 1.0000
61.3900 460.0000 1.0000
61.4000 451.0000 1.0000
61.4100 450.0000 1.0000
61.4200 475.0000 1.0000
61.4300 482.0000 1.0000
61.4400 476.0000 1.0000
61.4500 503.0000 1.0000
61.4600 510.0000 1.0000
61.4700 543.0000 1.0000
61.4800 540.0000 1.0000
61.4900 561.0000 1.0000
61.5000 564.0000 1.0000
61.5100 564.0000 1.0000
61.5200 543.0000 1.0000
61.5300 590.0000 1.0000
61.5400 560.0000 1.0000
61.5500 576.0000 1.0000
61.5600 565.0000 1.0000
61.5700 580.0000 1.0000
61.5800 591.0000 1.0000
61.5900 547.0000 1.0000
61.6000 587.0000 1.0000
61.6100 541.0000 1.0000
61.6200 545.0000 1.0000
61.6300 588.0000 1.0000
61.6400 558.0000 1.0000
61.6500 551.0000 1.0000
61.6600 577.0000 1.0000
61.6700 540.0000 1.0000
61.6800 517.0000 1.0000
61.6900 510.0000 1.0000
61.7000 491.0000 1.0000
61.7100 495.0000 1.0000
61.7200 465.0000 1.0000
61.7300 490.0000 1.0000
61.7400 478.0000 1.0000
61.7500 419.0000 1.0000
61.7600 473.0000 1.0000
61.7700 433.0000 1.0000
61.7800 445.0000 1.0000
61.7900 446.0000 1.0000
61.8000 435.0000 1.0000
61.8100 427.0000 1.0000
61.8200 410.0000 1.0000
61.8300 414.0000 1.0000
61.8400 415.0000 1.0000
61.8500 420.0000 1.0000
61.8600 374.0000 1.0000
61.8700 371.0000 1.0000
61.8800 345.0000 1.0000
61.8900 369.0000 1.0000
61.9000 370.0000 1.0000
61.9100 313.0000 1.0000
61.9200 350.0000 1.0000
61.9300 355.0000 1.0000
61.9400 310.0000 1.0000
61.9500 305.0000 1.0000
61.9600 319.0000 1.0000
61.9700 347.0000 1.0000
61.9800 345.0000 1.0000
61.9900 325.0000 1.0000
62.0000 318.0000 1.0000
62.0100 309.0000 1.0000
62.0200 314.0000 1.0000
62.0300 317.0000 1.0000
62.0400 327.0000 1.0000
62.0500 321.0000 1.0000
62.0600 331.0000 1.0000
62.0700 310.0000 1.0000
62.0800 305.0000 1.0000
62.0900 321.0000 1.0000
62.1000 292.0000 1.0000
62.1100 312.0000 1.0000
62.1200 316.0000 1.0000
62.1300 281.0000 1.0000
62.1400 306.0000 1.0000
62.1500 311.0000 1.0000
62.1600 302.0000 1.0000
62.1700 306.0000 1.0000
62.1800 292.0000 1.0000
62.1900 277.0000 1.0000
62.2000 293.0000 1.0000
62.2100 310.0000 1.0000
62.2200 310.0000 1.0000
62.2300 295.0000 1.0000
62.2400 274.0000 1.0000
62.2500 309.0000 1.0000
62.2600 279.0000 1.0000
62.2700 267.0000 1.0000
62.2800 313.0000 1.0000
62.2900 302.0000 1.0000
62.3000 285.0000 1.0000
62.3100 275.0000 1.0000
62.3200 281.0000 1.0000
62.3300 285.0000 1.0000
62.3400 292.0000 1.0000
62.3500 315.0000 1.0000
62.3600 310.0000 1.0000
62.3700 332.0000 1.0000
62.3800 298.0000 1.0000
62.3900 305.0000 1.0000
62.4000 321.0000 1.0000
62.4100 310.0000 1.0000
62.4200 299.0000 1.0000
62.4300 289.0000 1.0000
62.4400 297.0000 1.0000
62.4500 324.0000 1.0000
62.4600 316.0000 1.0000
62.4700 279.0000 1.0000
62.4800 280.0000 1.0000
62.4900 256.0000 1.0000
62.5000 316.0000 1.0000
62.5100 291.0000 1.0000
62.5200 296.0000 1.0000
62.5300 279.0000 1.0000
62.5400 286.0000 1.0000
62.5500 296.0000 1.0000
62.5600 275.0000 1.0000
62.5700 263.0000 1.0000
62.5800 283.0000 1.0000
62.5900 267.0000 1.0000
62.6000 290.0000 1.0000
62.6100 294.0000 1.0000
62.6200 284.0000 1.0000
62.6300 279.0000 1.0000
62.6400 265.0000 1.0000
62.6500 289.0000 1.0000
62.6600 286.0000 1.0000
62.6700 293.0000 1.0000
62.6800 275.0000 1.0000
62.6900 269.0000 1.0000
62.7000 270.0000 1.0000
62.7100 294.0000 1.0000
62.7200 289.0000 1.0000
62.7300 287.0000 1.0000
62.7400 271.0000 1.0000
62.7500 276.0000 1.0000
62.7600 291.0000 1.0000
62.7700 273.0000 1.0000
62.7800 288.0000 1.0000
62.7900 280.0000 1.0000
62.8000 282.0000 1.0000
62.8100 275.0000 1.0000
62.8200 280.0000 1.0000
62.8300 253.0000 1.0000
62.8400 268.0000 1.0000
62.8500 263.0000 1.0000
62.8600 263.0000 1.0000
62.8700 282.0000 1.0000
62.8800 284.0000 1.0000
62.8900 285.0000 1.0000
62.9000 259.0000 1.0000
62.9100 278.0000 1.0000
62.9200 241.0000 1.0000
62.9300 272.0000 1.0000
62.9400 278.0000 1.0000
62.9500 269.0000 1.0000
62.9600 276.0000 1.0000
62.9700 260.0000 1.0000
62.9800 266.0000 1.0000
62.9900 251.0000 1.0000
63.0000 277.0000 1.0000
63.0100 252.0000 1.0000
63.0200 277.0000 1.0000
63.0300 281.0000 1.0000
63.0400 266.0000 1.0000
63.0500 277.0000 1.0000
63.0600 272.0000 1.0000
63.0700 311.0000 1.0000
63.0800 284.0000 1.0000
63.0900 258.0000 1.0000
63.1000 276.0000 1.0000
63.1100 269.0000 1.0000
63.1200 282.0000 1.0000
63.1300 275.0000 1.0000
63.1400 247.0000 1.0000
63.1500 263.0000 1.0000
63.1600 288.0000 1.0000
63.1700 277.0000 1.0000
63.1800 263.0000 1.0000
63.1900 281.0000 1.0000
63.2000 268.0000 1.0000
63.2100 271.0000 1.0000
63.2200 250.0000 1.0000
63.2300 283.0000 1.0000
63.2400 279.0000 1.0000
63.2500 275.0000 1.0000
63.2600 283.0000 1.0000
63.2700 283.0000 1.0000
63.2800 276.0000 1.0000
63.2900 314.0000 1.0000
63.3000 322.0000 1.0000
63.3100 251.0000 1.0000
63.3200 277.0000 1.0000
63.3300 282.0000 1.0000
63.3400 292.0000 1.0000
63.3500 302.0000 1.0000
63.3600 270.0000 1.0000
63.3700 258.0000 1.0000
63.3800 285.0000 1.0000
63.3900 298.0000 1.0000
63.4000 281.0000 1.0000
63.4100 260.0000 1.0000
63.4200 275.0000 1.0000
63.4300 268.0000 1.0000
63.4400 285.0000 1.0000
63.4500 266.0000 1.0000
63.4600 262.0000 1.0000
63.4700 239.0000 1.0000
63.4800 290.0000 1.0000
63.4900 283.0000 1.0000
63.5000 262.0000 1.0000
63.5100 260.0000 1.0000
63.5200 256.0000 1.0000
63.5300 292.0000 1.0000
63.5400 275.0000 1.0000
63.5500 279.0000 1.0000
63.5600 248.0000 1.0000
63.5700 287.0000 1.0000
63.5800 268.0000 1.0000
63.5900 280.0000 1.0000
63.6000 268.0000 1.0000
63.6100 284.0000 1.0000
63.6200 288.0000 1.0000
63.6300 271.0000 1.0000
63.6400 283.0000 1.0000
63.6500 269.0000 1.0000
63.6600 273.0000 1.0000
63.6700 314.0000 1.0000
63.6800 325.0000 1.0000
63.6900 294.0000 1.0000
63.7000 299.0000 1.0000
63.7100 291.0000 1.0000
63.7200 276.0000 1.0000
63.7300 281.0000 1.0000
63.7400 290.0000 1.0000
63.7500 302.0000 1.0000
63.7600 329.0000 1.0000
63.7700 333.0000 1.0000
63.7800 334.0000 1.0000
63.7900 314.0000 1.0000
63.8000 340.0000 1.0000
63.8100 321.0000 1.0000
63.8200 296.0000 1.0000
63.8300 282.0000 1.0000
63.8400 329.0000 1.0000
63.8500 352.0000 1.0000
63.8600 345.0000 1.0000
63.8700 347.0000 1.0000
63.8800 393.0000 1.0000
63.8900 396.0000 1.0000
63.9000 380.0000 1.0000
63.9100 346.0000 1.0000
63.9200 388.0000 1.0000
63.9300 421.0000 1.0000
63.9400 380.0000 1.0000
63.9500 390.0000 1.0000
63.9600 381.0000 1.0000
63.9700 366.0000 1.0000
63.9800 397.0000 1.0000
63.9900 394.0000 1.0000
64.0000 388.0000 1.0000
64.0100 390.0000 1.0000
64.0200 391.0000 1.0000
64.0300 373.0000 1.0000
64.0400 355.0000 1.0000
64.0500 378.0000 1.0000
64.0600 352.0000 1.0000
64.0700 384.0000 1.0000
64.0800 381.0000 1.0000
64.0900 370.0000 1.0000
64.1000 383.0000 1.0000
64.1100 361.0000 1.0000
64.1200 362.0000 1.0000
64.1300 369.0000 1.0000
64.1400 356.0000 1.0000
64.1500 338.0000 1.0000
64.1600 348.0000 1.0000
64.1700 351.0000 1.0000
64.1800 371.0000 1.0000
64.1900 364.0000 1.0000
64.2000 328.0000 1.0000
64.2100 360.0000 1.0000
64.2200 335.0000 1.0000
64.2300 308.0000 1.0000
64.2400 301.0000 1.0000
64.2500 307.0000 1.0000
64.2600 311.0000 1.0000
64.2700 309.0000 1.0000
64.2800 332.0000 1.0000
64.2900 309.0000 1.0000
64.3000 328.0000 1.0000
64.3100 305.0000 1.0000
64.3200 291.0000 1.0000
64.3300 298.0000 1.0000
64.3400 298.0000 1.0000
64.3500 300.0000 1.0000
64.3600 314.0000 1.0000
64.3700 314.0000 1.0000
64.3800 299.0000 1.0000
64.3900 287.0000 1.0000
64.4000 272.0000 1.0000
64.4100 275.0000 1.0000
64.4200 269.0000 1.0000
64.4300 273.0000 1.0000
64.4400 293.0000 1.0000
64.4500 286.0000 1.0000
64.4600 278.0000 1.0000
64.4700 284.0000 1.0000
64.4800 292.0000 1.0000
64.4900 264.0000 1.0000
64.5000 288.0000 1.0000
64.5100 285.0000 1.0000
64.5200 299.0000 1.0000
64.5300 305.0000 1.0000
64.5400 293.0000 1.0000
64.5500 290.0000 1.0000
64.5600 286.0000 1.0000
64.5700 298.0000 1.0000
64.5800 273.0000 1.0000
64.5900 288.0000 1.0000
64.6000 293.0000 1.0000
64.6100 308.0000 1.0000
64.6200 285.0000 1.0000
64.6300 283.0000 1.0000
64.6400 270.0000 1.0000
64.6500 279.0000 1.0000
64.6600 283.0000 1.0000
64.6700 279.0000 1.0000
64.6800 279.0000 1.0000
64.6900 263.0000 1.0000
64.7000 276.0000 1.0000
64.7100 296.0000 1.0000
64.7200 279.0000 1.0000
64.7300 279.0000 1.0000
64.7400 302.0000 1.0000
64.7500 278.0000 1.0000
64.7600 265.0000 1.0000
64.7700 288.0000 1.0000
64.7800 269.0000 1.0000
64.7900 278.0000 1.0000
64.8000 286.0000 1.0000
64.8100 334.0000 1.0000
64.8200 320.0000 1.0000
64.8300 280.0000 1.0000
64.8400 282.0000 1.0000
64.8500 282.0000 1.0000
64.8600 289.0000 1.0000
64.8700 272.0000 1.0000
64.8800 295.0000 1.0000
64.8900 294.0000 1.0000
64.9000 286.0000 1.0000
64.9100 291.0000 1.0000
64.9200 296.0000 1.0000
64.9300 296.0000 1.0000
64.9400 293.0000 1.0000
64.9500 315.0000 1.0000
64.9600 276.0000 1.0000
64.9700 284.0000 1.0000
64.9800 280.0000 1.0000
64.9900 276.0000 1.0000
65.0000 287.0000 1.0000
65.0100 309.0000 1.0000
65.0200 325.0000 1.0000
65.0300 295.0000 1.0000
65.0400 335.0000 1.0000
65.0500 304.0000 1.0000
65.0600 288.0000 1.0000
65.0700 301.0000 1.0000
65.0800 332.0000 1.0000
65.0900 322.0000 1.0000
65.1000 312.0000 1.0000
65.1100 314.0000 1.0000
65.1200 303.0000 1.0000
65.1300 318.0000 1.0000
65.1400 329.0000 1.0000
65.1500 298.0000 1.0000
65.1600 306.0000 1.0000
65.1700 339.0000 1.0000
65.1800 343.0000 1.0000
65.1900 357.0000 1.0000
65.2000 360.0000 1.0000
65.2100 367.0000 1.0000
65.2200 325.0000 1.0000
65.2300 326.0000 1.0000
65.2400 394.0000 1.0000
65.2500 359.0000 1.0000
65.2600 386.0000 1.0000
65.2700 415.0000 1.0000
65.2800 408.0000 1.0000
65.2900 434.0000 1.0000
65.3000 439.0000 1.0000
65.3100 408.0000 1.0000
65.3200 431.0000 1.0000
65.3300 451.0000 1.0000
65.3400 515.0000 1.0000
65.3500 512.0000 1.0000
65.3600 530.0000 1.0000
65.3700 550.0000 1.0000
65.3800 587.0000 1.0000
65.3900 589.0000 1.0000
65.4000 670.0000 1.0000
65.4100 656.0000 1.0000
65.4200 703.0000 1.0000
65.4300 737.0000 1.0000
65.4400 759.0000 1.0000
65.4500 762.0000 1.0000
65.4600 792.0000 1.0000
65.4700 870.0000 1.0000
65.4800 917.0000 1.0000
65.4900 901.0000 1.0000
65.5000 966.0000 1.0000
65.5100 969.0000 1.0000
65.5200 1000.0000 1.0000
65.5300 1004.0000 1.0000
65.5400 995.0000 1.0000
65.5500 1013.0000 1.0000
65.5600 1031.0000 1.0000
65.5700 1015.0000 1.0000
65.5800 1024.0000 1.0000
65.5900 998.0000 1.0000
65.6000 995.0000 1.0000
65.6100 932.0000 1.0000
65.6200 880.0000 1.0000
65.6300 889.0000 1.0000
65.6400 905.0000 1.0000
65.6500 856.0000 1.0000
65.6600 840.0000 1.0000
65.6700 862.0000 1.0000
65.6800 875.0000 1.0000
65.6900 830.0000 1.0000
65.7000 784.0000 1.0000
65.7100 774.0000 1.0000
65.7200 806.0000 1.0000
65.7300 746.0000 1.0000
65.7400 750.0000 1.0000
65.7500 721.0000 1.0000
65.7600 696.0000 1.0000
65.7700 683.0000 1.0000
65.7800 682.0000 1.0000
65.7900 643.0000 1.0000
65.8000 620.0000 1.0000
65.8100 604.0000 1.0000
65.8200 599.0000 1.0000
65.8300 528.0000 1.0000
65.8400 547.0000 1.0000
65.8500 469.0000 1.0000
65.8600 512.0000 1.0000
65.8700 478.0000 1.0000
65.8800 449.0000 1.0000
65.8900 456.0000 1.0000
65.9000 425.0000 1.0000
65.9100 415.0000 1.0000
65.9200 414.0000 1.0000
65.9300 380.0000 1.0000
65.9400 370.0000 1.0000
65.9500 403.0000 1.0000
65.9600 400.0000 1.0000
65.9700 388.0000 1.0000
65.9800 376.0000 1.0000
65.9900 378.0000 1.0000
66.0000 325.0000 1.0000
66.0100 332.0000 1.0000
66.0200 331.0000 1.0000
66.0300 321.0000 1.0000
66.0400 318.0000 1.0000
66.0500 327.0000 1.0000
66.0600 343.0000 1.0000
66.0700 340.0000 1.0000
66.0800 306.0000 1.0000
66.0900 332.0000 1.0000
66.1000 318.0000 1.0000
66.1100 276.0000 1.0000
66.1200 317.0000 1.0000
66.1300 305.0000 1.0000
66.1400 278.0000 1.0000
66.1500 294.0000 1.0000
66.1600 273.0000 1.0000
66.1700 285.0000 1.0000
66.1800 310.0000 1.0000
66.1900 304.0000 1.0000
66.2000 304.0000 1.0000
66.2100 286.0000 1.0000
66.2200 293.0000 1.0000
66.2300 278.0000 1.0000
66.2400 272.0000 1.0000
66.2500 266.0000 1.0000
66.2600 269.0000 1.0000
66.2700 269.0000 1.0000
66.2800 282.0000 1.0000
66.2900 278.0000 1.0000
66.3000 290.0000 1.0000
66.3100 262.0000 1.0000
66.3200 255.0000 1.0000
66.3300 288.0000 1.0000
66.3400 281.0000 1.0000
66.3500 285.0000 1.0000
66.3600 290.0000 1.0000
66.3700 282.0000 1.0000
66.3800 272.0000 1.0000
66.3900 228.0000 1.0000
66.4000 274.0000 1.0000
66.4100 291.0000 1.0000
66.4200 268.0000 1.0000
66.4300 256.0000 1.0000
66.4400 283.0000 1.0000
66.4500 245.0000 1.0000
66.4600 269.0000 1.0000
66.4700 256.0000 1.0000
66.4800 292.0000 1.0000
66.4900 290.0000 1.0000
66.5000 262.0000 1.0000
66.5100 261.0000 1.0000
66.5200 276.0000 1.0000
66.5300 251.0000 1.0000
66.5400 267.0000 1.0000
66.5500 284.0000 1.0000
66.5600 283.0000 1.0000
66.5700 283.0000 1.0000
66.5800 284.0000 1.0000
66.5900 269.0000 1.0000
66.6000 271.0000 1.0000
66.6100 248.0000 1.0000
66.6200 266.0000 1.0000
66.6300 270.0000 1.0000
66.6400 281.0000 1.0000
66.6500 264.0000 1.0000
66.6600 252.0000 1.0000
66.6700 267.0000 1.0000
66.6800 270.0000 1.0000
66.6900 265.0000 1.0000
66.7000 260.0000 1.0000
66.7100 257.0000 1.0000
66.7200 258.0000 1.0000
66.7300 265.0000 1.0000
66.7400 265.0000 1.0000
66.7500 246.0000 1.0000
66.7600 259.0000 1.0000
66.7700 267.0000 1.0000
66.7800 259.0000 1.0000
66.7900 246.0000 1.0000
66.8000 254.0000 1.0000
66.8100 240.0000 1.0000
66.8200 272.0000 1.0000
66.8300 284.0000 1.0000
66.8400 261.0000 1.0000
66.8500 234.0000 1.0000
66.8600 254.0000 1.0000
66.8700 275.0000 1.0000
66.8800 260.0000 1.0000
66.8900 265.0000 1.0000
66.9000 258.0000 1.0000
66.9100 251.0000 1.0000
66.9200 235.0000 1.0000
66.9300 246.0000 1.0000
66.9400 236.0000 1.0000
66.9500 242.0000 1.0000
66.9600 232.0000 1.0000
66.9700 240.0000 1.0000
66.9800 222.0000 1.0000
66.9900 238.0000 1.0000
67.0000 236.0000 1.0000
67.0100 253.0000 1.0000
67.0200 271.0000 1.0000
67.0300 255.0000 1.0000
67.0400 270.0000 1.0000
67.0500 254.0000 1.0000
67.0600 267.0000 1.0000
67.0700 241.0000 1.0000
67.0800 270.0000 1.0000
67.0900 259.0000 1.0000
67.1000 248.0000 1.0000
67.1100 227.0000 1.0000
67.1200 291.0000 1.0000
67.1300 261.0000 1.0000
67.1400 247.0000 1.0000
67.1500 262.0000 1.0000
67.1600 235.0000 1.0000
67.1700 246.0000 1.0000
67.1800 243.0000 1.0000
67.1900 264.0000 1.0000
67.2000 251.0000 1.0000
67.2100 243.0000 1.0000
67.2200 246.0000 1.0000
67.2300 247.0000 1.0000
67.2400 263.0000 1.0000
67.2500 249.0000 1.0000
67.2600 241.0000 1.0000
67.2700 231.0000 1.0000
67.2800 288.0000 1.0000
67.2900 247.0000 1.0000
67.3000 242.0000 1.0000
67.3100 247.0000 1.0000
67.3200 228.0000 1.0000
67.3300 258.0000 1.0000
67.3400 275.0000 1.0000
67.3500 243.0000 1.0000
67.3600 260.0000 1.0000
67.3700 243.0000 1.0000
67.3800 252.0000 1.0000
67.3900 265.0000 1.0000
67.4000 245.0000 1.0000
67.4100 251.0000 1.0000
67.4200 274.0000 1.0000
67.4300 245.0000 1.0000
67.4400 275.0000 1.0000
67.4500 255.0000 1.0000
67.4600 254.0000 1.0000
67.4700 274.0000 1.0000
67.4800 270.0000 1.0000
67.4900 259.0000 1.0000
67.5000 253.0000 1.0000
67.5100 241.0000 1.0000
67.5200 265.0000 1.0000
67.5300 271.0000 1.0000
67.5400 271.0000 1.0000
67.5500 245.0000 1.0000
67.5600 233.0000 1.0000
67.5700 255.0000 1.0000
67.5800 252.0000 1.0000
67.5900 248.0000 1.0000
67.6000 254.0000 1.0000
67.6100 234.0000 1.0000
67.6200 242.0000 1.0000
67.6300 275.0000 1.0000
67.6400 252.0000 1.0000
67.6500 233.0000 1.0000
67.6600 248.0000 1.0000
67.6700 239.0000 1.0000
67.6800 235.0000 1.0000
67.6900 268.0000 1.0000
67.7000 255.0000 1.0000
67.7100 266.0000 1.0000
67.7200 233.0000 1.0000
67.7300 245.0000 1.0000
67.7400 237.0000 1.0000
67.7500 253.0000 1.0000
67.7600 236.0000 1.0000
67.7700 260.0000 1.0000
67.7800 252.0000 1.0000
67.7900 238.0000 1.0000
67.8000 228.0000 1.0000
67.8100 230.0000 1.0000
67.8200 222.0000 1.0000
67.8300 262.0000 1.0000
67.8400 255.0000 1.0000
67.8500 254.0000 1.0000
67.8600 253.0000 1.0000
67.8700 254.0000 1.0000
67.8800 234.0000 1.0000
67.8900 229.0000 1.0000
67.9000 256.0000 1.0000
67.9100 251.0000 1.0000
67.9200 233.0000 1.0000
67.9300 247.0000 1.0000
67.9400 273.0000 1.0000
67.9500 235.0000 1.0000
67.9600 248.0000 1.0000
67.9700 266.0000 1.0000
67.9800 253.0000 1.0000
67.9900 251.0000 1.0000
68.0000 251.0000 1.0000
68.0100 205.0000 1.0000
68.0200 256.0000 1.0000
68.0300 260.0000 1.0000
68.0400 240.0000 1.0000
68.0500 266.0000 1.0000
68.0600 232.0000 1.0000
68.0700 255.0000 1.0000
68.0800 254.0000 1.0000
68.0900 254.0000 1.0000
68.1000 248.0000 1.0000
68.1100 228.0000 1.0000
68.1200 242.0000 1.0000
68.1300 249.0000 1.0000
68.1400 251.0000 1.0000
68.1500 242.0000 1.0000
68.1600 241.0000 1.0000
68.1700 250.0000 1.0000
68.1800 245.0000 1.0000
68.1900 239.0000 1.0000
68.2000 235.0000 1.0000
68.2100 223.0000 1.0000
68.2200 252.0000 1.0000
68.2300 217.0000 1.0000
68.2400 237.0000 1.0000
68.2500 234.0000 1.0000
68.2600 246.0000 1.0000
68.2700 244.0000 1.0000
68.2800 230.0000 1.0000
68.2900 255.0000 1.0000
68.3000 226.0000 1.0000
68.3100 248.0000 1.0000
68.3200 230.0000 1.0000
68.3300 200.0000 1.0000
68.3400 217.0000 1.0000
68.3500 223.0000 1.0000
68.3600 238.0000 1.0000
68.3700 245.0000 1.0000
68.3800 222.0000 1.0000
68.3900 252.0000 1.0000
68.4000 215.0000 1.0000
68.4100 233.0000 1.0000
68.4200 225.0000 1.0000
68.4300 234.0000 1.0000
68.4400 230.0000 1.0000
68.4500 261.0000 1.0000
68.4600 244.0000 1.0000
68.4700 244.0000 1.0000
68.4800 238.0000 1.0000
68.4900 243.0000 1.0000
68.5000 203.0000 1.0000
68.5100 219.0000 1.0000
68.5200 233.0000 1.0000
68.5300 233.0000 1.0000
68.5400 228.0000 1.0000
68.5500 238.0000 1.0000
68.5600 226.0000 1.0000
68.5700 217.0000 1.0000
68.5800 243.0000 1.0000
68.5900 241.0000 1.0000
68.6000 231.0000 1.0000
68.6100 232.0000 1.0000
68.6200 261.0000 1.0000
68.6300 259.0000 1.0000
68.6400 229.0000 1.0000
68.6500 239.0000 1.0000
68.6600 243.0000 1.0000
68.6700 260.0000 1.0000
68.6800 239.0000 1.0000
68.6900 249.0000 1.0000
68.7000 247.0000 1.0000
68.7100 253.0000 1.0000
68.7200 238.0000 1.0000
68.7300 242.0000 1.0000
68.7400 254.0000 1.0000
68.7500 245.0000 1.0000
68.7600 229.0000 1.0000
68.7700 239.0000 1.0000
68.7800 238.0000 1.0000
68.7900 236.0000 1.0000
68.8000 240.0000 1.0000
68.8100 248.0000 1.0000
68.8200 249.0000 1.0000
68.8300 238.0000 1.0000
68.8400 246.0000 1.0000
68.8500 235.0000 1.0000
68.8600 249.0000 1.0000
68.8700 254.0000 1.0000
68.8800 269.0000 1.0000
68.8900 264.0000 1.0000
68.9000 226.0000 1.0000
68.9100 246.0000 1.0000
68.9200 254.0000 1.0000
68.9300 262.0000 1.0000
68.9400 249.0000 1.0000
68.9500 261.0000 1.0000
68.9600 254.0000 1.0000
68.9700 246.0000 1.0000
68.9800 248.0000 1.0000
68.9900 237.0000 1.0000
69.0000 228.0000 1.0000
69.0100 247.0000 1.0000
69.0200 224.0000 1.0000
69.0300 248.0000 1.0000
69.0400 242.0000 1.0000
69.0500 256.0000 1.0000
69.0600 231.0000 1.0000
69.0700 220.0000 1.0000
69.0800 255.0000 1.0000
69.0900 269.0000 1.0000
69.1000 243.0000 1.0000
69.1100 235.0000 1.0000
69.1200 258.0000 1.0000
69.1300 236.0000 1.0000
69.1400 252.0000 1.0000
69.1500 249.0000 1.0000
69.1600 224.0000 1.0000
69.1700 241.0000 1.0000
69.1800 249.0000 1.0000
69.1900 245.0000 1.0000
69.2000 231.0000 1.0000
69.2100 275.0000 1.0000
69.2200 251.0000 1.0000
69.2300 235.0000 1.0000
69.2400 236.0000 1.0000
69.2500 224.0000 1.0000
69.2600 264.0000 1.0000
69.2700 242.0000 1.0000
69.2800 246.0000 1.0000
69.2900 238.0000 1.0000
69.3000 261.0000 1.0000
69.3100 226.0000 1.0000
69.3200 243.0000 1.0000
69.3300 243.0000 1.0000
69.3400 256.0000 1.0000
69.3500 252.0000 1.0000
69.3600 249.0000 1.0000
69.3700 226.0000 1.0000
69.3800 230.0000 1.0000
69.3900 224.0000 1.0000
69.4000 244.0000 1.0000
69.4100 244.0000 1.0000
69.4200 223.0000 1.0000
69.4300 213.0000 1.0000
69.4400 223.0000 1.0000
69.4500 219.0000 1.0000
69.4600 240.0000 1.0000
69.4700 214.0000 1.0000
69.4800 227.0000 1.0000
69.4900 215.0000 1.0000
69.5000 252.0000 1.0000
69.5100 235.0000 1.0000
69.5200 217.0000 1.0000
69.5300 227.0000 1.0000
69.5400 236.0000 1.0000
69.5500 231.0000 1.0000
69.5600 240.0000 1.0000
69.5700 207.0000 1.0000
69.5800 234.0000 1.0000
69.5900 208.0000 1.0000
69.6000 232.0000 1.0000
69.6100 244.0000 1.0000
69.6200 246.0000 1.0000
69.6300 237.0000 1.0000
69.6400 236.0000 1.0000
69.6500 250.0000 1.0000
69.6600 231.0000 1.0000
69.6700 233.0000 1.0000
69.6800 227.0000 1.0000
69.6900 218.0000 1.0000
69.7000 249.0000 1.0000
69.7100 250.0000 1.0000
69.7200 225.0000 1.0000
69.7300 236.0000 1.0000
69.7400 249.0000 1.0000
69.7500 256.0000 1.0000
69.7600 227.0000 1.0000
69.7700 248.0000 1.0000
69.7800 246.0000 1.0000
69.7900 225.0000 1.0000
69.8000 250.0000 1.0000
69.8100 261.0000 1.0000
69.8200 244.0000 1.0000
69.8300 241.0000 1.0000
69.8400 234.0000 1.0000
69.8500 252.0000 1.0000
69.8600 240.0000 1.0000
69.8700 238.0000 1.0000
69.8800 248.0000 1.0000
69.8900 245.0000 1.0000
69.9000 227.0000 1.0000
69.9100 235.0000 1.0000
69.9200 239.0000 1.0000
69.9300 246.0000 1.0000
69.9400 221.0000 1.0000
69.9500 210.0000 1.0000
69.9600 243.0000 1.0000
69.9700 253.0000 1.0000
69.9800 231.0000 1.0000
69.9900 240.0000 1.0000
70.0000 225.0000 1.0000
*RAS_INT_END
*RAS_TEMPERATURE_START
*RAS_TEMPERATURE_END
*RAS_DATA_END
