*RAS_DATA_START
*RAS_HEADER_START
*DISP_FMT_X "%.2f"
*DISP_FMT_Y "%.0f"
*DISP_FULLSCALE "15340.0000000000"
*DISP_LINE_COLOR "255.0000000000"
*DISP_LINE_STYLE "0.0000000000"
*DISP_LINE_WIDTH "0.2500000000"
*DISP_NOTE "測定データ-4"
*DISP_OFFSET_Y "0.0000000000"
*DISP_PEAKSEARCH_UNIT_Y "cps"
*DISP_RANGE_BOTTOM "0.0000000000"
*DISP_RANGE_LEFT "20.0000000000"
*DISP_RANGE_LOGCUTOFF "0.0100000000"
*DISP_RANGE_RIGHT "70.0000000000"
*DISP_RANGE_TOP "15340.0000000000"
*DISP_SCALE_MODE_Y "0.0000000000"
*DISP_TAB_NAME "2θ/θ"
*DISP_TITLE_Y "強度"
*DISP_UNIT_Y "cps"
*DISP_WINDOW_NAME "MSG_MACROENGINE"
*FILE_COMMENT " "
*FILE_MD5 ""
*FILE_MEMO " "
*FILE_OPERATOR "Administrator"
*FILE_SAMPLE " "
*FILE_TYPE "RAS_RAW"
*FILE_USERGROUP "システムマネージャ"
*FILE_VERSION "1.0000000000"
*HW_ATTACHMENT_ID "ATT0025"
*HW_ATTACHMENT_NAME "標準|Standard"
*HW_COUNTER_ID-0 "CUT0025"
*HW_COUNTER_ID-1 "CUT0020"
*HW_COUNTER_ID-2 "CUT0020"
*HW_COUNTER_ID-3 "CSL0021"
*HW_COUNTER_ID-4 "CMC0021"
*HW_COUNTER_NAME-0 "D/teX Ultra|D/teX Ultra"
*HW_COUNTER_NAME-1 "None|None"
*HW_COUNTER_NAME-2 "None|None"
*HW_COUNTER_NAME-3 "BBM|BBM"
*HW_COUNTER_NAME-4 "検出器モノクロメータ|Detector monochromator"
*HW_COUNTER_SELECT_NAME "D/teX Ultra|D/teX Ultra"
*HW_GONIOMETER_ID "GON0023"
*HW_GONIOMETER_NAME "SmartLab|SmartLab"
*HW_GONIOMETER_RADIUS-0 "90.0"
*HW_GONIOMETER_RADIUS-1 "114.0"
*HW_GONIOMETER_RADIUS-2 "190.0"
*HW_GONIOMETER_RADIUS-3 "300.0"
*HW_GONIOMETER_RADIUS-4 "187.0"
*HW_GONIOMETER_RADIUS-5 "300.0"
*HW_GONIOMETER_RADIUS-6 "113.0"
*HW_GONIOMETER_RADIUS-7 "331.0"
*HW_I_OPT_ID-0 "CBO0021"
*HW_I_OPT_ID-1 "ICR0023"
*HW_I_OPT_ID-2 "ISL0021"
*HW_I_OPT_ID-3 "ISO0021"
*HW_I_OPT_ID-4 "IAD0021"
*HW_I_OPT_ID-5 "IPR0001"
*HW_I_OPT_NAME-0 "CBOユニット|CBO unit"
*HW_I_OPT_NAME-1 "標準入射光学ユニット|Standard incident optical unit"
*HW_I_OPT_NAME-2 "標準入射スリットボックス|Standard incident slit box"
*HW_I_OPT_NAME-3 "入射平行スリット|Incident parallel slit"
*HW_I_OPT_NAME-4 "長手制限スリット|Length limiting slit"
*HW_I_OPT_NAME-5 "None|None"
*HW_R_ATTENUATER_AUTOMODE "0"
*HW_R_OPT_ID-0 "RSS0021"
*HW_R_OPT_ID-1 "RCR0023"
*HW_R_OPT_ID-2 "RSO0021"
*HW_R_OPT_ID-3 "RRS0021"
*HW_R_OPT_ID-4 "ATN0021"
*HW_R_OPT_ID-5 "RFL0021"
*HW_R_OPT_ID-6 "RAD0021"
*HW_R_OPT_NAME-0 "標準受光スリットボックス1|Standard receiving slit box # 1"
*HW_R_OPT_NAME-1 "標準受光光学ユニット1|Standard receiving unit # 1"
*HW_R_OPT_NAME-2 "標準受光光学ユニット2|Standard receiving optical unit # 2"
*HW_R_OPT_NAME-3 "標準受光スリットボックス2|Standard receiving slit box # 2"
*HW_R_OPT_NAME-4 "標準アッテネータ|Standard Attenuator"
*HW_R_OPT_NAME-5 "Cu Kβ|Cu K-beta"
*HW_R_OPT_NAME-6 "調整用受光スリット|Alignment receiving slit"
*HW_SAMPLE_HOLDER_ID "SMP0023"
*HW_SAMPLE_HOLDER_NAME "標準Zステージ|Standard Z stage"
*HW_XG_CURRENT_MAX "50"
*HW_XG_CURRENT_MIN "2"
*HW_XG_CURRENT_RESOLUTION "1"
*HW_XG_CURRENT_UNIT "mA"
*HW_XG_FOCUS "1mm x 10mm"
*HW_XG_FOCUS_TYPE "Normal"
*HW_XG_ID ""
*HW_XG_NAME "3kW 封入管(ID:1200)|3kW Sealed tube(ID:1200)"
*HW_XG_TARGET_ATOMIC_NUMBER "29.0000000000"
*HW_XG_TARGET_NAME "Cu"
*HW_XG_TYPE "Hermetic"
*HW_XG_VOLTAGE_MAX "60"
*HW_XG_VOLTAGE_MIN "20"
*HW_XG_VOLTAGE_RESOLUTION "1"
*HW_XG_VOLTAGE_UNIT "kV"
*HW_XG_WATT_MAX "1.500"
*HW_XG_WATT_UNIT "kW"
*HW_XG_WAVE_LENGTH_ALPHA1 "1.540593"
*HW_XG_WAVE_LENGTH_ALPHA2 "1.544414"
*HW_XG_WAVE_LENGTH_BETA "1.392250"
*MEAS_COND_AXIS_NAME-0 "2θ/θ"
*MEAS_COND_AXIS_NAME-1 "2θ"
*MEAS_COND_AXIS_NAME-2 "ω"
*MEAS_COND_AXIS_NAME-3 "Z"
*MEAS_COND_AXIS_NAME-4 "2θ/ω"
*MEAS_COND_AXIS_NAME-5 "θs"
*MEAS_COND_AXIS_NAME-6 "θd"
*MEAS_COND_AXIS_NAME-7 "Ts"
*MEAS_COND_AXIS_NAME-8 "CBO選択スリット"
*MEAS_COND_AXIS_NAME-9 "M"
*MEAS_COND_AXIS_NAME-10 "入射平行スリット"
*MEAS_COND_AXIS_NAME-11 "入射スリット"
*MEAS_COND_AXIS_NAME-12 ""
*MEAS_COND_AXIS_NAME-13 "Zs"
*MEAS_COND_AXIS_NAME-14 "入射光学素子"
*MEAS_COND_AXIS_NAME-15 "長手制限スリット"
*MEAS_COND_AXIS_NAME-16 "センタースリット"
*MEAS_COND_AXIS_NAME-17 "フィルター"
*MEAS_COND_AXIS_NAME-18 "受光スリット1"
*MEAS_COND_AXIS_NAME-19 "受光スリット2"
*MEAS_COND_AXIS_NAME-20 "受光光学素子"
*MEAS_COND_AXIS_NAME-21 "受光平行スリット"
*MEAS_COND_AXIS_NAME-22 "調整用受光スリット"
*MEAS_COND_AXIS_NAME-23 ""
*MEAS_COND_AXIS_NAME-24 ""
*MEAS_COND_AXIS_NAME-25 "Zd"
*MEAS_COND_AXIS_NAME-26 "アッテネータ"
*MEAS_COND_AXIS_NAME-27 "検出器モノクロメータ"
*MEAS_COND_AXIS_NAME-28 "モノクロメータスリット"
*MEAS_COND_AXIS_NAME-29 "プライマリビーム"
*MEAS_COND_AXIS_NAME-30 "PHA"
*MEAS_COND_AXIS_NAME_INTERNAL-0 "TwoThetaTheta"
*MEAS_COND_AXIS_NAME_INTERNAL-1 "TwoTheta"
*MEAS_COND_AXIS_NAME_INTERNAL-2 "Omega"
*MEAS_COND_AXIS_NAME_INTERNAL-3 "Z"
*MEAS_COND_AXIS_NAME_INTERNAL-4 "TwoThetaOmega"
*MEAS_COND_AXIS_NAME_INTERNAL-5 "ThetaS"
*MEAS_COND_AXIS_NAME_INTERNAL-6 "ThetaD"
*MEAS_COND_AXIS_NAME_INTERNAL-7 "Ts"
*MEAS_COND_AXIS_NAME_INTERNAL-8 "CBO"
*MEAS_COND_AXIS_NAME_INTERNAL-9 "CBO-M"
*MEAS_COND_AXIS_NAME_INTERNAL-10 "IncidentSollerSlit"
*MEAS_COND_AXIS_NAME_INTERNAL-11 "IncidentSlitBox"
*MEAS_COND_AXIS_NAME_INTERNAL-12 "IncidentSlitBox-_Axis"
*MEAS_COND_AXIS_NAME_INTERNAL-13 "Zs"
*MEAS_COND_AXIS_NAME_INTERNAL-14 "IncidentMonochromator"
*MEAS_COND_AXIS_NAME_INTERNAL-15 "IncidentAxdSlit"
*MEAS_COND_AXIS_NAME_INTERNAL-16 "CenterSlit"
*MEAS_COND_AXIS_NAME_INTERNAL-17 "Filter"
*MEAS_COND_AXIS_NAME_INTERNAL-18 "ReceivingSlitBox1"
*MEAS_COND_AXIS_NAME_INTERNAL-19 "ReceivingSlitBox2"
*MEAS_COND_AXIS_NAME_INTERNAL-20 "ReceivingOptics"
*MEAS_COND_AXIS_NAME_INTERNAL-21 "ReceivingSollerSlit"
*MEAS_COND_AXIS_NAME_INTERNAL-22 "ReceivingAxdSlit"
*MEAS_COND_AXIS_NAME_INTERNAL-23 "ReceivingSlitBox1-_Axis"
*MEAS_COND_AXIS_NAME_INTERNAL-24 "ReceivingSlitBox2-_Axis"
*MEAS_COND_AXIS_NAME_INTERNAL-25 "ReceivingSlitBox2-Zd"
*MEAS_COND_AXIS_NAME_INTERNAL-26 "Attenuator"
*MEAS_COND_AXIS_NAME_INTERNAL-27 "CounterMonochromator"
*MEAS_COND_AXIS_NAME_INTERNAL-28 "CounterSlit"
*MEAS_COND_AXIS_NAME_INTERNAL-29 "IncidentPrimary"
*MEAS_COND_AXIS_NAME_INTERNAL-30 "PHA"
*MEAS_COND_AXIS_NAME_MAGICNO-0 "83951616.0000000000"
*MEAS_COND_AXIS_NAME_MAGICNO-1 "268632064.0000000000"
*MEAS_COND_AXIS_NAME_MAGICNO-2 "268500992.0000000000"
*MEAS_COND_AXIS_NAME_MAGICNO-3 "285278208.0000000000"
*MEAS_COND_AXIS_NAME_MAGICNO-4 "83951616.0000000000"
*MEAS_COND_AXIS_NAME_MAGICNO-5 "131072.0000000000"
*MEAS_COND_AXIS_NAME_MAGICNO-6 "131072.0000000000"
*MEAS_COND_AXIS_NAME_MAGICNO-7 "318898176.0000000000"
*MEAS_COND_AXIS_NAME_MAGICNO-8 "20971521.0000000000"
*MEAS_COND_AXIS_NAME_MAGICNO-9 "285343744.0000000000"
*MEAS_COND_AXIS_NAME_MAGICNO-10 "20971521.0000000000"
*MEAS_COND_AXIS_NAME_MAGICNO-11 "22020097.0000000000"
*MEAS_COND_AXIS_NAME_MAGICNO-12 "25165824.0000000000"
*MEAS_COND_AXIS_NAME_MAGICNO-13 "318898176.0000000000"
*MEAS_COND_AXIS_NAME_MAGICNO-14 "1.0000000000"
*MEAS_COND_AXIS_NAME_MAGICNO-15 "20971521.0000000000"
*MEAS_COND_AXIS_NAME_MAGICNO-16 "20971521.0000000000"
*MEAS_COND_AXIS_NAME_MAGICNO-17 "20971521.0000000000"
*MEAS_COND_AXIS_NAME_MAGICNO-18 "23068673.0000000000"
*MEAS_COND_AXIS_NAME_MAGICNO-19 "23068673.0000000000"
*MEAS_COND_AXIS_NAME_MAGICNO-20 "20971521.0000000000"
*MEAS_COND_AXIS_NAME_MAGICNO-21 "20971521.0000000000"
*MEAS_COND_AXIS_NAME_MAGICNO-22 "20971521.0000000000"
*MEAS_COND_AXIS_NAME_MAGICNO-23 "25165824.0000000000"
*MEAS_COND_AXIS_NAME_MAGICNO-24 "25165824.0000000000"
*MEAS_COND_AXIS_NAME_MAGICNO-25 "285343744.0000000000"
*MEAS_COND_AXIS_NAME_MAGICNO-26 "17301505.0000000000"
*MEAS_COND_AXIS_NAME_MAGICNO-27 "20971521.0000000000"
*MEAS_COND_AXIS_NAME_MAGICNO-28 "20971521.0000000000"
*MEAS_COND_AXIS_NAME_MAGICNO-29 "20971521.0000000000"
*MEAS_COND_AXIS_NAME_MAGICNO-30 "0.0000000000"
*MEAS_COND_AXIS_OFFSET-0 "-"
*MEAS_COND_AXIS_OFFSET-1 "-0.0310000000"
*MEAS_COND_AXIS_OFFSET-2 "0.3978000000"
*MEAS_COND_AXIS_OFFSET-3 "-"
*MEAS_COND_AXIS_OFFSET-4 "-"
*MEAS_COND_AXIS_OFFSET-5 "0.3978000000"
*MEAS_COND_AXIS_OFFSET-6 "-0.4288000000"
*MEAS_COND_AXIS_OFFSET-7 "-"
*MEAS_COND_AXIS_OFFSET-8 "-"
*MEAS_COND_AXIS_OFFSET-9 "-"
*MEAS_COND_AXIS_OFFSET-10 "-"
*MEAS_COND_AXIS_OFFSET-11 "-"
*MEAS_COND_AXIS_OFFSET-12 "-"
*MEAS_COND_AXIS_OFFSET-13 "-"
*MEAS_COND_AXIS_OFFSET-14 "-"
*MEAS_COND_AXIS_OFFSET-15 "-"
*MEAS_COND_AXIS_OFFSET-16 "-"
*MEAS_COND_AXIS_OFFSET-17 "-"
*MEAS_COND_AXIS_OFFSET-18 "-"
*MEAS_COND_AXIS_OFFSET-19 "-"
*MEAS_COND_AXIS_OFFSET-20 "-"
*MEAS_COND_AXIS_OFFSET-21 "-"
*MEAS_COND_AXIS_OFFSET-22 "-"
*MEAS_COND_AXIS_OFFSET-23 "-"
*MEAS_COND_AXIS_OFFSET-24 "-"
*MEAS_COND_AXIS_OFFSET-25 "-"
*MEAS_COND_AXIS_OFFSET-26 "-"
*MEAS_COND_AXIS_OFFSET-27 "-"
*MEAS_COND_AXIS_OFFSET-28 "-"
*MEAS_COND_AXIS_OFFSET-29 "-"
*MEAS_COND_AXIS_OFFSET-30 "-"
*MEAS_COND_AXIS_POSITION-0 "0.0000000000"
*MEAS_COND_AXIS_POSITION-1 "0.0000000000"
*MEAS_COND_AXIS_POSITION-2 "0.0000000000"
*MEAS_COND_AXIS_POSITION-3 "-2.9770000000"
*MEAS_COND_AXIS_POSITION-4 "0.0000000000"
*MEAS_COND_AXIS_POSITION-5 "0.0000000000"
*MEAS_COND_AXIS_POSITION-6 "0.0000000000"
*MEAS_COND_AXIS_POSITION-7 "-0.7498700000"
*MEAS_COND_AXIS_POSITION-8 "BB"
*MEAS_COND_AXIS_POSITION-9 "0.0000000000"
*MEAS_COND_AXIS_POSITION-10 "Soller_slit_5.0deg"
*MEAS_COND_AXIS_POSITION-11 "2/3deg"
*MEAS_COND_AXIS_POSITION-12 "2.2088000000"
*MEAS_COND_AXIS_POSITION-13 "-0.6412500000"
*MEAS_COND_AXIS_POSITION-14 "0.0000000000"
*MEAS_COND_AXIS_POSITION-15 "10.0mm"
*MEAS_COND_AXIS_POSITION-16 "None"
*MEAS_COND_AXIS_POSITION-17 "Cu_K-beta"
*MEAS_COND_AXIS_POSITION-18 "13.000mm"
*MEAS_COND_AXIS_POSITION-19 "13.000mm"
*MEAS_COND_AXIS_POSITION-20 "No_unit"
*MEAS_COND_AXIS_POSITION-21 "Soller_slit_5.0deg"
*MEAS_COND_AXIS_POSITION-22 "None"
*MEAS_COND_AXIS_POSITION-23 "13.0000000000"
*MEAS_COND_AXIS_POSITION-24 "13.0000000000"
*MEAS_COND_AXIS_POSITION-25 "0.0281300000"
*MEAS_COND_AXIS_POSITION-26 "Open"
*MEAS_COND_AXIS_POSITION-27 "None"
*MEAS_COND_AXIS_POSITION-28 "None"
*MEAS_COND_AXIS_POSITION-29 "None"
*MEAS_COND_AXIS_POSITION-30 "38.0000000000"
*MEAS_COND_AXIS_UNIT-0 "deg"
*MEAS_COND_AXIS_UNIT-1 "deg"
*MEAS_COND_AXIS_UNIT-2 "deg"
*MEAS_COND_AXIS_UNIT-3 "mm"
*MEAS_COND_AXIS_UNIT-4 "deg"
*MEAS_COND_AXIS_UNIT-5 "deg"
*MEAS_COND_AXIS_UNIT-6 "deg"
*MEAS_COND_AXIS_UNIT-7 "mm"
*MEAS_COND_AXIS_UNIT-8 ""
*MEAS_COND_AXIS_UNIT-9 "pulse"
*MEAS_COND_AXIS_UNIT-10 ""
*MEAS_COND_AXIS_UNIT-11 ""
*MEAS_COND_AXIS_UNIT-12 "mm"
*MEAS_COND_AXIS_UNIT-13 "mm"
*MEAS_COND_AXIS_UNIT-14 ""
*MEAS_COND_AXIS_UNIT-15 ""
*MEAS_COND_AXIS_UNIT-16 ""
*MEAS_COND_AXIS_UNIT-17 ""
*MEAS_COND_AXIS_UNIT-18 ""
*MEAS_COND_AXIS_UNIT-19 ""
*MEAS_COND_AXIS_UNIT-20 ""
*MEAS_COND_AXIS_UNIT-21 ""
*MEAS_COND_AXIS_UNIT-22 ""
*MEAS_COND_AXIS_UNIT-23 "mm"
*MEAS_COND_AXIS_UNIT-24 "mm"
*MEAS_COND_AXIS_UNIT-25 "mm"
*MEAS_COND_AXIS_UNIT-26 ""
*MEAS_COND_AXIS_UNIT-27 ""
*MEAS_COND_AXIS_UNIT-28 ""
*MEAS_COND_AXIS_UNIT-29 ""
*MEAS_COND_AXIS_UNIT-30 "div"
*MEAS_COND_COUNTER_CNTLOSS_CORR "0.0000000000"
*MEAS_COND_COUNTER_PHABASE "38.0000000000"
*MEAS_COND_COUNTER_PHAWINDOW "16.0000000000"
*MEAS_COND_COUNTER_PHA_UNIT "div"
*MEAS_COND_COUNTER_TAUDIFF "30.0000000000"
*MEAS_COND_COUNTER_TAUINT "0.0000000000"
*MEAS_COND_IRRADIATION_MODE "OFF"
*MEAS_COND_IRRADIATION_WIDTH ""
*MEAS_COND_OPT_ATTR "集中法"
*MEAS_COND_OPT_NAME "@集中法"
*MEAS_COND_UNSYMMETRIC_MODE "OFF"
*MEAS_COND_XG_CURRENT "30.0000000000"
*MEAS_COND_XG_VOLTAGE "40.0000000000"
*MEAS_COND_XG_WAVE_TYPE "Ka"
*MEAS_DATA_COUNT "5001.0000000000"
*MEAS_SCAN_AXIS_X "2θ/θ"
*MEAS_SCAN_AXIS_X_INTERNAL "TwoThetaTheta"
*MEAS_SCAN_END_TIME "05/18/23 19:24:15"
*MEAS_SCAN_MODE "CONTINUOUS"
*MEAS_SCAN_MONITOR "0"
*MEAS_SCAN_RESOLUTION_X "0.0002"
*MEAS_SCAN_SPEED "2.5"
*MEAS_SCAN_SPEED_UNIT "deg/min"
*MEAS_SCAN_START "20.0000000000"
*MEAS_SCAN_START_TIME "05/18/23 19:02:50"
*MEAS_SCAN_STEP "0.0100000000"
*MEAS_SCAN_STOP "70.0000000000"
*MEAS_SCAN_UNIT_X "deg"
*MEAS_SCAN_UNIT_Y "counts"
*RAS_HEADER_END
*RAS_INT_START
20.0000 973.0000 1.0000
20.0100 956.0000 1.0000
20.0200 916.0000 1.0000
20.0300 935.0000 1.0000
20.0400 902.0000 1.0000
20.0500 939.0000 1.0000
20.0600 936.0000 1.0000
20.0700 952.0000 1.0000
20.0800 903.0000 1.0000
20.0900 894.0000 1.0000
20.1000 869.0000 1.0000
20.1100 860.0000 1.0000
20.1200 920.0000 1.0000
20.1300 893.0000 1.0000
20.1400 945.0000 1.0000
20.1500 917.0000 1.0000
20.1600 882.0000 1.0000
20.1700 920.0000 1.0000
20.1800 947.0000 1.0000
20.1900 919.0000 1.0000
20.2000 912.0000 1.0000
20.2100 943.0000 1.0000
20.2200 914.0000 1.0000
20.2300 928.0000 1.0000
20.2400 861.0000 1.0000
20.2500 888.0000 1.0000
20.2600 927.0000 1.0000
20.2700 897.0000 1.0000
20.2800 930.0000 1.0000
20.2900 906.0000 1.0000
20.3000 903.0000 1.0000
20.3100 870.0000 1.0000
20.3200 945.0000 1.0000
20.3300 893.0000 1.0000
20.3400 903.0000 1.0000
20.3500 968.0000 1.0000
20.3600 942.0000 1.0000
20.3700 975.0000 1.0000
20.3800 947.0000 1.0000
20.3900 899.0000 1.0000
20.4000 955.0000 1.0000
20.4100 938.0000 1.0000
20.4200 932.0000 1.0000
20.4300 940.0000 1.0000
20.4400 940.0000 1.0000
20.4500 911.0000 1.0000
20.4600 911.0000 1.0000
20.4700 952.0000 1.0000
20.4800 888.0000 1.0000
20.4900 868.0000 1.0000
20.5000 844.0000 1.0000
20.5100 933.0000 1.0000
20.5200 881.0000 1.0000
20.5300 900.0000 1.0000
20.5400 892.0000 1.0000
20.5500 930.0000 1.0000
20.5600 915.0000 1.0000
20.5700 871.0000 1.0000
20.5800 884.0000 1.0000
20.5900 887.0000 1.0000
20.6000 942.0000 1.0000
20.6100 946.0000 1.0000
20.6200 941.0000 1.0000
20.6300 907.0000 1.0000
20.6400 877.0000 1.0000
20.6500 878.0000 1.0000
20.6600 933.0000 1.0000
20.6700 966.0000 1.0000
20.6800 894.0000 1.0000
20.6900 882.0000 1.0000
20.7000 892.0000 1.0000
20.7100 900.0000 1.0000
20.7200 938.0000 1.0000
20.7300 894.0000 1.0000
20.7400 922.0000 1.0000
20.7500 911.0000 1.0000
20.7600 861.0000 1.0000
20.7700 888.0000 1.0000
20.7800 916.0000 1.0000
20.7900 919.0000 1.0000
20.8000 858.0000 1.0000
20.8100 907.0000 1.0000
20.8200 939.0000 1.0000
20.8300 871.0000 1.0000
20.8400 839.0000 1.0000
20.8500 916.0000 1.0000
20.8600 930.0000 1.0000
20.8700 918.0000 1.0000
20.8800 888.0000 1.0000
20.8900 898.0000 1.0000
20.9000 912.0000 1.0000
20.9100 878.0000 1.0000
20.9200 911.0000 1.0000
20.9300 919.0000 1.0000
20.9400 920.0000 1.0000
20.9500 919.0000 1.0000
20.9600 850.0000 1.0000
20.9700 851.0000 1.0000
20.9800 837.0000 1.0000
20.9900 864.0000 1.0000
21.0000 921.0000 1.0000
21.0100 929.0000 1.0000
21.0200 892.0000 1.0000
21.0300 878.0000 1.0000
21.0400 920.0000 1.0000
21.0500 909.0000 1.0000
21.0600 939.0000 1.0000
21.0700 937.0000 1.0000
21.0800 911.0000 1.0000
21.0900 884.0000 1.0000
21.1000 951.0000 1.0000
21.1100 916.0000 1.0000
21.1200 877.0000 1.0000
21.1300 887.0000 1.0000
21.1400 943.0000 1.0000
21.1500 889.0000 1.0000
21.1600 837.0000 1.0000
21.1700 919.0000 1.0000
21.1800 894.0000 1.0000
21.1900 921.0000 1.0000
21.2000 933.0000 1.0000
21.2100 920.0000 1.0000
21.2200 869.0000 1.0000
21.2300 909.0000 1.0000
21.2400 871.0000 1.0000
21.2500 922.0000 1.0000
21.2600 918.0000 1.0000
21.2700 886.0000 1.0000
21.2800 911.0000 1.0000
21.2900 904.0000 1.0000
21.3000 857.0000 1.0000
21.3100 892.0000 1.0000
21.3200 861.0000 1.0000
21.3300 927.0000 1.0000
21.3400 897.0000 1.0000
21.3500 868.0000 1.0000
21.3600 923.0000 1.0000
21.3700 903.0000 1.0000
21.3800 868.0000 1.0000
21.3900 906.0000 1.0000
21.4000 928.0000 1.0000
21.4100 896.0000 1.0000
21.4200 913.0000 1.0000
21.4300 916.0000 1.0000
21.4400 876.0000 1.0000
21.4500 874.0000 1.0000
21.4600 870.0000 1.0000
21.4700 889.0000 1.0000
21.4800 929.0000 1.0000
21.4900 856.0000 1.0000
21.5000 924.0000 1.0000
21.5100 931.0000 1.0000
21.5200 946.0000 1.0000
21.5300 868.0000 1.0000
21.5400 917.0000 1.0000
21.5500 939.0000 1.0000
21.5600 913.0000 1.0000
21.5700 897.0000 1.0000
21.5800 943.0000 1.0000
21.5900 929.0000 1.0000
21.6000 929.0000 1.0000
21.6100 879.0000 1.0000
21.6200 873.0000 1.0000
21.6300 904.0000 1.0000
21.6400 886.0000 1.0000
21.6500 870.0000 1.0000
21.6600 890.0000 1.0000
21.6700 906.0000 1.0000
21.6800 899.0000 1.0000
21.6900 884.0000 1.0000
21.7000 904.0000 1.0000
21.7100 903.0000 1.0000
21.7200 877.0000 1.0000
21.7300 860.0000 1.0000
21.7400 878.0000 1.0000
21.7500 889.0000 1.0000
21.7600 895.0000 1.0000
21.7700 886.0000 1.0000
21.7800 895.0000 1.0000
21.7900 901.0000 1.0000
21.8000 878.0000 1.0000
21.8100 919.0000 1.0000
21.8200 902.0000 1.0000
21.8300 893.0000 1.0000
21.8400 884.0000 1.0000
21.8500 915.0000 1.0000
21.8600 858.0000 1.0000
21.8700 915.0000 1.0000
21.8800 890.0000 1.0000
21.8900 902.0000 1.0000
21.9000 914.0000 1.0000
21.9100 928.0000 1.0000
21.9200 917.0000 1.0000
21.9300 918.0000 1.0000
21.9400 895.0000 1.0000
21.9500 871.0000 1.0000
21.9600 868.0000 1.0000
21.9700 878.0000 1.0000
21.9800 923.0000 1.0000
21.9900 901.0000 1.0000
22.0000 874.0000 1.0000
22.0100 881.0000 1.0000
22.0200 865.0000 1.0000
22.0300 839.0000 1.0000
22.0400 883.0000 1.0000
22.0500 863.0000 1.0000
22.0600 872.0000 1.0000
22.0700 858.0000 1.0000
22.0800 855.0000 1.0000
22.0900 888.0000 1.0000
22.1000 895.0000 1.0000
22.1100 902.0000 1.0000
22.1200 874.0000 1.0000
22.1300 891.0000 1.0000
22.1400 882.0000 1.0000
22.1500 892.0000 1.0000
22.1600 926.0000 1.0000
22.1700 919.0000 1.0000
22.1800 891.0000 1.0000
22.1900 901.0000 1.0000
22.2000 902.0000 1.0000
22.2100 903.0000 1.0000
22.2200 920.0000 1.0000
22.2300 876.0000 1.0000
22.2400 883.0000 1.0000
22.2500 844.0000 1.0000
22.2600 893.0000 1.0000
22.2700 914.0000 1.0000
22.2800 841.0000 1.0000
22.2900 887.0000 1.0000
22.3000 876.0000 1.0000
22.3100 883.0000 1.0000
22.3200 879.0000 1.0000
22.3300 872.0000 1.0000
22.3400 914.0000 1.0000
22.3500 888.0000 1.0000
22.3600 849.0000 1.0000
22.3700 853.0000 1.0000
22.3800 850.0000 1.0000
22.3900 892.0000 1.0000
22.4000 863.0000 1.0000
22.4100 864.0000 1.0000
22.4200 881.0000 1.0000
22.4300 851.0000 1.0000
22.4400 851.0000 1.0000
22.4500 885.0000 1.0000
22.4600 896.0000 1.0000
22.4700 896.0000 1.0000
22.4800 826.0000 1.0000
22.4900 868.0000 1.0000
22.5000 930.0000 1.0000
22.5100 911.0000 1.0000
22.5200 880.0000 1.0000
22.5300 858.0000 1.0000
22.5400 848.0000 1.0000
22.5500 914.0000 1.0000
22.5600 901.0000 1.0000
22.5700 896.0000 1.0000
22.5800 851.0000 1.0000
22.5900 852.0000 1.0000
22.6000 844.0000 1.0000
22.6100 853.0000 1.0000
22.6200 832.0000 1.0000
22.6300 863.0000 1.0000
22.6400 944.0000 1.0000
22.6500 885.0000 1.0000
22.6600 901.0000 1.0000
22.6700 863.0000 1.0000
22.6800 883.0000 1.0000
22.6900 883.0000 1.0000
22.7000 897.0000 1.0000
22.7100 876.0000 1.0000
22.7200 874.0000 1.0000
22.7300 863.0000 1.0000
22.7400 846.0000 1.0000
22.7500 839.0000 1.0000
22.7600 915.0000 1.0000
22.7700 881.0000 1.0000
22.7800 958.0000 1.0000
22.7900 906.0000 1.0000
22.8000 884.0000 1.0000
22.8100 829.0000 1.0000
22.8200 869.0000 1.0000
22.8300 891.0000 1.0000
22.8400 884.0000 1.0000
22.8500 849.0000 1.0000
22.8600 861.0000 1.0000
22.8700 876.0000 1.0000
22.8800 903.0000 1.0000
22.8900 820.0000 1.0000
22.9000 869.0000 1.0000
22.9100 935.0000 1.0000
22.9200 912.0000 1.0000
22.9300 892.0000 1.0000
22.9400 852.0000 1.0000
22.9500 835.0000 1.0000
22.9600 819.0000 1.0000
22.9700 844.0000 1.0000
22.9800 871.0000 1.0000
22.9900 862.0000 1.0000
23.0000 895.0000 1.0000
23.0100 897.0000 1.0000
23.0200 843.0000 1.0000
23.0300 866.0000 1.0000
23.0400 871.0000 1.0000
23.0500 862.0000 1.0000
23.0600 848.0000 1.0000
23.0700 899.0000 1.0000
23.0800 840.0000 1.0000
23.0900 878.0000 1.0000
23.1000 851.0000 1.0000
23.1100 859.0000 1.0000
23.1200 884.0000 1.0000
23.1300 851.0000 1.0000
23.1400 927.0000 1.0000
23.1500 898.0000 1.0000
23.1600 875.0000 1.0000
23.1700 797.0000 1.0000
23.1800 830.0000 1.0000
23.1900 837.0000 1.0000
23.2000 814.0000 1.0000
23.2100 864.0000 1.0000
23.2200 834.0000 1.0000
23.2300 840.0000 1.0000
23.2400 873.0000 1.0000
23.2500 860.0000 1.0000
23.2600 875.0000 1.0000
23.2700 891.0000 1.0000
23.2800 877.0000 1.0000
23.2900 899.0000 1.0000
23.3000 904.0000 1.0000
23.3100 862.0000 1.0000
23.3200 862.0000 1.0000
23.3300 840.0000 1.0000
23.3400 831.0000 1.0000
23.3500 871.0000 1.0000
23.3600 886.0000 1.0000
23.3700 875.0000 1.0000
23.3800 872.0000 1.0000
23.3900 807.0000 1.0000
23.4000 877.0000 1.0000
23.4100 870.0000 1.0000
23.4200 872.0000 1.0000
23.4300 865.0000 1.0000
23.4400 913.0000 1.0000
23.4500 857.0000 1.0000
23.4600 859.0000 1.0000
23.4700 841.0000 1.0000
23.4800 845.0000 1.0000
23.4900 884.0000 1.0000
23.5000 900.0000 1.0000
23.5100 810.0000 1.0000
23.5200 833.0000 1.0000
23.5300 822.0000 1.0000
23.5400 829.0000 1.0000
23.5500 866.0000 1.0000
23.5600 823.0000 1.0000
23.5700 859.0000 1.0000
23.5800 872.0000 1.0000
23.5900 862.0000 1.0000
23.6000 870.0000 1.0000
23.6100 848.0000 1.0000
23.6200 915.0000 1.0000
23.6300 850.0000 1.0000
23.6400 844.0000 1.0000
23.6500 853.0000 1.0000
23.6600 844.0000 1.0000
23.6700 884.0000 1.0000
23.6800 844.0000 1.0000
23.6900 829.0000 1.0000
23.7000 872.0000 1.0000
23.7100 907.0000 1.0000
23.7200 880.0000 1.0000
23.7300 850.0000 1.0000
23.7400 876.0000 1.0000
23.7500 878.0000 1.0000
23.7600 888.0000 1.0000
23.7700 898.0000 1.0000
23.7800 861.0000 1.0000
23.7900 884.0000 1.0000
23.8000 858.0000 1.0000
23.8100 895.0000 1.0000
23.8200 793.0000 1.0000
23.8300 867.0000 1.0000
23.8400 905.0000 1.0000
23.8500 882.0000 1.0000
23.8600 857.0000 1.0000
23.8700 864.0000 1.0000
23.8800 888.0000 1.0000
23.8900 870.0000 1.0000
23.9000 895.0000 1.0000
23.9100 855.0000 1.0000
23.9200 872.0000 1.0000
23.9300 810.0000 1.0000
23.9400 875.0000 1.0000
23.9500 858.0000 1.0000
23.9600 876.0000 1.0000
23.9700 865.0000 1.0000
23.9800 869.0000 1.0000
23.9900 880.0000 1.0000
24.0000 858.0000 1.0000
24.0100 863.0000 1.0000
24.0200 876.0000 1.0000
24.0300 874.0000 1.0000
24.0400 869.0000 1.0000
24.0500 833.0000 1.0000
24.0600 832.0000 1.0000
24.0700 853.0000 1.0000
24.0800 856.0000 1.0000
24.0900 883.0000 1.0000
24.1000 900.0000 1.0000
24.1100 897.0000 1.0000
24.1200 913.0000 1.0000
24.1300 847.0000 1.0000
24.1400 830.0000 1.0000
24.1500 875.0000 1.0000
24.1600 870.0000 1.0000
24.1700 844.0000 1.0000
24.1800 897.0000 1.0000
24.1900 879.0000 1.0000
24.2000 879.0000 1.0000
24.2100 914.0000 1.0000
24.2200 887.0000 1.0000
24.2300 868.0000 1.0000
24.2400 834.0000 1.0000
24.2500 819.0000 1.0000
24.2600 922.0000 1.0000
24.2700 885.0000 1.0000
24.2800 844.0000 1.0000
24.2900 859.0000 1.0000
24.3000 836.0000 1.0000
24.3100 859.0000 1.0000
24.3200 842.0000 1.0000
24.3300 859.0000 1.0000
24.3400 811.0000 1.0000
24.3500 865.0000 1.0000
24.3600 837.0000 1.0000
24.3700 858.0000 1.0000
24.3800 907.0000 1.0000
24.3900 854.0000 1.0000
24.4000 865.0000 1.0000
24.4100 873.0000 1.0000
24.4200 849.0000 1.0000
24.4300 839.0000 1.0000
24.4400 850.0000 1.0000
24.4500 855.0000 1.0000
24.4600 840.0000 1.0000
24.4700 854.0000 1.0000
24.4800 887.0000 1.0000
24.4900 870.0000 1.0000
24.5000 807.0000 1.0000
24.5100 843.0000 1.0000
24.5200 893.0000 1.0000
24.5300 856.0000 1.0000
24.5400 806.0000 1.0000
24.5500 835.0000 1.0000
24.5600 841.0000 1.0000
24.5700 841.0000 1.0000
24.5800 863.0000 1.0000
24.5900 870.0000 1.0000
24.6000 882.0000 1.0000
24.6100 867.0000 1.0000
24.6200 831.0000 1.0000
24.6300 824.0000 1.0000
24.6400 865.0000 1.0000
24.6500 827.0000 1.0000
24.6600 825.0000 1.0000
24.6700 881.0000 1.0000
24.6800 790.0000 1.0000
24.6900 841.0000 1.0000
24.7000 849.0000 1.0000
24.7100 831.0000 1.0000
24.7200 888.0000 1.0000
24.7300 892.0000 1.0000
24.7400 835.0000 1.0000
24.7500 840.0000 1.0000
24.7600 821.0000 1.0000
24.7700 885.0000 1.0000
24.7800 867.0000 1.0000
24.7900 884.0000 1.0000
24.8000 816.0000 1.0000
24.8100 857.0000 1.0000
24.8200 894.0000 1.0000
24.8300 825.0000 1.0000
24.8400 825.0000 1.0000
24.8500 818.0000 1.0000
24.8600 841.0000 1.0000
24.8700 806.0000 1.0000
24.8800 825.0000 1.0000
24.8900 818.0000 1.0000
24.9000 807.0000 1.0000
24.9100 805.0000 1.0000
24.9200 864.0000 1.0000
24.9300 834.0000 1.0000
24.9400 818.0000 1.0000
24.9500 852.0000 1.0000
24.9600 792.0000 1.0000
24.9700 829.0000 1.0000
24.9800 808.0000 1.0000
24.9900 810.0000 1.0000
25.0000 841.0000 1.0000
25.0100 834.0000 1.0000
25.0200 837.0000 1.0000
25.0300 840.0000 1.0000
25.0400 778.0000 1.0000
25.0500 825.0000 1.0000
25.0600 824.0000 1.0000
25.0700 818.0000 1.0000
25.0800 778.0000 1.0000
25.0900 813.0000 1.0000
25.1000 807.0000 1.0000
25.1100 817.0000 1.0000
25.1200 821.0000 1.0000
25.1300 899.0000 1.0000
25.1400 848.0000 1.0000
25.1500 845.0000 1.0000
25.1600 828.0000 1.0000
25.1700 867.0000 1.0000
25.1800 855.0000 1.0000
25.1900 839.0000 1.0000
25.2000 808.0000 1.0000
25.2100 863.0000 1.0000
25.2200 829.0000 1.0000
25.2300 865.0000 1.0000
25.2400 792.0000 1.0000
25.2500 818.0000 1.0000
25.2600 805.0000 1.0000
25.2700 860.0000 1.0000
25.2800 840.0000 1.0000
25.2900 821.0000 1.0000
25.3000 852.0000 1.0000
25.3100 840.0000 1.0000
25.3200 836.0000 1.0000
25.3300 891.0000 1.0000
25.3400 841.0000 1.0000
25.3500 846.0000 1.0000
25.3600 781.0000 1.0000
25.3700 839.0000 1.0000
25.3800 851.0000 1.0000
25.3900 832.0000 1.0000
25.4000 884.0000 1.0000
25.4100 828.0000 1.0000
25.4200 781.0000 1.0000
25.4300 895.0000 1.0000
25.4400 884.0000 1.0000
25.4500 850.0000 1.0000
25.4600 805.0000 1.0000
25.4700 803.0000 1.0000
25.4800 837.0000 1.0000
25.4900 825.0000 1.0000
25.5000 867.0000 1.0000
25.5100 833.0000 1.0000
25.5200 785.0000 1.0000
25.5300 829.0000 1.0000
25.5400 896.0000 1.0000
25.5500 821.0000 1.0000
25.5600 821.0000 1.0000
25.5700 852.0000 1.0000
25.5800 862.0000 1.0000
25.5900 887.0000 1.0000
25.6000 845.0000 1.0000
25.6100 874.0000 1.0000
25.6200 885.0000 1.0000
25.6300 868.0000 1.0000
25.6400 827.0000 1.0000
25.6500 825.0000 1.0000
25.6600 873.0000 1.0000
25.6700 839.0000 1.0000
25.6800 868.0000 1.0000
25.6900 860.0000 1.0000
25.7000 846.0000 1.0000
25.7100 821.0000 1.0000
25.7200 830.0000 1.0000
25.7300 879.0000 1.0000
25.7400 852.0000 1.0000
25.7500 844.0000 1.0000
25.7600 846.0000 1.0000
25.7700 883.0000 1.0000
25.7800 874.0000 1.0000
25.7900 860.0000 1.0000
25.8000 861.0000 1.0000
25.8100 890.0000 1.0000
25.8200 897.0000 1.0000
25.8300 896.0000 1.0000
25.8400 923.0000 1.0000
25.8500 902.0000 1.0000
25.8600 886.0000 1.0000
25.8700 914.0000 1.0000
25.8800 894.0000 1.0000
25.8900 907.0000 1.0000
25.9000 894.0000 1.0000
25.9100 891.0000 1.0000
25.9200 932.0000 1.0000
25.9300 895.0000 1.0000
25.9400 886.0000 1.0000
25.9500 913.0000 1.0000
25.9600 912.0000 1.0000
25.9700 948.0000 1.0000
25.9800 931.0000 1.0000
25.9900 906.0000 1.0000
26.0000 937.0000 1.0000
26.0100 918.0000 1.0000
26.0200 904.0000 1.0000
26.0300 934.0000 1.0000
26.0400 978.0000 1.0000
26.0500 955.0000 1.0000
26.0600 987.0000 1.0000
26.0700 985.0000 1.0000
26.0800 1007.0000 1.0000
26.0900 1045.0000 1.0000
26.1000 1010.0000 1.0000
26.1100 1038.0000 1.0000
26.1200 1080.0000 1.0000
26.1300 1042.0000 1.0000
26.1400 1074.0000 1.0000
26.1500 1090.0000 1.0000
26.1600 1087.0000 1.0000
26.1700 1140.0000 1.0000
26.1800 1093.0000 1.0000
26.1900 1170.0000 1.0000
26.2000 1228.0000 1.0000
26.2100 1219.0000 1.0000
26.2200 1287.0000 1.0000
26.2300 1294.0000 1.0000
26.2400 1347.0000 1.0000
26.2500 1402.0000 1.0000
26.2600 1472.0000 1.0000
26.2700 1514.0000 1.0000
26.2800 1642.0000 1.0000
26.2900 1680.0000 1.0000
26.3000 1752.0000 1.0000
26.3100 1768.0000 1.0000
26.3200 1967.0000 1.0000
26.3300 2097.0000 1.0000
26.3400 2151.0000 1.0000
26.3500 2295.0000 1.0000
26.3600 2433.0000 1.0000
26.3700 2508.0000 1.0000
26.3800 2692.0000 1.0000
26.3900 2777.0000 1.0000
26.4000 2949.0000 1.0000
26.4100 3013.0000 1.0000
26.4200 3068.0000 1.0000
26.4300 3037.0000 1.0000
26.4400 2972.0000 1.0000
26.4500 2964.0000 1.0000
26.4600 2903.0000 1.0000
26.4700 2749.0000 1.0000
26.4800 2641.0000 1.0000
26.4900 2462.0000 1.0000
26.5000 2336.0000 1.0000
26.5100 2312.0000 1.0000
26.5200 2183.0000 1.0000
26.5300 2083.0000 1.0000
26.5400 1955.0000 1.0000
26.5500 1905.0000 1.0000
26.5600 1708.0000 1.0000
26.5700 1658.0000 1.0000
26.5800 1526.0000 1.0000
26.5900 1483.0000 1.0000
26.6000 1501.0000 1.0000
26.6100 1429.0000 1.0000
26.6200 1295.0000 1.0000
26.6300 1362.0000 1.0000
26.6400 1245.0000 1.0000
26.6500 1199.0000 1.0000
26.6600 1190.0000 1.0000
26.6700 1169.0000 1.0000
26.6800 1145.0000 1.0000
26.6900 1106.0000 1.0000
26.7000 1110.0000 1.0000
26.7100 1024.0000 1.0000
26.7200 1028.0000 1.0000
26.7300 1007.0000 1.0000
26.7400 983.0000 1.0000
26.7500 948.0000 1.0000
26.7600 970.0000 1.0000
26.7700 1000.0000 1.0000
26.7800 986.0000 1.0000
26.7900 977.0000 1.0000
26.8000 961.0000 1.0000
26.8100 961.0000 1.0000
26.8200 925.0000 1.0000
26.8300 893.0000 1.0000
26.8400 929.0000 1.0000
26.8500 885.0000 1.0000
26.8600 848.0000 1.0000
26.8700 869.0000 1.0000
26.8800 943.0000 1.0000
26.8900 872.0000 1.0000
26.9000 867.0000 1.0000
26.9100 819.0000 1.0000
26.9200 837.0000 1.0000
26.9300 839.0000 1.0000
26.9400 870.0000 1.0000
26.9500 840.0000 1.0000
26.9600 892.0000 1.0000
26.9700 865.0000 1.0000
26.9800 838.0000 1.0000
26.9900 867.0000 1.0000
27.0000 807.0000 1.0000
27.0100 801.0000 1.0000
27.0200 842.0000 1.0000
27.0300 803.0000 1.0000
27.0400 774.0000 1.0000
27.0500 832.0000 1.0000
27.0600 799.0000 1.0000
27.0700 832.0000 1.0000
27.0800 828.0000 1.0000
27.0900 853.0000 1.0000
27.1000 859.0000 1.0000
27.1100 857.0000 1.0000
27.1200 772.0000 1.0000
27.1300 753.0000 1.0000
27.1400 840.0000 1.0000
27.1500 810.0000 1.0000
27.1600 782.0000 1.0000
27.1700 780.0000 1.0000
27.1800 786.0000 1.0000
27.1900 814.0000 1.0000
27.2000 831.0000 1.0000
27.2100 790.0000 1.0000
27.2200 821.0000 1.0000
27.2300 814.0000 1.0000
27.2400 766.0000 1.0000
27.2500 816.0000 1.0000
27.2600 754.0000 1.0000
27.2700 801.0000 1.0000
27.2800 793.0000 1.0000
27.2900 801.0000 1.0000
27.3000 824.0000 1.0000
27.3100 827.0000 1.0000
27.3200 823.0000 1.0000
27.3300 775.0000 1.0000
27.3400 764.0000 1.0000
27.3500 747.0000 1.0000
27.3600 773.0000 1.0000
27.3700 766.0000 1.0000
27.3800 760.0000 1.0000
27.3900 761.0000 1.0000
27.4000 778.0000 1.0000
27.4100 791.0000 1.0000
27.4200 783.0000 1.0000
27.4300 767.0000 1.0000
27.4400 764.0000 1.0000
27.4500 729.0000 1.0000
27.4600 769.0000 1.0000
27.4700 751.0000 1.0000
27.4800 734.0000 1.0000
27.4900 790.0000 1.0000
27.5000 768.0000 1.0000
27.5100 780.0000 1.0000
27.5200 740.0000 1.0000
27.5300 784.0000 1.0000
27.5400 765.0000 1.0000
27.5500 736.0000 1.0000
27.5600 743.0000 1.0000
27.5700 764.0000 1.0000
27.5800 726.0000 1.0000
27.5900 735.0000 1.0000
27.6000 760.0000 1.0000
27.6100 793.0000 1.0000
27.6200 790.0000 1.0000
27.6300 749.0000 1.0000
27.6400 783.0000 1.0000
27.6500 760.0000 1.0000
27.6600 763.0000 1.0000
27.6700 744.0000 1.0000
27.6800 770.0000 1.0000
27.6900 748.0000 1.0000
27.7000 764.0000 1.0000
27.7100 743.0000 1.0000
27.7200 753.0000 1.0000
27.7300 760.0000 1.0000
27.7400 764.0000 1.0000
27.7500 771.0000 1.0000
27.7600 767.0000 1.0000
27.7700 757.0000 1.0000
27.7800 740.0000 1.0000
27.7900 743.0000 1.0000
27.8000 748.0000 1.0000
27.8100 744.0000 1.0000
27.8200 707.0000 1.0000
27.8300 757.0000 1.0000
27.8400 764.0000 1.0000
27.8500 725.0000 1.0000
27.8600 721.0000 1.0000
27.8700 696.0000 1.0000
27.8800 712.0000 1.0000
27.8900 754.0000 1.0000
27.9000 757.0000 1.0000
27.9100 739.0000 1.0000
27.9200 695.0000 1.0000
27.9300 745.0000 1.0000
27.9400 757.0000 1.0000
27.9500 746.0000 1.0000
27.9600 733.0000 1.0000
27.9700 732.0000 1.0000
27.9800 718.0000 1.0000
27.9900 719.0000 1.0000
28.0000 731.0000 1.0000
28.0100 719.0000 1.0000
28.0200 685.0000 1.0000
28.0300 720.0000 1.0000
28.0400 738.0000 1.0000
28.0500 741.0000 1.0000
28.0600 754.0000 1.0000
28.0700 697.0000 1.0000
28.0800 688.0000 1.0000
28.0900 728.0000 1.0000
28.1000 742.0000 1.0000
28.1100 742.0000 1.0000
28.1200 766.0000 1.0000
28.1300 746.0000 1.0000
28.1400 723.0000 1.0000
28.1500 709.0000 1.0000
28.1600 731.0000 1.0000
28.1700 738.0000 1.0000
28.1800 733.0000 1.0000
28.1900 742.0000 1.0000
28.2000 720.0000 1.0000
28.2100 725.0000 1.0000
28.2200 718.0000 1.0000
28.2300 757.0000 1.0000
28.2400 740.0000 1.0000
28.2500 742.0000 1.0000
28.2600 724.0000 1.0000
28.2700 737.0000 1.0000
28.2800 728.0000 1.0000
28.2900 773.0000 1.0000
28.3000 726.0000 1.0000
28.3100 673.0000 1.0000
28.3200 721.0000 1.0000
28.3300 737.0000 1.0000
28.3400 722.0000 1.0000
28.3500 756.0000 1.0000
28.3600 721.0000 1.0000
28.3700 733.0000 1.0000
28.3800 761.0000 1.0000
28.3900 694.0000 1.0000
28.4000 726.0000 1.0000
28.4100 758.0000 1.0000
28.4200 687.0000 1.0000
28.4300 688.0000 1.0000
28.4400 716.0000 1.0000
28.4500 746.0000 1.0000
28.4600 758.0000 1.0000
28.4700 721.0000 1.0000
28.4800 721.0000 1.0000
28.4900 692.0000 1.0000
28.5000 730.0000 1.0000
28.5100 702.0000 1.0000
28.5200 708.0000 1.0000
28.5300 749.0000 1.0000
28.5400 704.0000 1.0000
28.5500 676.0000 1.0000
28.5600 715.0000 1.0000
28.5700 741.0000 1.0000
28.5800 724.0000 1.0000
28.5900 675.0000 1.0000
28.6000 691.0000 1.0000
28.6100 691.0000 1.0000
28.6200 751.0000 1.0000
28.6300 715.0000 1.0000
28.6400 700.0000 1.0000
28.6500 756.0000 1.0000
28.6600 718.0000 1.0000
28.6700 673.0000 1.0000
28.6800 722.0000 1.0000
28.6900 712.0000 1.0000
28.7000 680.0000 1.0000
28.7100 645.0000 1.0000
28.7200 701.0000 1.0000
28.7300 686.0000 1.0000
28.7400 715.0000 1.0000
28.7500 739.0000 1.0000
28.7600 746.0000 1.0000
28.7700 741.0000 1.0000
28.7800 759.0000 1.0000
28.7900 688.0000 1.0000
28.8000 732.0000 1.0000
28.8100 729.0000 1.0000
28.8200 718.0000 1.0000
28.8300 689.0000 1.0000
28.8400 702.0000 1.0000
28.8500 775.0000 1.0000
28.8600 701.0000 1.0000
28.8700 656.0000 1.0000
28.8800 716.0000 1.0000
28.8900 691.0000 1.0000
28.9000 711.0000 1.0000
28.9100 672.0000 1.0000
28.9200 663.0000 1.0000
28.9300 719.0000 1.0000
28.9400 722.0000 1.0000
28.9500 680.0000 1.0000
28.9600 703.0000 1.0000
28.9700 745.0000 1.0000
28.9800 693.0000 1.0000
28.9900 709.0000 1.0000
29.0000 711.0000 1.0000
29.0100 659.0000 1.0000
29.0200 663.0000 1.0000
29.0300 687.0000 1.0000
29.0400 742.0000 1.0000
29.0500 685.0000 1.0000
29.0600 682.0000 1.0000
29.0700 645.0000 1.0000
29.0800 677.0000 1.0000
29.0900 673.0000 1.0000
29.1000 730.0000 1.0000
29.1100 698.0000 1.0000
29.1200 705.0000 1.0000
29.1300 685.0000 1.0000
29.1400 732.0000 1.0000
29.1500 673.0000 1.0000
29.1600 735.0000 1.0000
29.1700 673.0000 1.0000
29.1800 731.0000 1.0000
29.1900 740.0000 1.0000
29.2000 715.0000 1.0000
29.2100 695.0000 1.0000
29.2200 750.0000 1.0000
29.2300 673.0000 1.0000
29.2400 724.0000 1.0000
29.2500 724.0000 1.0000
29.2600 696.0000 1.0000
29.2700 686.0000 1.0000
29.2800 686.0000 1.0000
29.2900 675.0000 1.0000
29.3000 698.0000 1.0000
29.3100 700.0000 1.0000
29.3200 720.0000 1.0000
29.3300 715.0000 1.0000
29.3400 719.0000 1.0000
29.3500 716.0000 1.0000
29.3600 681.0000 1.0000
29.3700 695.0000 1.0000
29.3800 680.0000 1.0000
29.3900 713.0000 1.0000
29.4000 754.0000 1.0000
29.4100 748.0000 1.0000
29.4200 723.0000 1.0000
29.4300 643.0000 1.0000
29.4400 691.0000 1.0000
29.4500 680.0000 1.0000
29.4600 668.0000 1.0000
29.4700 696.0000 1.0000
29.4800 660.0000 1.0000
29.4900 658.0000 1.0000
29.5000 665.0000 1.0000
29.5100 633.0000 1.0000
29.5200 704.0000 1.0000
29.5300 684.0000 1.0000
29.5400 687.0000 1.0000
29.5500 674.0000 1.0000
29.5600 696.0000 1.0000
29.5700 704.0000 1.0000
29.5800 673.0000 1.0000
29.5900 681.0000 1.0000
29.6000 662.0000 1.0000
29.6100 714.0000 1.0000
29.6200 687.0000 1.0000
29.6300 662.0000 1.0000
29.6400 675.0000 1.0000
29.6500 704.0000 1.0000
29.6600 677.0000 1.0000
29.6700 669.0000 1.0000
29.6800 676.0000 1.0000
29.6900 657.0000 1.0000
29.7000 688.0000 1.0000
29.7100 699.0000 1.0000
29.7200 735.0000 1.0000
29.7300 719.0000 1.0000
29.7400 699.0000 1.0000
29.7500 696.0000 1.0000
29.7600 694.0000 1.0000
29.7700 663.0000 1.0000
29.7800 670.0000 1.0000
29.7900 656.0000 1.0000
29.8000 679.0000 1.0000
29.8100 679.0000 1.0000
29.8200 683.0000 1.0000
29.8300 696.0000 1.0000
29.8400 695.0000 1.0000
29.8500 679.0000 1.0000
29.8600 670.0000 1.0000
29.8700 648.0000 1.0000
29.8800 724.0000 1.0000
29.8900 678.0000 1.0000
29.9000 658.0000 1.0000
29.9100 684.0000 1.0000
29.9200 743.0000 1.0000
29.9300 705.0000 1.0000
29.9400 671.0000 1.0000
29.9500 747.0000 1.0000
29.9600 700.0000 1.0000
29.9700 692.0000 1.0000
29.9800 676.0000 1.0000
29.9900 650.0000 1.0000
30.0000 679.0000 1.0000
30.0100 701.0000 1.0000
30.0200 729.0000 1.0000
30.0300 681.0000 1.0000
30.0400 703.0000 1.0000
30.0500 650.0000 1.0000
30.0600 681.0000 1.0000
30.0700 644.0000 1.0000
30.0800 679.0000 1.0000
30.0900 680.0000 1.0000
30.1000 658.0000 1.0000
30.1100 701.0000 1.0000
30.1200 666.0000 1.0000
30.1300 692.0000 1.0000
30.1400 666.0000 1.0000
30.1500 697.0000 1.0000
30.1600 696.0000 1.0000
30.1700 626.0000 1.0000
30.1800 664.0000 1.0000
30.1900 692.0000 1.0000
30.2000 682.0000 1.0000
30.2100 677.0000 1.0000
30.2200 669.0000 1.0000
30.2300 665.0000 1.0000
30.2400 675.0000 1.0000
30.2500 650.0000 1.0000
30.2600 648.0000 1.0000
30.2700 640.0000 1.0000
30.2800 677.0000 1.0000
30.2900 658.0000 1.0000
30.3000 655.0000 1.0000
30.3100 703.0000 1.0000
30.3200 668.0000 1.0000
30.3300 646.0000 1.0000
30.3400 673.0000 1.0000
30.3500 635.0000 1.0000
30.3600 646.0000 1.0000
30.3700 676.0000 1.0000
30.3800 686.0000 1.0000
30.3900 678.0000 1.0000
30.4000 672.0000 1.0000
30.4100 653.0000 1.0000
30.4200 699.0000 1.0000
30.4300 652.0000 1.0000
30.4400 661.0000 1.0000
30.4500 678.0000 1.0000
30.4600 649.0000 1.0000
30.4700 675.0000 1.0000
30.4800 678.0000 1.0000
30.4900 684.0000 1.0000
30.5000 640.0000 1.0000
30.5100 635.0000 1.0000
30.5200 702.0000 1.0000
30.5300 656.0000 1.0000
30.5400 647.0000 1.0000
30.5500 642.0000 1.0000
30.5600 702.0000 1.0000
30.5700 642.0000 1.0000
30.5800 657.0000 1.0000
30.5900 661.0000 1.0000
30.6000 663.0000 1.0000
30.6100 690.0000 1.0000
30.6200 675.0000 1.0000
30.6300 627.0000 1.0000
30.6400 636.0000 1.0000
30.6500 667.0000 1.0000
30.6600 638.0000 1.0000
30.6700 616.0000 1.0000
30.6800 674.0000 1.0000
30.6900 667.0000 1.0000
30.7000 651.0000 1.0000
30.7100 659.0000 1.0000
30.7200 627.0000 1.0000
30.7300 636.0000 1.0000
30.7400 624.0000 1.0000
30.7500 652.0000 1.0000
30.7600 682.0000 1.0000
30.7700 652.0000 1.0000
30.7800 623.0000 1.0000
30.7900 610.0000 1.0000
30.8000 672.0000 1.0000
30.8100 689.0000 1.0000
30.8200 675.0000 1.0000
30.8300 658.0000 1.0000
30.8400 648.0000 1.0000
30.8500 648.0000 1.0000
30.8600 634.0000 1.0000
30.8700 677.0000 1.0000
30.8800 623.0000 1.0000
30.8900 645.0000 1.0000
30.9000 643.0000 1.0000
30.9100 648.0000 1.0000
30.9200 673.0000 1.0000
30.9300 626.0000 1.0000
30.9400 620.0000 1.0000
30.9500 662.0000 1.0000
30.9600 689.0000 1.0000
30.9700 689.0000 1.0000
30.9800 652.0000 1.0000
30.9900 644.0000 1.0000
31.0000 639.0000 1.0000
31.0100 652.0000 1.0000
31.0200 652.0000 1.0000
31.0300 638.0000 1.0000
31.0400 667.0000 1.0000
31.0500 629.0000 1.0000
31.0600 687.0000 1.0000
31.0700 667.0000 1.0000
31.0800 625.0000 1.0000
31.0900 652.0000 1.0000
31.1000 639.0000 1.0000
31.1100 657.0000 1.0000
31.1200 661.0000 1.0000
31.1300 649.0000 1.0000
31.1400 638.0000 1.0000
31.1500 689.0000 1.0000
31.1600 679.0000 1.0000
31.1700 665.0000 1.0000
31.1800 655.0000 1.0000
31.1900 653.0000 1.0000
31.2000 682.0000 1.0000
31.2100 610.0000 1.0000
31.2200 639.0000 1.0000
31.2300 624.0000 1.0000
31.2400 611.0000 1.0000
31.2500 621.0000 1.0000
31.2600 654.0000 1.0000
31.2700 646.0000 1.0000
31.2800 671.0000 1.0000
31.2900 636.0000 1.0000
31.3000 611.0000 1.0000
31.3100 678.0000 1.0000
31.3200 663.0000 1.0000
31.3300 670.0000 1.0000
31.3400 612.0000 1.0000
31.3500 608.0000 1.0000
31.3600 641.0000 1.0000
31.3700 632.0000 1.0000
31.3800 652.0000 1.0000
31.3900 686.0000 1.0000
31.4000 667.0000 1.0000
31.4100 632.0000 1.0000
31.4200 631.0000 1.0000
31.4300 631.0000 1.0000
31.4400 668.0000 1.0000
31.4500 634.0000 1.0000
31.4600 655.0000 1.0000
31.4700 647.0000 1.0000
31.4800 613.0000 1.0000
31.4900 645.0000 1.0000
31.5000 651.0000 1.0000
31.5100 617.0000 1.0000
31.5200 632.0000 1.0000
31.5300 647.0000 1.0000
31.5400 640.0000 1.0000
31.5500 656.0000 1.0000
31.5600 640.0000 1.0000
31.5700 643.0000 1.0000
31.5800 683.0000 1.0000
31.5900 645.0000 1.0000
31.6000 613.0000 1.0000
31.6100 611.0000 1.0000
31.6200 669.0000 1.0000
31.6300 649.0000 1.0000
31.6400 619.0000 1.0000
31.6500 647.0000 1.0000
31.6600 667.0000 1.0000
31.6700 673.0000 1.0000
31.6800 644.0000 1.0000
31.6900 620.0000 1.0000
31.7000 661.0000 1.0000
31.7100 644.0000 1.0000
31.7200 601.0000 1.0000
31.7300 656.0000 1.0000
31.7400 657.0000 1.0000
31.7500 624.0000 1.0000
31.7600 643.0000 1.0000
31.7700 646.0000 1.0000
31.7800 655.0000 1.0000
31.7900 663.0000 1.0000
31.8000 621.0000 1.0000
31.8100 632.0000 1.0000
31.8200 623.0000 1.0000
31.8300 679.0000 1.0000
31.8400 670.0000 1.0000
31.8500 634.0000 1.0000
31.8600 630.0000 1.0000
31.8700 671.0000 1.0000
31.8800 593.0000 1.0000
31.8900 599.0000 1.0000
31.9000 624.0000 1.0000
31.9100 637.0000 1.0000
31.9200 631.0000 1.0000
31.9300 610.0000 1.0000
31.9400 607.0000 1.0000
31.9500 633.0000 1.0000
31.9600 629.0000 1.0000
31.9700 632.0000 1.0000
31.9800 618.0000 1.0000
31.9900 666.0000 1.0000
32.0000 625.0000 1.0000
32.0100 649.0000 1.0000
32.0200 634.0000 1.0000
32.0300 631.0000 1.0000
32.0400 633.0000 1.0000
32.0500 639.0000 1.0000
32.0600 632.0000 1.0000
32.0700 669.0000 1.0000
32.0800 571.0000 1.0000
32.0900 629.0000 1.0000
32.1000 667.0000 1.0000
32.1100 628.0000 1.0000
32.1200 614.0000 1.0000
32.1300 655.0000 1.0000
32.1400 622.0000 1.0000
32.1500 630.0000 1.0000
32.1600 634.0000 1.0000
32.1700 640.0000 1.0000
32.1800 645.0000 1.0000
32.1900 613.0000 1.0000
32.2000 586.0000 1.0000
32.2100 590.0000 1.0000
32.2200 644.0000 1.0000
32.2300 619.0000 1.0000
32.2400 607.0000 1.0000
32.2500 640.0000 1.0000
32.2600 656.0000 1.0000
32.2700 687.0000 1.0000
32.2800 602.0000 1.0000
32.2900 583.0000 1.0000
32.3000 590.0000 1.0000
32.3100 578.0000 1.0000
32.3200 616.0000 1.0000
32.3300 636.0000 1.0000
32.3400 564.0000 1.0000
32.3500 614.0000 1.0000
32.3600 626.0000 1.0000
32.3700 592.0000 1.0000
32.3800 612.0000 1.0000
32.3900 615.0000 1.0000
32.4000 591.0000 1.0000
32.4100 604.0000 1.0000
32.4200 659.0000 1.0000
32.4300 601.0000 1.0000
32.4400 582.0000 1.0000
32.4500 618.0000 1.0000
32.4600 618.0000 1.0000
32.4700 603.0000 1.0000
32.4800 645.0000 1.0000
32.4900 659.0000 1.0000
32.5000 606.0000 1.0000
32.5100 613.0000 1.0000
32.5200 614.0000 1.0000
32.5300 650.0000 1.0000
32.5400 631.0000 1.0000
32.5500 614.0000 1.0000
32.5600 635.0000 1.0000
32.5700 605.0000 1.0000
32.5800 617.0000 1.0000
32.5900 615.0000 1.0000
32.6000 606.0000 1.0000
32.6100 624.0000 1.0000
32.6200 618.0000 1.0000
32.6300 615.0000 1.0000
32.6400 616.0000 1.0000
32.6500 643.0000 1.0000
32.6600 640.0000 1.0000
32.6700 622.0000 1.0000
32.6800 611.0000 1.0000
32.6900 612.0000 1.0000
32.7000 663.0000 1.0000
32.7100 628.0000 1.0000
32.7200 592.0000 1.0000
32.7300 589.0000 1.0000
32.7400 635.0000 1.0000
32.7500 600.0000 1.0000
32.7600 596.0000 1.0000
32.7700 621.0000 1.0000
32.7800 625.0000 1.0000
32.7900 622.0000 1.0000
32.8000 634.0000 1.0000
32.8100 627.0000 1.0000
32.8200 611.0000 1.0000
32.8300 633.0000 1.0000
32.8400 637.0000 1.0000
32.8500 604.0000 1.0000
32.8600 597.0000 1.0000
32.8700 623.0000 1.0000
32.8800 645.0000 1.0000
32.8900 652.0000 1.0000
32.9000 628.0000 1.0000
32.9100 645.0000 1.0000
32.9200 648.0000 1.0000
32.9300 660.0000 1.0000
32.9400 616.0000 1.0000
32.9500 624.0000 1.0000
32.9600 661.0000 1.0000
32.9700 663.0000 1.0000
32.9800 654.0000 1.0000
32.9900 616.0000 1.0000
33.0000 678.0000 1.0000
33.0100 659.0000 1.0000
33.0200 630.0000 1.0000
33.0300 625.0000 1.0000
33.0400 644.0000 1.0000
33.0500 614.0000 1.0000
33.0600 637.0000 1.0000
33.0700 650.0000 1.0000
33.0800 659.0000 1.0000
33.0900 637.0000 1.0000
33.1000 648.0000 1.0000
33.1100 645.0000 1.0000
33.1200 653.0000 1.0000
33.1300 664.0000 1.0000
33.1400 653.0000 1.0000
33.1500 632.0000 1.0000
33.1600 667.0000 1.0000
33.1700 632.0000 1.0000
33.1800 716.0000 1.0000
33.1900 660.0000 1.0000
33.2000 619.0000 1.0000
33.2100 652.0000 1.0000
33.2200 685.0000 1.0000
33.2300 671.0000 1.0000
33.2400 668.0000 1.0000
33.2500 637.0000 1.0000
33.2600 644.0000 1.0000
33.2700 704.0000 1.0000
33.2800 676.0000 1.0000
33.2900 668.0000 1.0000
33.3000 700.0000 1.0000
33.3100 674.0000 1.0000
33.3200 662.0000 1.0000
33.3300 682.0000 1.0000
33.3400 672.0000 1.0000
33.3500 699.0000 1.0000
33.3600 680.0000 1.0000
33.3700 704.0000 1.0000
33.3800 738.0000 1.0000
33.3900 723.0000 1.0000
33.4000 749.0000 1.0000
33.4100 751.0000 1.0000
33.4200 791.0000 1.0000
33.4300 793.0000 1.0000
33.4400 820.0000 1.0000
33.4500 844.0000 1.0000
33.4600 824.0000 1.0000
33.4700 924.0000 1.0000
33.4800 907.0000 1.0000
33.4900 878.0000 1.0000
33.5000 943.0000 1.0000
33.5100 1028.0000 1.0000
33.5200 1043.0000 1.0000
33.5300 1116.0000 1.0000
33.5400 1116.0000 1.0000
33.5500 1214.0000 1.0000
33.5600 1238.0000 1.0000
33.5700 1257.0000 1.0000
33.5800 1290.0000 1.0000
33.5900 1424.0000 1.0000
33.6000 1422.0000 1.0000
33.6100 1459.0000 1.0000
33.6200 1492.0000 1.0000
33.6300 1538.0000 1.0000
33.6400 1570.0000 1.0000
33.6500 1492.0000 1.0000
33.6600 1470.0000 1.0000
33.6700 1414.0000 1.0000
33.6800 1431.0000 1.0000
33.6900 1399.0000 1.0000
33.7000 1344.0000 1.0000
33.7100 1274.0000 1.0000
33.7200 1243.0000 1.0000
33.7300 1241.0000 1.0000
33.7400 1249.0000 1.0000
33.7500 1141.0000 1.0000
33.7600 1048.0000 1.0000
33.7700 1012.0000 1.0000
33.7800 1039.0000 1.0000
33.7900 982.0000 1.0000
33.8000 943.0000 1.0000
33.8100 909.0000 1.0000
33.8200 890.0000 1.0000
33.8300 799.0000 1.0000
33.8400 831.0000 1.0000
33.8500 792.0000 1.0000
33.8600 765.0000 1.0000
33.8700 757.0000 1.0000
33.8800 725.0000 1.0000
33.8900 745.0000 1.0000
33.9000 748.0000 1.0000
33.9100 730.0000 1.0000
33.9200 728.0000 1.0000
33.9300 682.0000 1.0000
33.9400 714.0000 1.0000
33.9500 701.0000 1.0000
33.9600 686.0000 1.0000
33.9700 613.0000 1.0000
33.9800 632.0000 1.0000
33.9900 645.0000 1.0000
34.0000 642.0000 1.0000
34.0100 644.0000 1.0000
34.0200 639.0000 1.0000
34.0300 633.0000 1.0000
34.0400 605.0000 1.0000
34.0500 631.0000 1.0000
34.0600 603.0000 1.0000
34.0700 649.0000 1.0000
34.0800 646.0000 1.0000
34.0900 637.0000 1.0000
34.1000 624.0000 1.0000
34.1100 597.0000 1.0000
34.1200 600.0000 1.0000
34.1300 551.0000 1.0000
34.1400 572.0000 1.0000
34.1500 594.0000 1.0000
34.1600 550.0000 1.0000
34.1700 600.0000 1.0000
34.1800 613.0000 1.0000
34.1900 608.0000 1.0000
34.2000 572.0000 1.0000
34.2100 601.0000 1.0000
34.2200 573.0000 1.0000
34.2300 583.0000 1.0000
34.2400 582.0000 1.0000
34.2500 594.0000 1.0000
34.2600 559.0000 1.0000
34.2700 572.0000 1.0000
34.2800 564.0000 1.0000
34.2900 599.0000 1.0000
34.3000 595.0000 1.0000
34.3100 586.0000 1.0000
34.3200 574.0000 1.0000
34.3300 550.0000 1.0000
34.3400 581.0000 1.0000
34.3500 564.0000 1.0000
34.3600 535.0000 1.0000
34.3700 589.0000 1.0000
34.3800 532.0000 1.0000
34.3900 609.0000 1.0000
34.4000 542.0000 1.0000
34.4100 559.0000 1.0000
34.4200 575.0000 1.0000
34.4300 579.0000 1.0000
34.4400 533.0000 1.0000
34.4500 557.0000 1.0000
34.4600 561.0000 1.0000
34.4700 550.0000 1.0000
34.4800 544.0000 1.0000
34.4900 539.0000 1.0000
34.5000 554.0000 1.0000
34.5100 549.0000 1.0000
34.5200 610.0000 1.0000
34.5300 550.0000 1.0000
34.5400 537.0000 1.0000
34.5500 553.0000 1.0000
34.5600 553.0000 1.0000
34.5700 550.0000 1.0000
34.5800 557.0000 1.0000
34.5900 521.0000 1.0000
34.6000 547.0000 1.0000
34.6100 539.0000 1.0000
34.6200 523.0000 1.0000
34.6300 561.0000 1.0000
34.6400 548.0000 1.0000
34.6500 570.0000 1.0000
34.6600 543.0000 1.0000
34.6700 555.0000 1.0000
34.6800 564.0000 1.0000
34.6900 556.0000 1.0000
34.7000 502.0000 1.0000
34.7100 522.0000 1.0000
34.7200 520.0000 1.0000
34.7300 542.0000 1.0000
34.7400 588.0000 1.0000
34.7500 560.0000 1.0000
34.7600 551.0000 1.0000
34.7700 532.0000 1.0000
34.7800 548.0000 1.0000
34.7900 555.0000 1.0000
34.8000 559.0000 1.0000
34.8100 543.0000 1.0000
34.8200 558.0000 1.0000
34.8300 518.0000 1.0000
34.8400 512.0000 1.0000
34.8500 524.0000 1.0000
34.8600 540.0000 1.0000
34.8700 539.0000 1.0000
34.8800 547.0000 1.0000
34.8900 513.0000 1.0000
34.9000 551.0000 1.0000
34.9100 525.0000 1.0000
34.9200 541.0000 1.0000
34.9300 562.0000 1.0000
34.9400 554.0000 1.0000
34.9500 524.0000 1.0000
34.9600 521.0000 1.0000
34.9700 526.0000 1.0000
34.9800 531.0000 1.0000
34.9900 516.0000 1.0000
35.0000 570.0000 1.0000
35.0100 521.0000 1.0000
35.0200 538.0000 1.0000
35.0300 556.0000 1.0000
35.0400 522.0000 1.0000
35.0500 521.0000 1.0000
35.0600 567.0000 1.0000
35.0700 555.0000 1.0000
35.0800 552.0000 1.0000
35.0900 541.0000 1.0000
35.1000 521.0000 1.0000
35.1100 543.0000 1.0000
35.1200 543.0000 1.0000
35.1300 502.0000 1.0000
35.1400 542.0000 1.0000
35.1500 542.0000 1.0000
35.1600 554.0000 1.0000
35.1700 557.0000 1.0000
35.1800 561.0000 1.0000
35.1900 529.0000 1.0000
35.2000 546.0000 1.0000
35.2100 529.0000 1.0000
35.2200 551.0000 1.0000
35.2300 564.0000 1.0000
35.2400 515.0000 1.0000
35.2500 520.0000 1.0000
35.2600 537.0000 1.0000
35.2700 535.0000 1.0000
35.2800 525.0000 1.0000
35.2900 505.0000 1.0000
35.3000 590.0000 1.0000
35.3100 531.0000 1.0000
35.3200 595.0000 1.0000
35.3300 557.0000 1.0000
35.3400 545.0000 1.0000
35.3500 566.0000 1.0000
35.3600 606.0000 1.0000
35.3700 616.0000 1.0000
35.3800 540.0000 1.0000
35.3900 557.0000 1.0000
35.4000 559.0000 1.0000
35.4100 580.0000 1.0000
35.4200 571.0000 1.0000
35.4300 644.0000 1.0000
35.4400 643.0000 1.0000
35.4500 620.0000 1.0000
35.4600 589.0000 1.0000
35.4700 634.0000 1.0000
35.4800 605.0000 1.0000
35.4900 642.0000 1.0000
35.5000 597.0000 1.0000
35.5100 621.0000 1.0000
35.5200 667.0000 1.0000
35.5300 646.0000 1.0000
35.5400 657.0000 1.0000
35.5500 610.0000 1.0000
35.5600 623.0000 1.0000
35.5700 675.0000 1.0000
35.5800 602.0000 1.0000
35.5900 640.0000 1.0000
35.6000 656.0000 1.0000
35.6100 614.0000 1.0000
35.6200 630.0000 1.0000
35.6300 636.0000 1.0000
35.6400 634.0000 1.0000
35.6500 647.0000 1.0000
35.6600 637.0000 1.0000
35.6700 644.0000 1.0000
35.6800 635.0000 1.0000
35.6900 574.0000 1.0000
35.7000 543.0000 1.0000
35.7100 554.0000 1.0000
35.7200 577.0000 1.0000
35.7300 617.0000 1.0000
35.7400 566.0000 1.0000
35.7500 529.0000 1.0000
35.7600 546.0000 1.0000
35.7700 592.0000 1.0000
35.7800 567.0000 1.0000
35.7900 550.0000 1.0000
35.8000 540.0000 1.0000
35.8100 547.0000 1.0000
35.8200 568.0000 1.0000
35.8300 530.0000 1.0000
35.8400 542.0000 1.0000
35.8500 535.0000 1.0000
35.8600 530.0000 1.0000
35.8700 546.0000 1.0000
35.8800 560.0000 1.0000
35.8900 536.0000 1.0000
35.9000 527.0000 1.0000
35.9100 500.0000 1.0000
35.9200 515.0000 1.0000
35.9300 508.0000 1.0000
35.9400 499.0000 1.0000
35.9500 542.0000 1.0000
35.9600 478.0000 1.0000
35.9700 527.0000 1.0000
35.9800 491.0000 1.0000
35.9900 498.0000 1.0000
36.0000 511.0000 1.0000
36.0100 494.0000 1.0000
36.0200 499.0000 1.0000
36.0300 486.0000 1.0000
36.0400 510.0000 1.0000
36.0500 537.0000 1.0000
36.0600 512.0000 1.0000
36.0700 551.0000 1.0000
36.0800 502.0000 1.0000
36.0900 489.0000 1.0000
36.1000 515.0000 1.0000
36.1100 527.0000 1.0000
36.1200 496.0000 1.0000
36.1300 490.0000 1.0000
36.1400 478.0000 1.0000
36.1500 467.0000 1.0000
36.1600 491.0000 1.0000
36.1700 506.0000 1.0000
36.1800 486.0000 1.0000
36.1900 486.0000 1.0000
36.2000 469.0000 1.0000
36.2100 483.0000 1.0000
36.2200 521.0000 1.0000
36.2300 520.0000 1.0000
36.2400 485.0000 1.0000
36.2500 478.0000 1.0000
36.2600 470.0000 1.0000
36.2700 500.0000 1.0000
36.2800 484.0000 1.0000
36.2900 500.0000 1.0000
36.3000 512.0000 1.0000
36.3100 488.0000 1.0000
36.3200 491.0000 1.0000
36.3300 485.0000 1.0000
36.3400 516.0000 1.0000
36.3500 476.0000 1.0000
36.3600 502.0000 1.0000
36.3700 515.0000 1.0000
36.3800 470.0000 1.0000
36.3900 486.0000 1.0000
36.4000 458.0000 1.0000
36.4100 510.0000 1.0000
36.4200 501.0000 1.0000
36.4300 444.0000 1.0000
36.4400 480.0000 1.0000
36.4500 498.0000 1.0000
36.4600 487.0000 1.0000
36.4700 483.0000 1.0000
36.4800 504.0000 1.0000
36.4900 496.0000 1.0000
36.5000 476.0000 1.0000
36.5100 475.0000 1.0000
36.5200 486.0000 1.0000
36.5300 489.0000 1.0000
36.5400 469.0000 1.0000
36.5500 496.0000 1.0000
36.5600 507.0000 1.0000
36.5700 500.0000 1.0000
36.5800 498.0000 1.0000
36.5900 476.0000 1.0000
36.6000 482.0000 1.0000
36.6100 474.0000 1.0000
36.6200 500.0000 1.0000
36.6300 486.0000 1.0000
36.6400 520.0000 1.0000
36.6500 481.0000 1.0000
36.6600 489.0000 1.0000
36.6700 516.0000 1.0000
36.6800 497.0000 1.0000
36.6900 470.0000 1.0000
36.7000 515.0000 1.0000
36.7100 477.0000 1.0000
36.7200 444.0000 1.0000
36.7300 487.0000 1.0000
36.7400 475.0000 1.0000
36.7500 485.0000 1.0000
36.7600 482.0000 1.0000
36.7700 493.0000 1.0000
36.7800 497.0000 1.0000
36.7900 483.0000 1.0000
36.8000 484.0000 1.0000
36.8100 458.0000 1.0000
36.8200 482.0000 1.0000
36.8300 467.0000 1.0000
36.8400 480.0000 1.0000
36.8500 455.0000 1.0000
36.8600 491.0000 1.0000
36.8700 503.0000 1.0000
36.8800 502.0000 1.0000
36.8900 491.0000 1.0000
36.9000 491.0000 1.0000
36.9100 497.0000 1.0000
36.9200 513.0000 1.0000
36.9300 465.0000 1.0000
36.9400 462.0000 1.0000
36.9500 508.0000 1.0000
36.9600 507.0000 1.0000
36.9700 478.0000 1.0000
36.9800 495.0000 1.0000
36.9900 452.0000 1.0000
37.0000 476.0000 1.0000
37.0100 468.0000 1.0000
37.0200 509.0000 1.0000
37.0300 489.0000 1.0000
37.0400 473.0000 1.0000
37.0500 493.0000 1.0000
37.0600 526.0000 1.0000
37.0700 501.0000 1.0000
37.0800 492.0000 1.0000
37.0900 477.0000 1.0000
37.1000 478.0000 1.0000
37.1100 496.0000 1.0000
37.1200 486.0000 1.0000
37.1300 480.0000 1.0000
37.1400 513.0000 1.0000
37.1500 486.0000 1.0000
37.1600 515.0000 1.0000
37.1700 521.0000 1.0000
37.1800 505.0000 1.0000
37.1900 529.0000 1.0000
37.2000 519.0000 1.0000
37.2100 520.0000 1.0000
37.2200 505.0000 1.0000
37.2300 526.0000 1.0000
37.2400 512.0000 1.0000
37.2500 536.0000 1.0000
37.2600 545.0000 1.0000
37.2700 499.0000 1.0000
37.2800 507.0000 1.0000
37.2900 550.0000 1.0000
37.3000 558.0000 1.0000
37.3100 559.0000 1.0000
37.3200 590.0000 1.0000
37.3300 577.0000 1.0000
37.3400 579.0000 1.0000
37.3500 600.0000 1.0000
37.3600 656.0000 1.0000
37.3700 633.0000 1.0000
37.3800 653.0000 1.0000
37.3900 667.0000 1.0000
37.4000 674.0000 1.0000
37.4100 683.0000 1.0000
37.4200 679.0000 1.0000
37.4300 732.0000 1.0000
37.4400 770.0000 1.0000
37.4500 772.0000 1.0000
37.4600 848.0000 1.0000
37.4700 841.0000 1.0000
37.4800 838.0000 1.0000
37.4900 919.0000 1.0000
37.5000 912.0000 1.0000
37.5100 1019.0000 1.0000
37.5200 1020.0000 1.0000
37.5300 1064.0000 1.0000
37.5400 1184.0000 1.0000
37.5500 1222.0000 1.0000
37.5600 1268.0000 1.0000
37.5700 1389.0000 1.0000
37.5800 1498.0000 1.0000
37.5900 1561.0000 1.0000
37.6000 1677.0000 1.0000
37.6100 1819.0000 1.0000
37.6200 1909.0000 1.0000
37.6300 1985.0000 1.0000
37.6400 2110.0000 1.0000
37.6500 2047.0000 1.0000
37.6600 2190.0000 1.0000
37.6700 2190.0000 1.0000
37.6800 2303.0000 1.0000
37.6900 2304.0000 1.0000
37.7000 2331.0000 1.0000
37.7100 2265.0000 1.0000
37.7200 2252.0000 1.0000
37.7300 2190.0000 1.0000
37.7400 2161.0000 1.0000
37.7500 2189.0000 1.0000
37.7600 2167.0000 1.0000
37.7700 1997.0000 1.0000
37.7800 1907.0000 1.0000
37.7900 1749.0000 1.0000
37.8000 1672.0000 1.0000
37.8100 1653.0000 1.0000
37.8200 1551.0000 1.0000
37.8300 1407.0000 1.0000
37.8400 1420.0000 1.0000
37.8500 1336.0000 1.0000
37.8600 1250.0000 1.0000
37.8700 1155.0000 1.0000
37.8800 1114.0000 1.0000
37.8900 1027.0000 1.0000
37.9000 960.0000 1.0000
37.9100 898.0000 1.0000
37.9200 846.0000 1.0000
37.9300 807.0000 1.0000
37.9400 811.0000 1.0000
37.9500 720.0000 1.0000
37.9600 707.0000 1.0000
37.9700 666.0000 1.0000
37.9800 629.0000 1.0000
37.9900 637.0000 1.0000
38.0000 632.0000 1.0000
38.0100 614.0000 1.0000
38.0200 568.0000 1.0000
38.0300 640.0000 1.0000
38.0400 615.0000 1.0000
38.0500 561.0000 1.0000
38.0600 553.0000 1.0000
38.0700 545.0000 1.0000
38.0800 547.0000 1.0000
38.0900 550.0000 1.0000
38.1000 529.0000 1.0000
38.1100 502.0000 1.0000
38.1200 541.0000 1.0000
38.1300 512.0000 1.0000
38.1400 507.0000 1.0000
38.1500 513.0000 1.0000
38.1600 500.0000 1.0000
38.1700 507.0000 1.0000
38.1800 488.0000 1.0000
38.1900 482.0000 1.0000
38.2000 477.0000 1.0000
38.2100 488.0000 1.0000
38.2200 436.0000 1.0000
38.2300 464.0000 1.0000
38.2400 465.0000 1.0000
38.2500 471.0000 1.0000
38.2600 488.0000 1.0000
38.2700 469.0000 1.0000
38.2800 449.0000 1.0000
38.2900 444.0000 1.0000
38.3000 448.0000 1.0000
38.3100 391.0000 1.0000
38.3200 434.0000 1.0000
38.3300 442.0000 1.0000
38.3400 463.0000 1.0000
38.3500 436.0000 1.0000
38.3600 470.0000 1.0000
38.3700 440.0000 1.0000
38.3800 449.0000 1.0000
38.3900 400.0000 1.0000
38.4000 464.0000 1.0000
38.4100 446.0000 1.0000
38.4200 443.0000 1.0000
38.4300 445.0000 1.0000
38.4400 454.0000 1.0000
38.4500 461.0000 1.0000
38.4600 481.0000 1.0000
38.4700 448.0000 1.0000
38.4800 464.0000 1.0000
38.4900 445.0000 1.0000
38.5000 477.0000 1.0000
38.5100 473.0000 1.0000
38.5200 439.0000 1.0000
38.5300 461.0000 1.0000
38.5400 418.0000 1.0000
38.5500 462.0000 1.0000
38.5600 420.0000 1.0000
38.5700 451.0000 1.0000
38.5800 448.0000 1.0000
38.5900 466.0000 1.0000
38.6000 446.0000 1.0000
38.6100 445.0000 1.0000
38.6200 477.0000 1.0000
38.6300 461.0000 1.0000
38.6400 486.0000 1.0000
38.6500 453.0000 1.0000
38.6600 438.0000 1.0000
38.6700 440.0000 1.0000
38.6800 465.0000 1.0000
38.6900 472.0000 1.0000
38.7000 496.0000 1.0000
38.7100 461.0000 1.0000
38.7200 441.0000 1.0000
38.7300 480.0000 1.0000
38.7400 435.0000 1.0000
38.7500 436.0000 1.0000
38.7600 490.0000 1.0000
38.7700 474.0000 1.0000
38.7800 471.0000 1.0000
38.7900 468.0000 1.0000
38.8000 445.0000 1.0000
38.8100 424.0000 1.0000
38.8200 433.0000 1.0000
38.8300 449.0000 1.0000
38.8400 445.0000 1.0000
38.8500 467.0000 1.0000
38.8600 452.0000 1.0000
38.8700 466.0000 1.0000
38.8800 436.0000 1.0000
38.8900 426.0000 1.0000
38.9000 425.0000 1.0000
38.9100 433.0000 1.0000
38.9200 460.0000 1.0000
38.9300 456.0000 1.0000
38.9400 415.0000 1.0000
38.9500 428.0000 1.0000
38.9600 416.0000 1.0000
38.9700 429.0000 1.0000
38.9800 435.0000 1.0000
38.9900 420.0000 1.0000
39.0000 434.0000 1.0000
39.0100 440.0000 1.0000
39.0200 412.0000 1.0000
39.0300 438.0000 1.0000
39.0400 434.0000 1.0000
39.0500 413.0000 1.0000
39.0600 446.0000 1.0000
39.0700 398.0000 1.0000
39.0800 407.0000 1.0000
39.0900 405.0000 1.0000
39.1000 406.0000 1.0000
39.1100 423.0000 1.0000
39.1200 450.0000 1.0000
39.1300 423.0000 1.0000
39.1400 398.0000 1.0000
39.1500 459.0000 1.0000
39.1600 408.0000 1.0000
39.1700 411.0000 1.0000
39.1800 385.0000 1.0000
39.1900 385.0000 1.0000
39.2000 412.0000 1.0000
39.2100 421.0000 1.0000
39.2200 425.0000 1.0000
39.2300 420.0000 1.0000
39.2400 408.0000 1.0000
39.2500 426.0000 1.0000
39.2600 418.0000 1.0000
39.2700 416.0000 1.0000
39.2800 427.0000 1.0000
39.2900 433.0000 1.0000
39.3000 453.0000 1.0000
39.3100 404.0000 1.0000
39.3200 441.0000 1.0000
39.3300 422.0000 1.0000
39.3400 444.0000 1.0000
39.3500 431.0000 1.0000
39.3600 423.0000 1.0000
39.3700 438.0000 1.0000
39.3800 411.0000 1.0000
39.3900 429.0000 1.0000
39.4000 393.0000 1.0000
39.4100 415.0000 1.0000
39.4200 418.0000 1.0000
39.4300 409.0000 1.0000
39.4400 416.0000 1.0000
39.4500 398.0000 1.0000
39.4600 408.0000 1.0000
39.4700 407.0000 1.0000
39.4800 418.0000 1.0000
39.4900 420.0000 1.0000
39.5000 414.0000 1.0000
39.5100 382.0000 1.0000
39.5200 380.0000 1.0000
39.5300 402.0000 1.0000
39.5400 400.0000 1.0000
39.5500 409.0000 1.0000
39.5600 398.0000 1.0000
39.5700 377.0000 1.0000
39.5800 416.0000 1.0000
39.5900 425.0000 1.0000
39.6000 405.0000 1.0000
39.6100 400.0000 1.0000
39.6200 401.0000 1.0000
39.6300 416.0000 1.0000
39.6400 396.0000 1.0000
39.6500 428.0000 1.0000
39.6600 410.0000 1.0000
39.6700 397.0000 1.0000
39.6800 442.0000 1.0000
39.6900 436.0000 1.0000
39.7000 413.0000 1.0000
39.7100 403.0000 1.0000
39.7200 415.0000 1.0000
39.7300 443.0000 1.0000
39.7400 426.0000 1.0000
39.7500 422.0000 1.0000
39.7600 382.0000 1.0000
39.7700 394.0000 1.0000
39.7800 433.0000 1.0000
39.7900 409.0000 1.0000
39.8000 441.0000 1.0000
39.8100 406.0000 1.0000
39.8200 405.0000 1.0000
39.8300 412.0000 1.0000
39.8400 395.0000 1.0000
39.8500 414.0000 1.0000
39.8600 374.0000 1.0000
39.8700 369.0000 1.0000
39.8800 432.0000 1.0000
39.8900 403.0000 1.0000
39.9000 396.0000 1.0000
39.9100 389.0000 1.0000
39.9200 447.0000 1.0000
39.9300 388.0000 1.0000
39.9400 370.0000 1.0000
39.9500 404.0000 1.0000
39.9600 434.0000 1.0000
39.9700 413.0000 1.0000
39.9800 397.0000 1.0000
39.9900 404.0000 1.0000
40.0000 429.0000 1.0000
40.0100 410.0000 1.0000
40.0200 356.0000 1.0000
40.0300 397.0000 1.0000
40.0400 413.0000 1.0000
40.0500 396.0000 1.0000
40.0600 405.0000 1.0000
40.0700 392.0000 1.0000
40.0800 405.0000 1.0000
40.0900 422.0000 1.0000
40.1000 404.0000 1.0000
40.1100 377.0000 1.0000
40.1200 379.0000 1.0000
40.1300 391.0000 1.0000
40.1400 401.0000 1.0000
40.1500 419.0000 1.0000
40.1600 396.0000 1.0000
40.1700 442.0000 1.0000
40.1800 386.0000 1.0000
40.1900 439.0000 1.0000
40.2000 394.0000 1.0000
40.2100 393.0000 1.0000
40.2200 377.0000 1.0000
40.2300 393.0000 1.0000
40.2400 379.0000 1.0000
40.2500 406.0000 1.0000
40.2600 412.0000 1.0000
40.2700 399.0000 1.0000
40.2800 367.0000 1.0000
40.2900 389.0000 1.0000
40.3000 391.0000 1.0000
40.3100 433.0000 1.0000
40.3200 378.0000 1.0000
40.3300 405.0000 1.0000
40.3400 395.0000 1.0000
40.3500 382.0000 1.0000
40.3600 406.0000 1.0000
40.3700 389.0000 1.0000
40.3800 420.0000 1.0000
40.3900 401.0000 1.0000
40.4000 432.0000 1.0000
40.4100 404.0000 1.0000
40.4200 397.0000 1.0000
40.4300 411.0000 1.0000
40.4400 427.0000 1.0000
40.4500 396.0000 1.0000
40.4600 392.0000 1.0000
40.4700 435.0000 1.0000
40.4800 385.0000 1.0000
40.4900 409.0000 1.0000
40.5000 407.0000 1.0000
40.5100 407.0000 1.0000
40.5200 394.0000 1.0000
40.5300 392.0000 1.0000
40.5400 376.0000 1.0000
40.5500 394.0000 1.0000
40.5600 376.0000 1.0000
40.5700 409.0000 1.0000
40.5800 417.0000 1.0000
40.5900 397.0000 1.0000
40.6000 408.0000 1.0000
40.6100 381.0000 1.0000
40.6200 421.0000 1.0000
40.6300 412.0000 1.0000
40.6400 378.0000 1.0000
40.6500 373.0000 1.0000
40.6600 398.0000 1.0000
40.6700 411.0000 1.0000
40.6800 394.0000 1.0000
40.6900 405.0000 1.0000
40.7000 388.0000 1.0000
40.7100 409.0000 1.0000
40.7200 414.0000 1.0000
40.7300 418.0000 1.0000
40.7400 385.0000 1.0000
40.7500 393.0000 1.0000
40.7600 406.0000 1.0000
40.7700 414.0000 1.0000
40.7800 376.0000 1.0000
40.7900 386.0000 1.0000
40.8000 401.0000 1.0000
40.8100 395.0000 1.0000
40.8200 412.0000 1.0000
40.8300 396.0000 1.0000
40.8400 404.0000 1.0000
40.8500 393.0000 1.0000
40.8600 363.0000 1.0000
40.8700 411.0000 1.0000
40.8800 399.0000 1.0000
40.8900 401.0000 1.0000
40.9000 388.0000 1.0000
40.9100 406.0000 1.0000
40.9200 393.0000 1.0000
40.9300 397.0000 1.0000
40.9400 427.0000 1.0000
40.9500 392.0000 1.0000
40.9600 403.0000 1.0000
40.9700 395.0000 1.0000
40.9800 391.0000 1.0000
40.9900 406.0000 1.0000
41.0000 423.0000 1.0000
41.0100 405.0000 1.0000
41.0200 405.0000 1.0000
41.0300 403.0000 1.0000
41.0400 429.0000 1.0000
41.0500 405.0000 1.0000
41.0600 390.0000 1.0000
41.0700 403.0000 1.0000
41.0800 392.0000 1.0000
41.0900 382.0000 1.0000
41.1000 372.0000 1.0000
41.1100 395.0000 1.0000
41.1200 443.0000 1.0000
41.1300 408.0000 1.0000
41.1400 386.0000 1.0000
41.1500 421.0000 1.0000
41.1600 427.0000 1.0000
41.1700 389.0000 1.0000
41.1800 393.0000 1.0000
41.1900 404.0000 1.0000
41.2000 389.0000 1.0000
41.2100 403.0000 1.0000
41.2200 400.0000 1.0000
41.2300 411.0000 1.0000
41.2400 404.0000 1.0000
41.2500 369.0000 1.0000
41.2600 351.0000 1.0000
41.2700 346.0000 1.0000
41.2800 416.0000 1.0000
41.2900 405.0000 1.0000
41.3000 381.0000 1.0000
41.3100 398.0000 1.0000
41.3200 399.0000 1.0000
41.3300 398.0000 1.0000
41.3400 410.0000 1.0000
41.3500 401.0000 1.0000
41.3600 380.0000 1.0000
41.3700 373.0000 1.0000
41.3800 417.0000 1.0000
41.3900 379.0000 1.0000
41.4000 382.0000 1.0000
41.4100 394.0000 1.0000
41.4200 372.0000 1.0000
41.4300 392.0000 1.0000
41.4400 382.0000 1.0000
41.4500 379.0000 1.0000
41.4600 383.0000 1.0000
41.4700 395.0000 1.0000
41.4800 371.0000 1.0000
41.4900 397.0000 1.0000
41.5000 363.0000 1.0000
41.5100 381.0000 1.0000
41.5200 429.0000 1.0000
41.5300 399.0000 1.0000
41.5400 396.0000 1.0000
41.5500 390.0000 1.0000
41.5600 400.0000 1.0000
41.5700 405.0000 1.0000
41.5800 396.0000 1.0000
41.5900 382.0000 1.0000
41.6000 369.0000 1.0000
41.6100 399.0000 1.0000
41.6200 405.0000 1.0000
41.6300 416.0000 1.0000
41.6400 399.0000 1.0000
41.6500 400.0000 1.0000
41.6600 421.0000 1.0000
41.6700 402.0000 1.0000
41.6800 385.0000 1.0000
41.6900 417.0000 1.0000
41.7000 399.0000 1.0000
41.7100 369.0000 1.0000
41.7200 385.0000 1.0000
41.7300 406.0000 1.0000
41.7400 378.0000 1.0000
41.7500 395.0000 1.0000
41.7600 388.0000 1.0000
41.7700 414.0000 1.0000
41.7800 392.0000 1.0000
41.7900 367.0000 1.0000
41.8000 374.0000 1.0000
41.8100 386.0000 1.0000
41.8200 398.0000 1.0000
41.8300 391.0000 1.0000
41.8400 392.0000 1.0000
41.8500 371.0000 1.0000
41.8600 386.0000 1.0000
41.8700 409.0000 1.0000
41.8800 398.0000 1.0000
41.8900 401.0000 1.0000
41.9000 398.0000 1.0000
41.9100 388.0000 1.0000
41.9200 394.0000 1.0000
41.9300 398.0000 1.0000
41.9400 389.0000 1.0000
41.9500 367.0000 1.0000
41.9600 392.0000 1.0000
41.9700 372.0000 1.0000
41.9800 371.0000 1.0000
41.9900 379.0000 1.0000
42.0000 369.0000 1.0000
42.0100 372.0000 1.0000
42.0200 381.0000 1.0000
42.0300 413.0000 1.0000
42.0400 403.0000 1.0000
42.0500 396.0000 1.0000
42.0600 412.0000 1.0000
42.0700 379.0000 1.0000
42.0800 368.0000 1.0000
42.0900 390.0000 1.0000
42.1000 422.0000 1.0000
42.1100 391.0000 1.0000
42.1200 384.0000 1.0000
42.1300 384.0000 1.0000
42.1400 393.0000 1.0000
42.1500 404.0000 1.0000
42.1600 383.0000 1.0000
42.1700 406.0000 1.0000
42.1800 392.0000 1.0000
42.1900 364.0000 1.0000
42.2000 373.0000 1.0000
42.2100 378.0000 1.0000
42.2200 392.0000 1.0000
42.2300 397.0000 1.0000
42.2400 388.0000 1.0000
42.2500 376.0000 1.0000
42.2600 415.0000 1.0000
42.2700 392.0000 1.0000
42.2800 413.0000 1.0000
42.2900 424.0000 1.0000
42.3000 411.0000 1.0000
42.3100 412.0000 1.0000
42.3200 424.0000 1.0000
42.3300 471.0000 1.0000
42.3400 434.0000 1.0000
42.3500 453.0000 1.0000
42.3600 433.0000 1.0000
42.3700 432.0000 1.0000
42.3800 429.0000 1.0000
42.3900 387.0000 1.0000
42.4000 433.0000 1.0000
42.4100 464.0000 1.0000
42.4200 484.0000 1.0000
42.4300 418.0000 1.0000
42.4400 401.0000 1.0000
42.4500 425.0000 1.0000
42.4600 402.0000 1.0000
42.4700 408.0000 1.0000
42.4800 388.0000 1.0000
42.4900 377.0000 1.0000
42.5000 420.0000 1.0000
42.5100 395.0000 1.0000
42.5200 407.0000 1.0000
42.5300 404.0000 1.0000
42.5400 413.0000 1.0000
42.5500 400.0000 1.0000
42.5600 423.0000 1.0000
42.5700 401.0000 1.0000
42.5800 402.0000 1.0000
42.5900 402.0000 1.0000
42.6000 404.0000 1.0000
42.6100 378.0000 1.0000
42.6200 380.0000 1.0000
42.6300 402.0000 1.0000
42.6400 394.0000 1.0000
42.6500 378.0000 1.0000
42.6600 386.0000 1.0000
42.6700 380.0000 1.0000
42.6800 383.0000 1.0000
42.6900 394.0000 1.0000
42.7000 400.0000 1.0000
42.7100 409.0000 1.0000
42.7200 387.0000 1.0000
42.7300 403.0000 1.0000
42.7400 377.0000 1.0000
42.7500 380.0000 1.0000
42.7600 363.0000 1.0000
42.7700 360.0000 1.0000
42.7800 388.0000 1.0000
42.7900 364.0000 1.0000
42.8000 365.0000 1.0000
42.8100 403.0000 1.0000
42.8200 382.0000 1.0000
42.8300 391.0000 1.0000
42.8400 401.0000 1.0000
42.8500 390.0000 1.0000
42.8600 384.0000 1.0000
42.8700 371.0000 1.0000
42.8800 358.0000 1.0000
42.8900 363.0000 1.0000
42.9000 401.0000 1.0000
42.9100 379.0000 1.0000
42.9200 376.0000 1.0000
42.9300 418.0000 1.0000
42.9400 375.0000 1.0000
42.9500 376.0000 1.0000
42.9600 371.0000 1.0000
42.9700 381.0000 1.0000
42.9800 380.0000 1.0000
42.9900 375.0000 1.0000
43.0000 360.0000 1.0000
43.0100 407.0000 1.0000
43.0200 368.0000 1.0000
43.0300 379.0000 1.0000
43.0400 372.0000 1.0000
43.0500 382.0000 1.0000
43.0600 377.0000 1.0000
43.0700 381.0000 1.0000
43.0800 402.0000 1.0000
43.0900 385.0000 1.0000
43.1000 368.0000 1.0000
43.1100 370.0000 1.0000
43.1200 376.0000 1.0000
43.1300 380.0000 1.0000
43.1400 406.0000 1.0000
43.1500 387.0000 1.0000
43.1600 370.0000 1.0000
43.1700 400.0000 1.0000
43.1800 410.0000 1.0000
43.1900 387.0000 1.0000
43.2000 356.0000 1.0000
43.2100 403.0000 1.0000
43.2200 387.0000 1.0000
43.2300 387.0000 1.0000
43.2400 354.0000 1.0000
43.2500 380.0000 1.0000
43.2600 359.0000 1.0000
43.2700 393.0000 1.0000
43.2800 372.0000 1.0000
43.2900 379.0000 1.0000
43.3000 368.0000 1.0000
43.3100 385.0000 1.0000
43.3200 355.0000 1.0000
43.3300 384.0000 1.0000
43.3400 397.0000 1.0000
43.3500 390.0000 1.0000
43.3600 377.0000 1.0000
43.3700 359.0000 1.0000
43.3800 377.0000 1.0000
43.3900 402.0000 1.0000
43.4000 366.0000 1.0000
43.4100 358.0000 1.0000
43.4200 353.0000 1.0000
43.4300 368.0000 1.0000
43.4400 396.0000 1.0000
43.4500 373.0000 1.0000
43.4600 364.0000 1.0000
43.4700 386.0000 1.0000
43.4800 390.0000 1.0000
43.4900 394.0000 1.0000
43.5000 370.0000 1.0000
43.5100 390.0000 1.0000
43.5200 375.0000 1.0000
43.5300 361.0000 1.0000
43.5400 382.0000 1.0000
43.5500 381.0000 1.0000
43.5600 373.0000 1.0000
43.5700 410.0000 1.0000
43.5800 386.0000 1.0000
43.5900 366.0000 1.0000
43.6000 368.0000 1.0000
43.6100 378.0000 1.0000
43.6200 373.0000 1.0000
43.6300 360.0000 1.0000
43.6400 366.0000 1.0000
43.6500 394.0000 1.0000
43.6600 373.0000 1.0000
43.6700 376.0000 1.0000
43.6800 376.0000 1.0000
43.6900 370.0000 1.0000
43.7000 388.0000 1.0000
43.7100 368.0000 1.0000
43.7200 368.0000 1.0000
43.7300 343.0000 1.0000
43.7400 355.0000 1.0000
43.7500 380.0000 1.0000
43.7600 364.0000 1.0000
43.7700 352.0000 1.0000
43.7800 336.0000 1.0000
43.7900 404.0000 1.0000
43.8000 390.0000 1.0000
43.8100 363.0000 1.0000
43.8200 380.0000 1.0000
43.8300 384.0000 1.0000
43.8400 369.0000 1.0000
43.8500 405.0000 1.0000
43.8600 403.0000 1.0000
43.8700 411.0000 1.0000
43.8800 373.0000 1.0000
43.8900 391.0000 1.0000
43.9000 392.0000 1.0000
43.9100 382.0000 1.0000
43.9200 374.0000 1.0000
43.9300 322.0000 1.0000
43.9400 371.0000 1.0000
43.9500 358.0000 1.0000
43.9600 333.0000 1.0000
43.9700 352.0000 1.0000
43.9800 361.0000 1.0000
43.9900 351.0000 1.0000
44.0000 337.0000 1.0000
44.0100 398.0000 1.0000
44.0200 375.0000 1.0000
44.0300 365.0000 1.0000
44.0400 370.0000 1.0000
44.0500 393.0000 1.0000
44.0600 363.0000 1.0000
44.0700 369.0000 1.0000
44.0800 357.0000 1.0000
44.0900 362.0000 1.0000
44.1000 377.0000 1.0000
44.1100 387.0000 1.0000
44.1200 405.0000 1.0000
44.1300 370.0000 1.0000
44.1400 387.0000 1.0000
44.1500 380.0000 1.0000
44.1600 360.0000 1.0000
44.1700 372.0000 1.0000
44.1800 396.0000 1.0000
44.1900 376.0000 1.0000
44.2000 381.0000 1.0000
44.2100 344.0000 1.0000
44.2200 371.0000 1.0000
44.2300 377.0000 1.0000
44.2400 405.0000 1.0000
44.2500 337.0000 1.0000
44.2600 394.0000 1.0000
44.2700 366.0000 1.0000
44.2800 359.0000 1.0000
44.2900 347.0000 1.0000
44.3000 373.0000 1.0000
44.3100 359.0000 1.0000
44.3200 356.0000 1.0000
44.3300 374.0000 1.0000
44.3400 368.0000 1.0000
44.3500 369.0000 1.0000
44.3600 355.0000 1.0000
44.3700 364.0000 1.0000
44.3800 373.0000 1.0000
44.3900 383.0000 1.0000
44.4000 329.0000 1.0000
44.4100 354.0000 1.0000
44.4200 381.0000 1.0000
44.4300 355.0000 1.0000
44.4400 350.0000 1.0000
44.4500 342.0000 1.0000
44.4600 346.0000 1.0000
44.4700 376.0000 1.0000
44.4800 351.0000 1.0000
44.4900 404.0000 1.0000
44.5000 357.0000 1.0000
44.5100 393.0000 1.0000
44.5200 383.0000 1.0000
44.5300 382.0000 1.0000
44.5400 356.0000 1.0000
44.5500 354.0000 1.0000
44.5600 375.0000 1.0000
44.5700 378.0000 1.0000
44.5800 351.0000 1.0000
44.5900 385.0000 1.0000
44.6000 375.0000 1.0000
44.6100 355.0000 1.0000
44.6200 362.0000 1.0000
44.6300 367.0000 1.0000
44.6400 336.0000 1.0000
44.6500 359.0000 1.0000
44.6600 380.0000 1.0000
44.6700 382.0000 1.0000
44.6800 374.0000 1.0000
44.6900 354.0000 1.0000
44.7000 314.0000 1.0000
44.7100 329.0000 1.0000
44.7200 391.0000 1.0000
44.7300 375.0000 1.0000
44.7400 338.0000 1.0000
44.7500 358.0000 1.0000
44.7600 378.0000 1.0000
44.7700 370.0000 1.0000
44.7800 353.0000 1.0000
44.7900 341.0000 1.0000
44.8000 348.0000 1.0000
44.8100 384.0000 1.0000
44.8200 349.0000 1.0000
44.8300 375.0000 1.0000
44.8400 336.0000 1.0000
44.8500 362.0000 1.0000
44.8600 365.0000 1.0000
44.8700 364.0000 1.0000
44.8800 356.0000 1.0000
44.8900 351.0000 1.0000
44.9000 361.0000 1.0000
44.9100 362.0000 1.0000
44.9200 354.0000 1.0000
44.9300 382.0000 1.0000
44.9400 368.0000 1.0000
44.9500 361.0000 1.0000
44.9600 350.0000 1.0000
44.9700 366.0000 1.0000
44.9800 382.0000 1.0000
44.9900 375.0000 1.0000
45.0000 359.0000 1.0000
45.0100 353.0000 1.0000
45.0200 360.0000 1.0000
45.0300 377.0000 1.0000
45.0400 361.0000 1.0000
45.0500 358.0000 1.0000
45.0600 355.0000 1.0000
45.0700 368.0000 1.0000
45.0800 382.0000 1.0000
45.0900 355.0000 1.0000
45.1000 366.0000 1.0000
45.1100 359.0000 1.0000
45.1200 352.0000 1.0000
45.1300 374.0000 1.0000
45.1400 387.0000 1.0000
45.1500 348.0000 1.0000
45.1600 367.0000 1.0000
45.1700 361.0000 1.0000
45.1800 350.0000 1.0000
45.1900 364.0000 1.0000
45.2000 390.0000 1.0000
45.2100 380.0000 1.0000
45.2200 364.0000 1.0000
45.2300 380.0000 1.0000
45.2400 350.0000 1.0000
45.2500 376.0000 1.0000
45.2600 365.0000 1.0000
45.2700 332.0000 1.0000
45.2800 358.0000 1.0000
45.2900 370.0000 1.0000
45.3000 344.0000 1.0000
45.3100 354.0000 1.0000
45.3200 376.0000 1.0000
45.3300 349.0000 1.0000
45.3400 392.0000 1.0000
45.3500 328.0000 1.0000
45.3600 344.0000 1.0000
45.3700 379.0000 1.0000
45.3800 354.0000 1.0000
45.3900 347.0000 1.0000
45.4000 351.0000 1.0000
45.4100 352.0000 1.0000
45.4200 354.0000 1.0000
45.4300 378.0000 1.0000
45.4400 339.0000 1.0000
45.4500 354.0000 1.0000
45.4600 365.0000 1.0000
45.4700 324.0000 1.0000
45.4800 338.0000 1.0000
45.4900 354.0000 1.0000
45.5000 358.0000 1.0000
45.5100 347.0000 1.0000
45.5200 331.0000 1.0000
45.5300 328.0000 1.0000
45.5400 357.0000 1.0000
45.5500 348.0000 1.0000
45.5600 333.0000 1.0000
45.5700 401.0000 1.0000
45.5800 356.0000 1.0000
45.5900 370.0000 1.0000
45.6000 354.0000 1.0000
45.6100 360.0000 1.0000
45.6200 373.0000 1.0000
45.6300 348.0000 1.0000
45.6400 377.0000 1.0000
45.6500 369.0000 1.0000
45.6600 346.0000 1.0000
45.6700 342.0000 1.0000
45.6800 382.0000 1.0000
45.6900 357.0000 1.0000
45.7000 311.0000 1.0000
45.7100 357.0000 1.0000
45.7200 348.0000 1.0000
45.7300 379.0000 1.0000
45.7400 368.0000 1.0000
45.7500 374.0000 1.0000
45.7600 339.0000 1.0000
45.7700 347.0000 1.0000
45.7800 361.0000 1.0000
45.7900 367.0000 1.0000
45.8000 361.0000 1.0000
45.8100 351.0000 1.0000
45.8200 355.0000 1.0000
45.8300 348.0000 1.0000
45.8400 393.0000 1.0000
45.8500 341.0000 1.0000
45.8600 350.0000 1.0000
45.8700 371.0000 1.0000
45.8800 376.0000 1.0000
45.8900 343.0000 1.0000
45.9000 342.0000 1.0000
45.9100 324.0000 1.0000
45.9200 365.0000 1.0000
45.9300 392.0000 1.0000
45.9400 359.0000 1.0000
45.9500 373.0000 1.0000
45.9600 322.0000 1.0000
45.9700 341.0000 1.0000
45.9800 333.0000 1.0000
45.9900 344.0000 1.0000
46.0000 342.0000 1.0000
46.0100 326.0000 1.0000
46.0200 345.0000 1.0000
46.0300 339.0000 1.0000
46.0400 340.0000 1.0000
46.0500 331.0000 1.0000
46.0600 353.0000 1.0000
46.0700 373.0000 1.0000
46.0800 337.0000 1.0000
46.0900 345.0000 1.0000
46.1000 343.0000 1.0000
46.1100 324.0000 1.0000
46.1200 372.0000 1.0000
46.1300 385.0000 1.0000
46.1400 350.0000 1.0000
46.1500 350.0000 1.0000
46.1600 370.0000 1.0000
46.1700 382.0000 1.0000
46.1800 389.0000 1.0000
46.1900 379.0000 1.0000
46.2000 380.0000 1.0000
46.2100 388.0000 1.0000
46.2200 378.0000 1.0000
46.2300 360.0000 1.0000
46.2400 359.0000 1.0000
46.2500 341.0000 1.0000
46.2600 338.0000 1.0000
46.2700 333.0000 1.0000
46.2800 328.0000 1.0000
46.2900 376.0000 1.0000
46.3000 354.0000 1.0000
46.3100 355.0000 1.0000
46.3200 344.0000 1.0000
46.3300 360.0000 1.0000
46.3400 336.0000 1.0000
46.3500 336.0000 1.0000
46.3600 342.0000 1.0000
46.3700 342.0000 1.0000
46.3800 335.0000 1.0000
46.3900 351.0000 1.0000
46.4000 349.0000 1.0000
46.4100 330.0000 1.0000
46.4200 345.0000 1.0000
46.4300 328.0000 1.0000
46.4400 320.0000 1.0000
46.4500 350.0000 1.0000
46.4600 344.0000 1.0000
46.4700 332.0000 1.0000
46.4800 342.0000 1.0000
46.4900 359.0000 1.0000
46.5000 367.0000 1.0000
46.5100 343.0000 1.0000
46.5200 317.0000 1.0000
46.5300 352.0000 1.0000
46.5400 356.0000 1.0000
46.5500 345.0000 1.0000
46.5600 357.0000 1.0000
46.5700 331.0000 1.0000
46.5800 326.0000 1.0000
46.5900 359.0000 1.0000
46.6000 361.0000 1.0000
46.6100 367.0000 1.0000
46.6200 344.0000 1.0000
46.6300 347.0000 1.0000
46.6400 346.0000 1.0000
46.6500 318.0000 1.0000
46.6600 346.0000 1.0000
46.6700 331.0000 1.0000
46.6800 338.0000 1.0000
46.6900 379.0000 1.0000
46.7000 362.0000 1.0000
46.7100 348.0000 1.0000
46.7200 379.0000 1.0000
46.7300 385.0000 1.0000
46.7400 360.0000 1.0000
46.7500 348.0000 1.0000
46.7600 367.0000 1.0000
46.7700 340.0000 1.0000
46.7800 328.0000 1.0000
46.7900 366.0000 1.0000
46.8000 361.0000 1.0000
46.8100 380.0000 1.0000
46.8200 340.0000 1.0000
46.8300 339.0000 1.0000
46.8400 334.0000 1.0000
46.8500 361.0000 1.0000
46.8600 344.0000 1.0000
46.8700 326.0000 1.0000
46.8800 323.0000 1.0000
46.8900 328.0000 1.0000
46.9000 318.0000 1.0000
46.9100 347.0000 1.0000
46.9200 339.0000 1.0000
46.9300 343.0000 1.0000
46.9400 307.0000 1.0000
46.9500 351.0000 1.0000
46.9600 352.0000 1.0000
46.9700 346.0000 1.0000
46.9800 329.0000 1.0000
46.9900 344.0000 1.0000
47.0000 357.0000 1.0000
47.0100 369.0000 1.0000
47.0200 319.0000 1.0000
47.0300 331.0000 1.0000
47.0400 351.0000 1.0000
47.0500 343.0000 1.0000
47.0600 363.0000 1.0000
47.0700 349.0000 1.0000
47.0800 381.0000 1.0000
47.0900 354.0000 1.0000
47.1000 365.0000 1.0000
47.1100 352.0000 1.0000
47.1200 348.0000 1.0000
47.1300 345.0000 1.0000
47.1400 354.0000 1.0000
47.1500 352.0000 1.0000
47.1600 341.0000 1.0000
47.1700 363.0000 1.0000
47.1800 351.0000 1.0000
47.1900 346.0000 1.0000
47.2000 324.0000 1.0000
47.2100 329.0000 1.0000
47.2200 333.0000 1.0000
47.2300 336.0000 1.0000
47.2400 358.0000 1.0000
47.2500 340.0000 1.0000
47.2600 352.0000 1.0000
47.2700 345.0000 1.0000
47.2800 313.0000 1.0000
47.2900 347.0000 1.0000
47.3000 308.0000 1.0000
47.3100 338.0000 1.0000
47.3200 345.0000 1.0000
47.3300 322.0000 1.0000
47.3400 320.0000 1.0000
47.3500 354.0000 1.0000
47.3600 374.0000 1.0000
47.3700 308.0000 1.0000
47.3800 325.0000 1.0000
47.3900 313.0000 1.0000
47.4000 338.0000 1.0000
47.4100 341.0000 1.0000
47.4200 340.0000 1.0000
47.4300 362.0000 1.0000
47.4400 369.0000 1.0000
47.4500 316.0000 1.0000
47.4600 321.0000 1.0000
47.4700 331.0000 1.0000
47.4800 345.0000 1.0000
47.4900 350.0000 1.0000
47.5000 350.0000 1.0000
47.5100 308.0000 1.0000
47.5200 318.0000 1.0000
47.5300 318.0000 1.0000
47.5400 315.0000 1.0000
47.5500 351.0000 1.0000
47.5600 326.0000 1.0000
47.5700 332.0000 1.0000
47.5800 339.0000 1.0000
47.5900 356.0000 1.0000
47.6000 322.0000 1.0000
47.6100 348.0000 1.0000
47.6200 316.0000 1.0000
47.6300 347.0000 1.0000
47.6400 335.0000 1.0000
47.6500 313.0000 1.0000
47.6600 305.0000 1.0000
47.6700 318.0000 1.0000
47.6800 331.0000 1.0000
47.6900 355.0000 1.0000
47.7000 324.0000 1.0000
47.7100 347.0000 1.0000
47.7200 326.0000 1.0000
47.7300 300.0000 1.0000
47.7400 335.0000 1.0000
47.7500 329.0000 1.0000
47.7600 295.0000 1.0000
47.7700 363.0000 1.0000
47.7800 363.0000 1.0000
47.7900 355.0000 1.0000
47.8000 356.0000 1.0000
47.8100 310.0000 1.0000
47.8200 336.0000 1.0000
47.8300 324.0000 1.0000
47.8400 317.0000 1.0000
47.8500 322.0000 1.0000
47.8600 324.0000 1.0000
47.8700 326.0000 1.0000
47.8800 307.0000 1.0000
47.8900 336.0000 1.0000
47.9000 340.0000 1.0000
47.9100 337.0000 1.0000
47.9200 336.0000 1.0000
47.9300 302.0000 1.0000
47.9400 317.0000 1.0000
47.9500 304.0000 1.0000
47.9600 362.0000 1.0000
47.9700 356.0000 1.0000
47.9800 337.0000 1.0000
47.9900 327.0000 1.0000
48.0000 369.0000 1.0000
48.0100 353.0000 1.0000
48.0200 346.0000 1.0000
48.0300 324.0000 1.0000
48.0400 306.0000 1.0000
48.0500 330.0000 1.0000
48.0600 303.0000 1.0000
48.0700 359.0000 1.0000
48.0800 326.0000 1.0000
48.0900 319.0000 1.0000
48.1000 344.0000 1.0000
48.1100 295.0000 1.0000
48.1200 329.0000 1.0000
48.1300 368.0000 1.0000
48.1400 341.0000 1.0000
48.1500 347.0000 1.0000
48.1600 300.0000 1.0000
48.1700 325.0000 1.0000
48.1800 329.0000 1.0000
48.1900 341.0000 1.0000
48.2000 334.0000 1.0000
48.2100 358.0000 1.0000
48.2200 336.0000 1.0000
48.2300 362.0000 1.0000
48.2400 312.0000 1.0000
48.2500 320.0000 1.0000
48.2600 339.0000 1.0000
48.2700 338.0000 1.0000
48.2800 374.0000 1.0000
48.2900 312.0000 1.0000
48.3000 327.0000 1.0000
48.3100 325.0000 1.0000
48.3200 313.0000 1.0000
48.3300 347.0000 1.0000
48.3400 344.0000 1.0000
48.3500 323.0000 1.0000
48.3600 330.0000 1.0000
48.3700 324.0000 1.0000
48.3800 315.0000 1.0000
48.3900 318.0000 1.0000
48.4000 350.0000 1.0000
48.4100 322.0000 1.0000
48.4200 326.0000 1.0000
48.4300 342.0000 1.0000
48.4400 328.0000 1.0000
48.4500 342.0000 1.0000
48.4600 339.0000 1.0000
48.4700 297.0000 1.0000
48.4800 343.0000 1.0000
48.4900 332.0000 1.0000
48.5000 314.0000 1.0000
48.5100 291.0000 1.0000
48.5200 352.0000 1.0000
48.5300 327.0000 1.0000
48.5400 321.0000 1.0000
48.5500 335.0000 1.0000
48.5600 307.0000 1.0000
48.5700 319.0000 1.0000
48.5800 343.0000 1.0000
48.5900 326.0000 1.0000
48.6000 327.0000 1.0000
48.6100 340.0000 1.0000
48.6200 325.0000 1.0000
48.6300 340.0000 1.0000
48.6400 350.0000 1.0000
48.6500 357.0000 1.0000
48.6600 305.0000 1.0000
48.6700 327.0000 1.0000
48.6800 337.0000 1.0000
48.6900 310.0000 1.0000
48.7000 305.0000 1.0000
48.7100 318.0000 1.0000
48.7200 329.0000 1.0000
48.7300 303.0000 1.0000
48.7400 332.0000 1.0000
48.7500 335.0000 1.0000
48.7600 324.0000 1.0000
48.7700 344.0000 1.0000
48.7800 297.0000 1.0000
48.7900 322.0000 1.0000
48.8000 325.0000 1.0000
48.8100 340.0000 1.0000
48.8200 352.0000 1.0000
48.8300 324.0000 1.0000
48.8400 336.0000 1.0000
48.8500 358.0000 1.0000
48.8600 325.0000 1.0000
48.8700 324.0000 1.0000
48.8800 349.0000 1.0000
48.8900 331.0000 1.0000
48.9000 342.0000 1.0000
48.9100 322.0000 1.0000
48.9200 328.0000 1.0000
48.9300 322.0000 1.0000
48.9400 359.0000 1.0000
48.9500 338.0000 1.0000
48.9600 315.0000 1.0000
48.9700 352.0000 1.0000
48.9800 328.0000 1.0000
48.9900 322.0000 1.0000
49.0000 311.0000 1.0000
49.0100 327.0000 1.0000
49.0200 322.0000 1.0000
49.0300 317.0000 1.0000
49.0400 312.0000 1.0000
49.0500 350.0000 1.0000
49.0600 327.0000 1.0000
49.0700 320.0000 1.0000
49.0800 331.0000 1.0000
49.0900 318.0000 1.0000
49.1000 344.0000 1.0000
49.1100 329.0000 1.0000
49.1200 305.0000 1.0000
49.1300 298.0000 1.0000
49.1400 296.0000 1.0000
49.1500 348.0000 1.0000
49.1600 307.0000 1.0000
49.1700 324.0000 1.0000
49.1800 302.0000 1.0000
49.1900 313.0000 1.0000
49.2000 313.0000 1.0000
49.2100 325.0000 1.0000
49.2200 341.0000 1.0000
49.2300 332.0000 1.0000
49.2400 346.0000 1.0000
49.2500 355.0000 1.0000
49.2600 361.0000 1.0000
49.2700 312.0000 1.0000
49.2800 332.0000 1.0000
49.2900 334.0000 1.0000
49.3000 352.0000 1.0000
49.3100 370.0000 1.0000
49.3200 341.0000 1.0000
49.3300 340.0000 1.0000
49.3400 336.0000 1.0000
49.3500 310.0000 1.0000
49.3600 320.0000 1.0000
49.3700 324.0000 1.0000
49.3800 327.0000 1.0000
49.3900 320.0000 1.0000
49.4000 326.0000 1.0000
49.4100 344.0000 1.0000
49.4200 349.0000 1.0000
49.4300 335.0000 1.0000
49.4400 319.0000 1.0000
49.4500 311.0000 1.0000
49.4600 325.0000 1.0000
49.4700 310.0000 1.0000
49.4800 348.0000 1.0000
49.4900 348.0000 1.0000
49.5000 332.0000 1.0000
49.5100 349.0000 1.0000
49.5200 332.0000 1.0000
49.5300 329.0000 1.0000
49.5400 331.0000 1.0000
49.5500 316.0000 1.0000
49.5600 351.0000 1.0000
49.5700 336.0000 1.0000
49.5800 359.0000 1.0000
49.5900 349.0000 1.0000
49.6000 335.0000 1.0000
49.6100 348.0000 1.0000
49.6200 286.0000 1.0000
49.6300 327.0000 1.0000
49.6400 313.0000 1.0000
49.6500 326.0000 1.0000
49.6600 343.0000 1.0000
49.6700 336.0000 1.0000
49.6800 356.0000 1.0000
49.6900 318.0000 1.0000
49.7000 315.0000 1.0000
49.7100 317.0000 1.0000
49.7200 323.0000 1.0000
49.7300 319.0000 1.0000
49.7400 296.0000 1.0000
49.7500 311.0000 1.0000
49.7600 356.0000 1.0000
49.7700 335.0000 1.0000
49.7800 328.0000 1.0000
49.7900 318.0000 1.0000
49.8000 338.0000 1.0000
49.8100 335.0000 1.0000
49.8200 319.0000 1.0000
49.8300 313.0000 1.0000
49.8400 314.0000 1.0000
49.8500 298.0000 1.0000
49.8600 317.0000 1.0000
49.8700 328.0000 1.0000
49.8800 327.0000 1.0000
49.8900 320.0000 1.0000
49.9000 334.0000 1.0000
49.9100 323.0000 1.0000
49.9200 298.0000 1.0000
49.9300 325.0000 1.0000
49.9400 338.0000 1.0000
49.9500 329.0000 1.0000
49.9600 331.0000 1.0000
49.9700 342.0000 1.0000
49.9800 337.0000 1.0000
49.9900 340.0000 1.0000
50.0000 353.0000 1.0000
50.0100 341.0000 1.0000
50.0200 326.0000 1.0000
50.0300 331.0000 1.0000
50.0400 341.0000 1.0000
50.0500 306.0000 1.0000
50.0600 346.0000 1.0000
50.0700 316.0000 1.0000
50.0800 328.0000 1.0000
50.0900 310.0000 1.0000
50.1000 314.0000 1.0000
50.1100 318.0000 1.0000
50.1200 332.0000 1.0000
50.1300 311.0000 1.0000
50.1400 327.0000 1.0000
50.1500 318.0000 1.0000
50.1600 348.0000 1.0000
50.1700 320.0000 1.0000
50.1800 300.0000 1.0000
50.1900 332.0000 1.0000
50.2000 322.0000 1.0000
50.2100 341.0000 1.0000
50.2200 349.0000 1.0000
50.2300 336.0000 1.0000
50.2400 350.0000 1.0000
50.2500 334.0000 1.0000
50.2600 336.0000 1.0000
50.2700 353.0000 1.0000
50.2800 324.0000 1.0000
50.2900 309.0000 1.0000
50.3000 353.0000 1.0000
50.3100 315.0000 1.0000
50.3200 355.0000 1.0000
50.3300 341.0000 1.0000
50.3400 302.0000 1.0000
50.3500 302.0000 1.0000
50.3600 296.0000 1.0000
50.3700 302.0000 1.0000
50.3800 330.0000 1.0000
50.3900 300.0000 1.0000
50.4000 321.0000 1.0000
50.4100 319.0000 1.0000
50.4200 328.0000 1.0000
50.4300 346.0000 1.0000
50.4400 331.0000 1.0000
50.4500 329.0000 1.0000
50.4600 315.0000 1.0000
50.4700 339.0000 1.0000
50.4800 334.0000 1.0000
50.4900 334.0000 1.0000
50.5000 309.0000 1.0000
50.5100 347.0000 1.0000
50.5200 317.0000 1.0000
50.5300 326.0000 1.0000
50.5400 342.0000 1.0000
50.5500 325.0000 1.0000
50.5600 323.0000 1.0000
50.5700 315.0000 1.0000
50.5800 335.0000 1.0000
50.5900 320.0000 1.0000
50.6000 320.0000 1.0000
50.6100 315.0000 1.0000
50.6200 339.0000 1.0000
50.6300 310.0000 1.0000
50.6400 321.0000 1.0000
50.6500 352.0000 1.0000
50.6600 316.0000 1.0000
50.6700 328.0000 1.0000
50.6800 341.0000 1.0000
50.6900 321.0000 1.0000
50.7000 335.0000 1.0000
50.7100 308.0000 1.0000
50.7200 357.0000 1.0000
50.7300 337.0000 1.0000
50.7400 330.0000 1.0000
50.7500 334.0000 1.0000
50.7600 346.0000 1.0000
50.7700 345.0000 1.0000
50.7800 341.0000 1.0000
50.7900 352.0000 1.0000
50.8000 351.0000 1.0000
50.8100 363.0000 1.0000
50.8200 326.0000 1.0000
50.8300 326.0000 1.0000
50.8400 331.0000 1.0000
50.8500 342.0000 1.0000
50.8600 357.0000 1.0000
50.8700 343.0000 1.0000
50.8800 327.0000 1.0000
50.8900 359.0000 1.0000
50.9000 334.0000 1.0000
50.9100 333.0000 1.0000
50.9200 316.0000 1.0000
50.9300 340.0000 1.0000
50.9400 375.0000 1.0000
50.9500 352.0000 1.0000
50.9600 353.0000 1.0000
50.9700 368.0000 1.0000
50.9800 357.0000 1.0000
50.9900 348.0000 1.0000
51.0000 335.0000 1.0000
51.0100 383.0000 1.0000
51.0200 359.0000 1.0000
51.0300 352.0000 1.0000
51.0400 355.0000 1.0000
51.0500 396.0000 1.0000
51.0600 389.0000 1.0000
51.0700 372.0000 1.0000
51.0800 376.0000 1.0000
51.0900 410.0000 1.0000
51.1000 397.0000 1.0000
51.1100 436.0000 1.0000
51.1200 420.0000 1.0000
51.1300 437.0000 1.0000
51.1400 404.0000 1.0000
51.1500 429.0000 1.0000
51.1600 449.0000 1.0000
51.1700 515.0000 1.0000
51.1800 497.0000 1.0000
51.1900 510.0000 1.0000
51.2000 505.0000 1.0000
51.2100 550.0000 1.0000
51.2200 540.0000 1.0000
51.2300 548.0000 1.0000
51.2400 598.0000 1.0000
51.2500 602.0000 1.0000
51.2600 645.0000 1.0000
51.2700 684.0000 1.0000
51.2800 734.0000 1.0000
51.2900 725.0000 1.0000
51.3000 747.0000 1.0000
51.3100 875.0000 1.0000
51.3200 908.0000 1.0000
51.3300 1016.0000 1.0000
51.3400 1046.0000 1.0000
51.3500 1128.0000 1.0000
51.3600 1181.0000 1.0000
51.3700 1305.0000 1.0000
51.3800 1410.0000 1.0000
51.3900 1599.0000 1.0000
51.4000 1673.0000 1.0000
51.4100 1696.0000 1.0000
51.4200 1883.0000 1.0000
51.4300 1962.0000 1.0000
51.4400 2080.0000 1.0000
51.4500 2145.0000 1.0000
51.4600 2131.0000 1.0000
51.4700 2134.0000 1.0000
51.4800 2164.0000 1.0000
51.4900 2147.0000 1.0000
51.5000 2119.0000 1.0000
51.5100 1989.0000 1.0000
51.5200 1915.0000 1.0000
51.5300 1957.0000 1.0000
51.5400 1797.0000 1.0000
51.5500 1815.0000 1.0000
51.5600 1707.0000 1.0000
51.5700 1654.0000 1.0000
51.5800 1657.0000 1.0000
51.5900 1607.0000 1.0000
51.6000 1506.0000 1.0000
51.6100 1498.0000 1.0000
51.6200 1398.0000 1.0000
51.6300 1351.0000 1.0000
51.6400 1358.0000 1.0000
51.6500 1222.0000 1.0000
51.6600 1114.0000 1.0000
51.6700 1043.0000 1.0000
51.6800 998.0000 1.0000
51.6900 901.0000 1.0000
51.7000 831.0000 1.0000
51.7100 759.0000 1.0000
51.7200 720.0000 1.0000
51.7300 692.0000 1.0000
51.7400 628.0000 1.0000
51.7500 609.0000 1.0000
51.7600 612.0000 1.0000
51.7700 568.0000 1.0000
51.7800 540.0000 1.0000
51.7900 547.0000 1.0000
51.8000 540.0000 1.0000
51.8100 493.0000 1.0000
51.8200 530.0000 1.0000
51.8300 472.0000 1.0000
51.8400 478.0000 1.0000
51.8500 486.0000 1.0000
51.8600 456.0000 1.0000
51.8700 469.0000 1.0000
51.8800 435.0000 1.0000
51.8900 455.0000 1.0000
51.9000 440.0000 1.0000
51.9100 379.0000 1.0000
51.9200 378.0000 1.0000
51.9300 380.0000 1.0000
51.9400 386.0000 1.0000
51.9500 406.0000 1.0000
51.9600 376.0000 1.0000
51.9700 359.0000 1.0000
51.9800 369.0000 1.0000
51.9900 377.0000 1.0000
52.0000 362.0000 1.0000
52.0100 354.0000 1.0000
52.0200 346.0000 1.0000
52.0300 355.0000 1.0000
52.0400 366.0000 1.0000
52.0500 384.0000 1.0000
52.0600 366.0000 1.0000
52.0700 332.0000 1.0000
52.0800 339.0000 1.0000
52.0900 324.0000 1.0000
52.1000 358.0000 1.0000
52.1100 360.0000 1.0000
52.1200 317.0000 1.0000
52.1300 315.0000 1.0000
52.1400 346.0000 1.0000
52.1500 353.0000 1.0000
52.1600 349.0000 1.0000
52.1700 324.0000 1.0000
52.1800 369.0000 1.0000
52.1900 347.0000 1.0000
52.2000 346.0000 1.0000
52.2100 319.0000 1.0000
52.2200 350.0000 1.0000
52.2300 311.0000 1.0000
52.2400 363.0000 1.0000
52.2500 337.0000 1.0000
52.2600 364.0000 1.0000
52.2700 328.0000 1.0000
52.2800 323.0000 1.0000
52.2900 339.0000 1.0000
52.3000 322.0000 1.0000
52.3100 313.0000 1.0000
52.3200 333.0000 1.0000
52.3300 347.0000 1.0000
52.3400 329.0000 1.0000
52.3500 335.0000 1.0000
52.3600 329.0000 1.0000
52.3700 332.0000 1.0000
52.3800 336.0000 1.0000
52.3900 333.0000 1.0000
52.4000 314.0000 1.0000
52.4100 336.0000 1.0000
52.4200 361.0000 1.0000
52.4300 336.0000 1.0000
52.4400 336.0000 1.0000
52.4500 314.0000 1.0000
52.4600 326.0000 1.0000
52.4700 328.0000 1.0000
52.4800 310.0000 1.0000
52.4900 304.0000 1.0000
52.5000 349.0000 1.0000
52.5100 348.0000 1.0000
52.5200 329.0000 1.0000
52.5300 306.0000 1.0000
52.5400 317.0000 1.0000
52.5500 283.0000 1.0000
52.5600 318.0000 1.0000
52.5700 337.0000 1.0000
52.5800 323.0000 1.0000
52.5900 271.0000 1.0000
52.6000 328.0000 1.0000
52.6100 333.0000 1.0000
52.6200 334.0000 1.0000
52.6300 330.0000 1.0000
52.6400 312.0000 1.0000
52.6500 331.0000 1.0000
52.6600 322.0000 1.0000
52.6700 355.0000 1.0000
52.6800 324.0000 1.0000
52.6900 312.0000 1.0000
52.7000 325.0000 1.0000
52.7100 341.0000 1.0000
52.7200 320.0000 1.0000
52.7300 304.0000 1.0000
52.7400 293.0000 1.0000
52.7500 307.0000 1.0000
52.7600 332.0000 1.0000
52.7700 332.0000 1.0000
52.7800 342.0000 1.0000
52.7900 319.0000 1.0000
52.8000 292.0000 1.0000
52.8100 309.0000 1.0000
52.8200 349.0000 1.0000
52.8300 329.0000 1.0000
52.8400 325.0000 1.0000
52.8500 302.0000 1.0000
52.8600 316.0000 1.0000
52.8700 317.0000 1.0000
52.8800 312.0000 1.0000
52.8900 349.0000 1.0000
52.9000 316.0000 1.0000
52.9100 309.0000 1.0000
52.9200 323.0000 1.0000
52.9300 299.0000 1.0000
52.9400 312.0000 1.0000
52.9500 325.0000 1.0000
52.9600 291.0000 1.0000
52.9700 296.0000 1.0000
52.9800 289.0000 1.0000
52.9900 311.0000 1.0000
53.0000 339.0000 1.0000
53.0100 312.0000 1.0000
53.0200 313.0000 1.0000
53.0300 304.0000 1.0000
53.0400 321.0000 1.0000
53.0500 322.0000 1.0000
53.0600 314.0000 1.0000
53.0700 328.0000 1.0000
53.0800 342.0000 1.0000
53.0900 327.0000 1.0000
53.1000 315.0000 1.0000
53.1100 341.0000 1.0000
53.1200 345.0000 1.0000
53.1300 322.0000 1.0000
53.1400 309.0000 1.0000
53.1500 323.0000 1.0000
53.1600 323.0000 1.0000
53.1700 316.0000 1.0000
53.1800 349.0000 1.0000
53.1900 326.0000 1.0000
53.2000 330.0000 1.0000
53.2100 315.0000 1.0000
53.2200 302.0000 1.0000
53.2300 311.0000 1.0000
53.2400 322.0000 1.0000
53.2500 336.0000 1.0000
53.2600 314.0000 1.0000
53.2700 285.0000 1.0000
53.2800 315.0000 1.0000
53.2900 312.0000 1.0000
53.3000 305.0000 1.0000
53.3100 324.0000 1.0000
53.3200 332.0000 1.0000
53.3300 319.0000 1.0000
53.3400 298.0000 1.0000
53.3500 321.0000 1.0000
53.3600 317.0000 1.0000
53.3700 324.0000 1.0000
53.3800 312.0000 1.0000
53.3900 317.0000 1.0000
53.4000 323.0000 1.0000
53.4100 287.0000 1.0000
53.4200 301.0000 1.0000
53.4300 306.0000 1.0000
53.4400 314.0000 1.0000
53.4500 317.0000 1.0000
53.4600 325.0000 1.0000
53.4700 283.0000 1.0000
53.4800 294.0000 1.0000
53.4900 323.0000 1.0000
53.5000 319.0000 1.0000
53.5100 293.0000 1.0000
53.5200 320.0000 1.0000
53.5300 319.0000 1.0000
53.5400 291.0000 1.0000
53.5500 306.0000 1.0000
53.5600 312.0000 1.0000
53.5700 295.0000 1.0000
53.5800 315.0000 1.0000
53.5900 281.0000 1.0000
53.6000 317.0000 1.0000
53.6100 311.0000 1.0000
53.6200 312.0000 1.0000
53.6300 329.0000 1.0000
53.6400 318.0000 1.0000
53.6500 321.0000 1.0000
53.6600 310.0000 1.0000
53.6700 318.0000 1.0000
53.6800 324.0000 1.0000
53.6900 314.0000 1.0000
53.7000 333.0000 1.0000
53.7100 308.0000 1.0000
53.7200 322.0000 1.0000
53.7300 329.0000 1.0000
53.7400 311.0000 1.0000
53.7500 318.0000 1.0000
53.7600 294.0000 1.0000
53.7700 305.0000 1.0000
53.7800 305.0000 1.0000
53.7900 296.0000 1.0000
53.8000 300.0000 1.0000
53.8100 302.0000 1.0000
53.8200 299.0000 1.0000
53.8300 301.0000 1.0000
53.8400 318.0000 1.0000
53.8500 323.0000 1.0000
53.8600 320.0000 1.0000
53.8700 329.0000 1.0000
53.8800 329.0000 1.0000
53.8900 342.0000 1.0000
53.9000 324.0000 1.0000
53.9100 327.0000 1.0000
53.9200 329.0000 1.0000
53.9300 305.0000 1.0000
53.9400 340.0000 1.0000
53.9500 311.0000 1.0000
53.9600 332.0000 1.0000
53.9700 333.0000 1.0000
53.9800 329.0000 1.0000
53.9900 326.0000 1.0000
54.0000 295.0000 1.0000
54.0100 351.0000 1.0000
54.0200 334.0000 1.0000
54.0300 320.0000 1.0000
54.0400 322.0000 1.0000
54.0500 349.0000 1.0000
54.0600 337.0000 1.0000
54.0700 317.0000 1.0000
54.0800 314.0000 1.0000
54.0900 324.0000 1.0000
54.1000 356.0000 1.0000
54.1100 336.0000 1.0000
54.1200 325.0000 1.0000
54.1300 334.0000 1.0000
54.1400 347.0000 1.0000
54.1500 338.0000 1.0000
54.1600 331.0000 1.0000
54.1700 331.0000 1.0000
54.1800 345.0000 1.0000
54.1900 339.0000 1.0000
54.2000 352.0000 1.0000
54.2100 343.0000 1.0000
54.2200 330.0000 1.0000
54.2300 369.0000 1.0000
54.2400 342.0000 1.0000
54.2500 345.0000 1.0000
54.2600 352.0000 1.0000
54.2700 350.0000 1.0000
54.2800 334.0000 1.0000
54.2900 349.0000 1.0000
54.3000 373.0000 1.0000
54.3100 359.0000 1.0000
54.3200 407.0000 1.0000
54.3300 362.0000 1.0000
54.3400 398.0000 1.0000
54.3500 383.0000 1.0000
54.3600 408.0000 1.0000
54.3700 394.0000 1.0000
54.3800 392.0000 1.0000
54.3900 431.0000 1.0000
54.4000 430.0000 1.0000
54.4100 434.0000 1.0000
54.4200 406.0000 1.0000
54.4300 453.0000 1.0000
54.4400 441.0000 1.0000
54.4500 443.0000 1.0000
54.4600 465.0000 1.0000
54.4700 463.0000 1.0000
54.4800 464.0000 1.0000
54.4900 462.0000 1.0000
54.5000 465.0000 1.0000
54.5100 428.0000 1.0000
54.5200 486.0000 1.0000
54.5300 488.0000 1.0000
54.5400 475.0000 1.0000
54.5500 440.0000 1.0000
54.5600 450.0000 1.0000
54.5700 428.0000 1.0000
54.5800 442.0000 1.0000
54.5900 464.0000 1.0000
54.6000 439.0000 1.0000
54.6100 463.0000 1.0000
54.6200 447.0000 1.0000
54.6300 454.0000 1.0000
54.6400 402.0000 1.0000
54.6500 452.0000 1.0000
54.6600 390.0000 1.0000
54.6700 404.0000 1.0000
54.6800 376.0000 1.0000
54.6900 389.0000 1.0000
54.7000 361.0000 1.0000
54.7100 396.0000 1.0000
54.7200 386.0000 1.0000
54.7300 378.0000 1.0000
54.7400 371.0000 1.0000
54.7500 366.0000 1.0000
54.7600 395.0000 1.0000
54.7700 360.0000 1.0000
54.7800 366.0000 1.0000
54.7900 361.0000 1.0000
54.8000 364.0000 1.0000
54.8100 352.0000 1.0000
54.8200 366.0000 1.0000
54.8300 341.0000 1.0000
54.8400 325.0000 1.0000
54.8500 317.0000 1.0000
54.8600 352.0000 1.0000
54.8700 340.0000 1.0000
54.8800 331.0000 1.0000
54.8900 344.0000 1.0000
54.9000 344.0000 1.0000
54.9100 353.0000 1.0000
54.9200 318.0000 1.0000
54.9300 344.0000 1.0000
54.9400 318.0000 1.0000
54.9500 342.0000 1.0000
54.9600 304.0000 1.0000
54.9700 298.0000 1.0000
54.9800 282.0000 1.0000
54.9900 320.0000 1.0000
55.0000 343.0000 1.0000
55.0100 336.0000 1.0000
55.0200 316.0000 1.0000
55.0300 310.0000 1.0000
55.0400 311.0000 1.0000
55.0500 354.0000 1.0000
55.0600 326.0000 1.0000
55.0700 322.0000 1.0000
55.0800 327.0000 1.0000
55.0900 309.0000 1.0000
55.1000 317.0000 1.0000
55.1100 325.0000 1.0000
55.1200 328.0000 1.0000
55.1300 281.0000 1.0000
55.1400 330.0000 1.0000
55.1500 352.0000 1.0000
55.1600 343.0000 1.0000
55.1700 324.0000 1.0000
55.1800 292.0000 1.0000
55.1900 312.0000 1.0000
55.2000 315.0000 1.0000
55.2100 310.0000 1.0000
55.2200 299.0000 1.0000
55.2300 309.0000 1.0000
55.2400 321.0000 1.0000
55.2500 305.0000 1.0000
55.2600 295.0000 1.0000
55.2700 276.0000 1.0000
55.2800 296.0000 1.0000
55.2900 311.0000 1.0000
55.3000 330.0000 1.0000
55.3100 306.0000 1.0000
55.3200 305.0000 1.0000
55.3300 302.0000 1.0000
55.3400 296.0000 1.0000
55.3500 305.0000 1.0000
55.3600 300.0000 1.0000
55.3700 296.0000 1.0000
55.3800 295.0000 1.0000
55.3900 309.0000 1.0000
55.4000 285.0000 1.0000
55.4100 292.0000 1.0000
55.4200 298.0000 1.0000
55.4300 317.0000 1.0000
55.4400 298.0000 1.0000
55.4500 302.0000 1.0000
55.4600 315.0000 1.0000
55.4700 318.0000 1.0000
55.4800 334.0000 1.0000
55.4900 322.0000 1.0000
55.5000 288.0000 1.0000
55.5100 280.0000 1.0000
55.5200 304.0000 1.0000
55.5300 314.0000 1.0000
55.5400 283.0000 1.0000
55.5500 297.0000 1.0000
55.5600 318.0000 1.0000
55.5700 321.0000 1.0000
55.5800 317.0000 1.0000
55.5900 312.0000 1.0000
55.6000 316.0000 1.0000
55.6100 328.0000 1.0000
55.6200 318.0000 1.0000
55.6300 317.0000 1.0000
55.6400 327.0000 1.0000
55.6500 312.0000 1.0000
55.6600 280.0000 1.0000
55.6700 298.0000 1.0000
55.6800 293.0000 1.0000
55.6900 318.0000 1.0000
55.7000 304.0000 1.0000
55.7100 313.0000 1.0000
55.7200 324.0000 1.0000
55.7300 302.0000 1.0000
55.7400 325.0000 1.0000
55.7500 324.0000 1.0000
55.7600 282.0000 1.0000
55.7700 311.0000 1.0000
55.7800 279.0000 1.0000
55.7900 320.0000 1.0000
55.8000 315.0000 1.0000
55.8100 316.0000 1.0000
55.8200 314.0000 1.0000
55.8300 308.0000 1.0000
55.8400 301.0000 1.0000
55.8500 330.0000 1.0000
55.8600 325.0000 1.0000
55.8700 271.0000 1.0000
55.8800 288.0000 1.0000
55.8900 289.0000 1.0000
55.9000 326.0000 1.0000
55.9100 269.0000 1.0000
55.9200 278.0000 1.0000
55.9300 305.0000 1.0000
55.9400 297.0000 1.0000
55.9500 324.0000 1.0000
55.9600 339.0000 1.0000
55.9700 296.0000 1.0000
55.9800 318.0000 1.0000
55.9900 286.0000 1.0000
56.0000 290.0000 1.0000
56.0100 332.0000 1.0000
56.0200 305.0000 1.0000
56.0300 313.0000 1.0000
56.0400 322.0000 1.0000
56.0500 330.0000 1.0000
56.0600 299.0000 1.0000
56.0700 301.0000 1.0000
56.0800 301.0000 1.0000
56.0900 292.0000 1.0000
56.1000 268.0000 1.0000
56.1100 287.0000 1.0000
56.1200 315.0000 1.0000
56.1300 314.0000 1.0000
56.1400 319.0000 1.0000
56.1500 287.0000 1.0000
56.1600 318.0000 1.0000
56.1700 316.0000 1.0000
56.1800 313.0000 1.0000
56.1900 298.0000 1.0000
56.2000 293.0000 1.0000
56.2100 311.0000 1.0000
56.2200 290.0000 1.0000
56.2300 281.0000 1.0000
56.2400 324.0000 1.0000
56.2500 304.0000 1.0000
56.2600 297.0000 1.0000
56.2700 281.0000 1.0000
56.2800 308.0000 1.0000
56.2900 306.0000 1.0000
56.3000 318.0000 1.0000
56.3100 333.0000 1.0000
56.3200 333.0000 1.0000
56.3300 302.0000 1.0000
56.3400 302.0000 1.0000
56.3500 319.0000 1.0000
56.3600 316.0000 1.0000
56.3700 290.0000 1.0000
56.3800 312.0000 1.0000
56.3900 319.0000 1.0000
56.4000 310.0000 1.0000
56.4100 310.0000 1.0000
56.4200 315.0000 1.0000
56.4300 322.0000 1.0000
56.4400 307.0000 1.0000
56.4500 281.0000 1.0000
56.4600 279.0000 1.0000
56.4700 306.0000 1.0000
56.4800 299.0000 1.0000
56.4900 286.0000 1.0000
56.5000 322.0000 1.0000
56.5100 307.0000 1.0000
56.5200 322.0000 1.0000
56.5300 312.0000 1.0000
56.5400 296.0000 1.0000
56.5500 276.0000 1.0000
56.5600 276.0000 1.0000
56.5700 286.0000 1.0000
56.5800 283.0000 1.0000
56.5900 283.0000 1.0000
56.6000 303.0000 1.0000
56.6100 317.0000 1.0000
56.6200 314.0000 1.0000
56.6300 299.0000 1.0000
56.6400 285.0000 1.0000
56.6500 295.0000 1.0000
56.6600 282.0000 1.0000
56.6700 325.0000 1.0000
56.6800 357.0000 1.0000
56.6900 323.0000 1.0000
56.7000 298.0000 1.0000
56.7100 304.0000 1.0000
56.7200 321.0000 1.0000
56.7300 339.0000 1.0000
56.7400 329.0000 1.0000
56.7500 303.0000 1.0000
56.7600 291.0000 1.0000
56.7700 315.0000 1.0000
56.7800 318.0000 1.0000
56.7900 317.0000 1.0000
56.8000 308.0000 1.0000
56.8100 333.0000 1.0000
56.8200 309.0000 1.0000
56.8300 305.0000 1.0000
56.8400 312.0000 1.0000
56.8500 309.0000 1.0000
56.8600 295.0000 1.0000
56.8700 308.0000 1.0000
56.8800 300.0000 1.0000
56.8900 275.0000 1.0000
56.9000 320.0000 1.0000
56.9100 297.0000 1.0000
56.9200 300.0000 1.0000
56.9300 302.0000 1.0000
56.9400 312.0000 1.0000
56.9500 277.0000 1.0000
56.9600 303.0000 1.0000
56.9700 290.0000 1.0000
56.9800 331.0000 1.0000
56.9900 303.0000 1.0000
57.0000 308.0000 1.0000
57.0100 320.0000 1.0000
57.0200 311.0000 1.0000
57.0300 285.0000 1.0000
57.0400 321.0000 1.0000
57.0500 302.0000 1.0000
57.0600 308.0000 1.0000
57.0700 295.0000 1.0000
57.0800 327.0000 1.0000
57.0900 291.0000 1.0000
57.1000 307.0000 1.0000
57.1100 323.0000 1.0000
57.1200 284.0000 1.0000
57.1300 314.0000 1.0000
57.1400 289.0000 1.0000
57.1500 295.0000 1.0000
57.1600 291.0000 1.0000
57.1700 315.0000 1.0000
57.1800 297.0000 1.0000
57.1900 293.0000 1.0000
57.2000 266.0000 1.0000
57.2100 283.0000 1.0000
57.2200 308.0000 1.0000
57.2300 324.0000 1.0000
57.2400 305.0000 1.0000
57.2500 302.0000 1.0000
57.2600 308.0000 1.0000
57.2700 303.0000 1.0000
57.2800 307.0000 1.0000
57.2900 343.0000 1.0000
57.3000 312.0000 1.0000
57.3100 283.0000 1.0000
57.3200 297.0000 1.0000
57.3300 310.0000 1.0000
57.3400 327.0000 1.0000
57.3500 315.0000 1.0000
57.3600 306.0000 1.0000
57.3700 281.0000 1.0000
57.3800 290.0000 1.0000
57.3900 262.0000 1.0000
57.4000 288.0000 1.0000
57.4100 316.0000 1.0000
57.4200 288.0000 1.0000
57.4300 277.0000 1.0000
57.4400 288.0000 1.0000
57.4500 306.0000 1.0000
57.4600 288.0000 1.0000
57.4700 317.0000 1.0000
57.4800 308.0000 1.0000
57.4900 273.0000 1.0000
57.5000 302.0000 1.0000
57.5100 292.0000 1.0000
57.5200 295.0000 1.0000
57.5300 289.0000 1.0000
57.5400 301.0000 1.0000
57.5500 324.0000 1.0000
57.5600 308.0000 1.0000
57.5700 295.0000 1.0000
57.5800 296.0000 1.0000
57.5900 296.0000 1.0000
57.6000 317.0000 1.0000
57.6100 307.0000 1.0000
57.6200 307.0000 1.0000
57.6300 302.0000 1.0000
57.6400 294.0000 1.0000
57.6500 317.0000 1.0000
57.6600 294.0000 1.0000
57.6700 297.0000 1.0000
57.6800 315.0000 1.0000
57.6900 327.0000 1.0000
57.7000 291.0000 1.0000
57.7100 286.0000 1.0000
57.7200 296.0000 1.0000
57.7300 322.0000 1.0000
57.7400 315.0000 1.0000
57.7500 308.0000 1.0000
57.7600 308.0000 1.0000
57.7700 287.0000 1.0000
57.7800 284.0000 1.0000
57.7900 306.0000 1.0000
57.8000 326.0000 1.0000
57.8100 310.0000 1.0000
57.8200 301.0000 1.0000
57.8300 306.0000 1.0000
57.8400 322.0000 1.0000
57.8500 296.0000 1.0000
57.8600 284.0000 1.0000
57.8700 295.0000 1.0000
57.8800 274.0000 1.0000
57.8900 325.0000 1.0000
57.9000 307.0000 1.0000
57.9100 292.0000 1.0000
57.9200 300.0000 1.0000
57.9300 300.0000 1.0000
57.9400 291.0000 1.0000
57.9500 300.0000 1.0000
57.9600 303.0000 1.0000
57.9700 294.0000 1.0000
57.9800 271.0000 1.0000
57.9900 278.0000 1.0000
58.0000 290.0000 1.0000
58.0100 299.0000 1.0000
58.0200 312.0000 1.0000
58.0300 278.0000 1.0000
58.0400 277.0000 1.0000
58.0500 313.0000 1.0000
58.0600 298.0000 1.0000
58.0700 294.0000 1.0000
58.0800 278.0000 1.0000
58.0900 311.0000 1.0000
58.1000 273.0000 1.0000
58.1100 292.0000 1.0000
58.1200 297.0000 1.0000
58.1300 289.0000 1.0000
58.1400 286.0000 1.0000
58.1500 299.0000 1.0000
58.1600 308.0000 1.0000
58.1700 301.0000 1.0000
58.1800 314.0000 1.0000
58.1900 295.0000 1.0000
58.2000 304.0000 1.0000
58.2100 290.0000 1.0000
58.2200 303.0000 1.0000
58.2300 292.0000 1.0000
58.2400 307.0000 1.0000
58.2500 319.0000 1.0000
58.2600 279.0000 1.0000
58.2700 278.0000 1.0000
58.2800 292.0000 1.0000
58.2900 312.0000 1.0000
58.3000 309.0000 1.0000
58.3100 298.0000 1.0000
58.3200 313.0000 1.0000
58.3300 285.0000 1.0000
58.3400 290.0000 1.0000
58.3500 293.0000 1.0000
58.3600 307.0000 1.0000
58.3700 266.0000 1.0000
58.3800 280.0000 1.0000
58.3900 304.0000 1.0000
58.4000 276.0000 1.0000
58.4100 322.0000 1.0000
58.4200 298.0000 1.0000
58.4300 303.0000 1.0000
58.4400 301.0000 1.0000
58.4500 287.0000 1.0000
58.4600 311.0000 1.0000
58.4700 297.0000 1.0000
58.4800 305.0000 1.0000
58.4900 324.0000 1.0000
58.5000 300.0000 1.0000
58.5100 316.0000 1.0000
58.5200 319.0000 1.0000
58.5300 305.0000 1.0000
58.5400 286.0000 1.0000
58.5500 317.0000 1.0000
58.5600 311.0000 1.0000
58.5700 273.0000 1.0000
58.5800 312.0000 1.0000
58.5900 306.0000 1.0000
58.6000 324.0000 1.0000
58.6100 308.0000 1.0000
58.6200 303.0000 1.0000
58.6300 281.0000 1.0000
58.6400 277.0000 1.0000
58.6500 291.0000 1.0000
58.6600 298.0000 1.0000
58.6700 307.0000 1.0000
58.6800 287.0000 1.0000
58.6900 284.0000 1.0000
58.7000 329.0000 1.0000
58.7100 294.0000 1.0000
58.7200 310.0000 1.0000
58.7300 280.0000 1.0000
58.7400 316.0000 1.0000
58.7500 285.0000 1.0000
58.7600 315.0000 1.0000
58.7700 296.0000 1.0000
58.7800 332.0000 1.0000
58.7900 302.0000 1.0000
58.8000 283.0000 1.0000
58.8100 307.0000 1.0000
58.8200 312.0000 1.0000
58.8300 291.0000 1.0000
58.8400 298.0000 1.0000
58.8500 294.0000 1.0000
58.8600 283.0000 1.0000
58.8700 307.0000 1.0000
58.8800 279.0000 1.0000
58.8900 288.0000 1.0000
58.9000 277.0000 1.0000
58.9100 291.0000 1.0000
58.9200 296.0000 1.0000
58.9300 290.0000 1.0000
58.9400 298.0000 1.0000
58.9500 295.0000 1.0000
58.9600 287.0000 1.0000
58.9700 298.0000 1.0000
58.9800 317.0000 1.0000
58.9900 308.0000 1.0000
59.0000 328.0000 1.0000
59.0100 273.0000 1.0000
59.0200 309.0000 1.0000
59.0300 272.0000 1.0000
59.0400 297.0000 1.0000
59.0500 311.0000 1.0000
59.0600 276.0000 1.0000
59.0700 281.0000 1.0000
59.0800 293.0000 1.0000
59.0900 306.0000 1.0000
59.1000 299.0000 1.0000
59.1100 301.0000 1.0000
59.1200 307.0000 1.0000
59.1300 296.0000 1.0000
59.1400 289.0000 1.0000
59.1500 273.0000 1.0000
59.1600 294.0000 1.0000
59.1700 291.0000 1.0000
59.1800 300.0000 1.0000
59.1900 298.0000 1.0000
59.2000 306.0000 1.0000
59.2100 299.0000 1.0000
59.2200 307.0000 1.0000
59.2300 295.0000 1.0000
59.2400 321.0000 1.0000
59.2500 307.0000 1.0000
59.2600 295.0000 1.0000
59.2700 311.0000 1.0000
59.2800 311.0000 1.0000
59.2900 305.0000 1.0000
59.3000 300.0000 1.0000
59.3100 296.0000 1.0000
59.3200 321.0000 1.0000
59.3300 302.0000 1.0000
59.3400 292.0000 1.0000
59.3500 285.0000 1.0000
59.3600 316.0000 1.0000
59.3700 304.0000 1.0000
59.3800 299.0000 1.0000
59.3900 281.0000 1.0000
59.4000 293.0000 1.0000
59.4100 301.0000 1.0000
59.4200 296.0000 1.0000
59.4300 298.0000 1.0000
59.4400 308.0000 1.0000
59.4500 281.0000 1.0000
59.4600 304.0000 1.0000
59.4700 273.0000 1.0000
59.4800 268.0000 1.0000
59.4900 284.0000 1.0000
59.5000 297.0000 1.0000
59.5100 273.0000 1.0000
59.5200 272.0000 1.0000
59.5300 292.0000 1.0000
59.5400 318.0000 1.0000
59.5500 289.0000 1.0000
59.5600 310.0000 1.0000
59.5700 306.0000 1.0000
59.5800 316.0000 1.0000
59.5900 285.0000 1.0000
59.6000 310.0000 1.0000
59.6100 287.0000 1.0000
59.6200 304.0000 1.0000
59.6300 284.0000 1.0000
59.6400 303.0000 1.0000
59.6500 268.0000 1.0000
59.6600 271.0000 1.0000
59.6700 296.0000 1.0000
59.6800 315.0000 1.0000
59.6900 324.0000 1.0000
59.7000 301.0000 1.0000
59.7100 318.0000 1.0000
59.7200 306.0000 1.0000
59.7300 286.0000 1.0000
59.7400 283.0000 1.0000
59.7500 310.0000 1.0000
59.7600 285.0000 1.0000
59.7700 291.0000 1.0000
59.7800 306.0000 1.0000
59.7900 286.0000 1.0000
59.8000 316.0000 1.0000
59.8100 273.0000 1.0000
59.8200 278.0000 1.0000
59.8300 317.0000 1.0000
59.8400 300.0000 1.0000
59.8500 305.0000 1.0000
59.8600 295.0000 1.0000
59.8700 313.0000 1.0000
59.8800 273.0000 1.0000
59.8900 298.0000 1.0000
59.9000 316.0000 1.0000
59.9100 289.0000 1.0000
59.9200 294.0000 1.0000
59.9300 314.0000 1.0000
59.9400 259.0000 1.0000
59.9500 301.0000 1.0000
59.9600 318.0000 1.0000
59.9700 292.0000 1.0000
59.9800 304.0000 1.0000
59.9900 306.0000 1.0000
60.0000 304.0000 1.0000
60.0100 290.0000 1.0000
60.0200 321.0000 1.0000
60.0300 301.0000 1.0000
60.0400 315.0000 1.0000
60.0500 291.0000 1.0000
60.0600 287.0000 1.0000
60.0700 277.0000 1.0000
60.0800 318.0000 1.0000
60.0900 300.0000 1.0000
60.1000 310.0000 1.0000
60.1100 285.0000 1.0000
60.1200 316.0000 1.0000
60.1300 292.0000 1.0000
60.1400 286.0000 1.0000
60.1500 290.0000 1.0000
60.1600 283.0000 1.0000
60.1700 291.0000 1.0000
60.1800 299.0000 1.0000
60.1900 299.0000 1.0000
60.2000 301.0000 1.0000
60.2100 273.0000 1.0000
60.2200 271.0000 1.0000
60.2300 303.0000 1.0000
60.2400 312.0000 1.0000
60.2500 295.0000 1.0000
60.2600 291.0000 1.0000
60.2700 289.0000 1.0000
60.2800 295.0000 1.0000
60.2900 277.0000 1.0000
60.3000 291.0000 1.0000
60.3100 307.0000 1.0000
60.3200 290.0000 1.0000
60.3300 315.0000 1.0000
60.3400 293.0000 1.0000
60.3500 292.0000 1.0000
60.3600 276.0000 1.0000
60.3700 302.0000 1.0000
60.3800 297.0000 1.0000
60.3900 282.0000 1.0000
60.4000 286.0000 1.0000
60.4100 308.0000 1.0000
60.4200 288.0000 1.0000
60.4300 300.0000 1.0000
60.4400 287.0000 1.0000
60.4500 291.0000 1.0000
60.4600 276.0000 1.0000
60.4700 274.0000 1.0000
60.4800 299.0000 1.0000
60.4900 299.0000 1.0000
60.5000 324.0000 1.0000
60.5100 297.0000 1.0000
60.5200 295.0000 1.0000
60.5300 270.0000 1.0000
60.5400 293.0000 1.0000
60.5500 301.0000 1.0000
60.5600 333.0000 1.0000
60.5700 308.0000 1.0000
60.5800 293.0000 1.0000
60.5900 270.0000 1.0000
60.6000 276.0000 1.0000
60.6100 295.0000 1.0000
60.6200 306.0000 1.0000
60.6300 308.0000 1.0000
60.6400 303.0000 1.0000
60.6500 286.0000 1.0000
60.6600 296.0000 1.0000
60.6700 299.0000 1.0000
60.6800 316.0000 1.0000
60.6900 306.0000 1.0000
60.7000 299.0000 1.0000
60.7100 301.0000 1.0000
60.7200 304.0000 1.0000
60.7300 304.0000 1.0000
60.7400 292.0000 1.0000
60.7500 300.0000 1.0000
60.7600 297.0000 1.0000
60.7700 303.0000 1.0000
60.7800 307.0000 1.0000
60.7900 303.0000 1.0000
60.8000 311.0000 1.0000
60.8100 294.0000 1.0000
60.8200 316.0000 1.0000
60.8300 307.0000 1.0000
60.8400 306.0000 1.0000
60.8500 296.0000 1.0000
60.8600 330.0000 1.0000
60.8700 296.0000 1.0000
60.8800 290.0000 1.0000
60.8900 302.0000 1.0000
60.9000 329.0000 1.0000
60.9100 324.0000 1.0000
60.9200 316.0000 1.0000
60.9300 312.0000 1.0000
60.9400 298.0000 1.0000
60.9500 292.0000 1.0000
60.9600 317.0000 1.0000
60.9700 293.0000 1.0000
60.9800 321.0000 1.0000
60.9900 308.0000 1.0000
61.0000 317.0000 1.0000
61.0100 311.0000 1.0000
61.0200 263.0000 1.0000
61.0300 307.0000 1.0000
61.0400 325.0000 1.0000
61.0500 344.0000 1.0000
61.0600 330.0000 1.0000
61.0700 335.0000 1.0000
61.0800 353.0000 1.0000
61.0900 334.0000 1.0000
61.1000 353.0000 1.0000
61.1100 342.0000 1.0000
61.1200 358.0000 1.0000
61.1300 376.0000 1.0000
61.1400 335.0000 1.0000
61.1500 344.0000 1.0000
61.1600 330.0000 1.0000
61.1700 335.0000 1.0000
61.1800 352.0000 1.0000
61.1900 352.0000 1.0000
61.2000 351.0000 1.0000
61.2100 347.0000 1.0000
61.2200 347.0000 1.0000
61.2300 363.0000 1.0000
61.2400 380.0000 1.0000
61.2500 382.0000 1.0000
61.2600 387.0000 1.0000
61.2700 395.0000 1.0000
61.2800 394.0000 1.0000
61.2900 410.0000 1.0000
61.3000 417.0000 1.0000
61.3100 452.0000 1.0000
61.3200 428.0000 1.0000
61.3300 401.0000 1.0000
61.3400 474.0000 1.0000
61.3500 449.0000 1.0000
61.3600 466.0000 1.0000
61.3700 491.0000 1.0000
61.3800 486.0000 1.0000
61.3900 500.0000 1.0000
61.4000 503.0000 1.0000
61.4100 529.0000 1.0000
61.4200 551.0000 1.0000
61.4300 551.0000 1.0000
61.4400 576.0000 1.0000
61.4500 587.0000 1.0000
61.4600 592.0000 1.0000
61.4700 590.0000 1.0000
61.4800 601.0000 1.0000
61.4900 617.0000 1.0000
61.5000 611.0000 1.0000
61.5100 652.0000 1.0000
61.5200 600.0000 1.0000
61.5300 625.0000 1.0000
61.5400 595.0000 1.0000
61.5500 623.0000 1.0000
61.5600 609.0000 1.0000
61.5700 612.0000 1.0000
61.5800 611.0000 1.0000
61.5900 615.0000 1.0000
61.6000 603.0000 1.0000
61.6100 604.0000 1.0000
61.6200 579.0000 1.0000
61.6300 585.0000 1.0000
61.6400 563.0000 1.0000
61.6500 570.0000 1.0000
61.6600 554.0000 1.0000
61.6700 548.0000 1.0000
61.6800 539.0000 1.0000
61.6900 525.0000 1.0000
61.7000 577.0000 1.0000
61.7100 533.0000 1.0000
61.7200 527.0000 1.0000
61.7300 518.0000 1.0000
61.7400 523.0000 1.0000
61.7500 466.0000 1.0000
61.7600 501.0000 1.0000
61.7700 495.0000 1.0000
61.7800 458.0000 1.0000
61.7900 462.0000 1.0000
61.8000 488.0000 1.0000
61.8100 461.0000 1.0000
61.8200 412.0000 1.0000
61.8300 444.0000 1.0000
61.8400 421.0000 1.0000
61.8500 416.0000 1.0000
61.8600 406.0000 1.0000
61.8700 415.0000 1.0000
61.8800 380.0000 1.0000
61.8900 347.0000 1.0000
61.9000 372.0000 1.0000
61.9100 392.0000 1.0000
61.9200 362.0000 1.0000
61.9300 368.0000 1.0000
61.9400 379.0000 1.0000
61.9500 329.0000 1.0000
61.9600 343.0000 1.0000
61.9700 343.0000 1.0000
61.9800 333.0000 1.0000
61.9900 366.0000 1.0000
62.0000 345.0000 1.0000
62.0100 352.0000 1.0000
62.0200 336.0000 1.0000
62.0300 322.0000 1.0000
62.0400 336.0000 1.0000
62.0500 315.0000 1.0000
62.0600 312.0000 1.0000
62.0700 369.0000 1.0000
62.0800 323.0000 1.0000
62.0900 320.0000 1.0000
62.1000 364.0000 1.0000
62.1100 305.0000 1.0000
62.1200 296.0000 1.0000
62.1300 324.0000 1.0000
62.1400 314.0000 1.0000
62.1500 307.0000 1.0000
62.1600 316.0000 1.0000
62.1700 335.0000 1.0000
62.1800 304.0000 1.0000
62.1900 306.0000 1.0000
62.2000 320.0000 1.0000
62.2100 336.0000 1.0000
62.2200 309.0000 1.0000
62.2300 338.0000 1.0000
62.2400 334.0000 1.0000
62.2500 331.0000 1.0000
62.2600 366.0000 1.0000
62.2700 326.0000 1.0000
62.2800 338.0000 1.0000
62.2900 302.0000 1.0000
62.3000 303.0000 1.0000
62.3100 339.0000 1.0000
62.3200 325.0000 1.0000
62.3300 330.0000 1.0000
62.3400 324.0000 1.0000
62.3500 351.0000 1.0000
62.3600 294.0000 1.0000
62.3700 323.0000 1.0000
62.3800 302.0000 1.0000
62.3900 328.0000 1.0000
62.4000 347.0000 1.0000
62.4100 335.0000 1.0000
62.4200 296.0000 1.0000
62.4300 333.0000 1.0000
62.4400 333.0000 1.0000
62.4500 328.0000 1.0000
62.4600 320.0000 1.0000
62.4700 314.0000 1.0000
62.4800 308.0000 1.0000
62.4900 308.0000 1.0000
62.5000 290.0000 1.0000
62.5100 291.0000 1.0000
62.5200 316.0000 1.0000
62.5300 319.0000 1.0000
62.5400 313.0000 1.0000
62.5500 293.0000 1.0000
62.5600 322.0000 1.0000
62.5700 346.0000 1.0000
62.5800 311.0000 1.0000
62.5900 317.0000 1.0000
62.6000 317.0000 1.0000
62.6100 326.0000 1.0000
62.6200 330.0000 1.0000
62.6300 331.0000 1.0000
62.6400 311.0000 1.0000
62.6500 320.0000 1.0000
62.6600 326.0000 1.0000
62.6700 333.0000 1.0000
62.6800 308.0000 1.0000
62.6900 341.0000 1.0000
62.7000 319.0000 1.0000
62.7100 341.0000 1.0000
62.7200 332.0000 1.0000
62.7300 332.0000 1.0000
62.7400 322.0000 1.0000
62.7500 338.0000 1.0000
62.7600 351.0000 1.0000
62.7700 318.0000 1.0000
62.7800 310.0000 1.0000
62.7900 323.0000 1.0000
62.8000 334.0000 1.0000
62.8100 328.0000 1.0000
62.8200 356.0000 1.0000
62.8300 309.0000 1.0000
62.8400 340.0000 1.0000
62.8500 332.0000 1.0000
62.8600 310.0000 1.0000
62.8700 331.0000 1.0000
62.8800 316.0000 1.0000
62.8900 298.0000 1.0000
62.9000 346.0000 1.0000
62.9100 333.0000 1.0000
62.9200 317.0000 1.0000
62.9300 303.0000 1.0000
62.9400 318.0000 1.0000
62.9500 313.0000 1.0000
62.9600 332.0000 1.0000
62.9700 311.0000 1.0000
62.9800 325.0000 1.0000
62.9900 327.0000 1.0000
63.0000 337.0000 1.0000
63.0100 334.0000 1.0000
63.0200 312.0000 1.0000
63.0300 306.0000 1.0000
63.0400 325.0000 1.0000
63.0500 323.0000 1.0000
63.0600 309.0000 1.0000
63.0700 300.0000 1.0000
63.0800 312.0000 1.0000
63.0900 315.0000 1.0000
63.1000 344.0000 1.0000
63.1100 345.0000 1.0000
63.1200 320.0000 1.0000
63.1300 334.0000 1.0000
63.1400 314.0000 1.0000
63.1500 365.0000 1.0000
63.1600 341.0000 1.0000
63.1700 337.0000 1.0000
63.1800 338.0000 1.0000
63.1900 313.0000 1.0000
63.2000 305.0000 1.0000
63.2100 304.0000 1.0000
63.2200 317.0000 1.0000
63.2300 315.0000 1.0000
63.2400 331.0000 1.0000
63.2500 306.0000 1.0000
63.2600 302.0000 1.0000
63.2700 301.0000 1.0000
63.2800 303.0000 1.0000
63.2900 298.0000 1.0000
63.3000 328.0000 1.0000
63.3100 311.0000 1.0000
63.3200 305.0000 1.0000
63.3300 318.0000 1.0000
63.3400 327.0000 1.0000
63.3500 301.0000 1.0000
63.3600 299.0000 1.0000
63.3700 338.0000 1.0000
63.3800 337.0000 1.0000
63.3900 294.0000 1.0000
63.4000 291.0000 1.0000
63.4100 306.0000 1.0000
63.4200 309.0000 1.0000
63.4300 328.0000 1.0000
63.4400 324.0000 1.0000
63.4500 320.0000 1.0000
63.4600 353.0000 1.0000
63.4700 330.0000 1.0000
63.4800 316.0000 1.0000
63.4900 309.0000 1.0000
63.5000 301.0000 1.0000
63.5100 336.0000 1.0000
63.5200 317.0000 1.0000
63.5300 354.0000 1.0000
63.5400 338.0000 1.0000
63.5500 348.0000 1.0000
63.5600 329.0000 1.0000
63.5700 336.0000 1.0000
63.5800 322.0000 1.0000
63.5900 309.0000 1.0000
63.6000 352.0000 1.0000
63.6100 342.0000 1.0000
63.6200 325.0000 1.0000
63.6300 329.0000 1.0000
63.6400 330.0000 1.0000
63.6500 337.0000 1.0000
63.6600 318.0000 1.0000
63.6700 316.0000 1.0000
63.6800 338.0000 1.0000
63.6900 319.0000 1.0000
63.7000 336.0000 1.0000
63.7100 316.0000 1.0000
63.7200 325.0000 1.0000
63.7300 345.0000 1.0000
63.7400 350.0000 1.0000
63.7500 345.0000 1.0000
63.7600 359.0000 1.0000
63.7700 327.0000 1.0000
63.7800 307.0000 1.0000
63.7900 325.0000 1.0000
63.8000 326.0000 1.0000
63.8100 364.0000 1.0000
63.8200 359.0000 1.0000
63.8300 310.0000 1.0000
63.8400 338.0000 1.0000
63.8500 351.0000 1.0000
63.8600 352.0000 1.0000
63.8700 327.0000 1.0000
63.8800 369.0000 1.0000
63.8900 349.0000 1.0000
63.9000 357.0000 1.0000
63.9100 361.0000 1.0000
63.9200 343.0000 1.0000
63.9300 338.0000 1.0000
63.9400 330.0000 1.0000
63.9500 333.0000 1.0000
63.9600 328.0000 1.0000
63.9700 369.0000 1.0000
63.9800 361.0000 1.0000
63.9900 342.0000 1.0000
64.0000 376.0000 1.0000
64.0100 343.0000 1.0000
64.0200 338.0000 1.0000
64.0300 354.0000 1.0000
64.0400 332.0000 1.0000
64.0500 326.0000 1.0000
64.0600 361.0000 1.0000
64.0700 339.0000 1.0000
64.0800 335.0000 1.0000
64.0900 311.0000 1.0000
64.1000 310.0000 1.0000
64.1100 312.0000 1.0000
64.1200 313.0000 1.0000
64.1300 297.0000 1.0000
64.1400 328.0000 1.0000
64.1500 324.0000 1.0000
64.1600 343.0000 1.0000
64.1700 343.0000 1.0000
64.1800 346.0000 1.0000
64.1900 347.0000 1.0000
64.2000 334.0000 1.0000
64.2100 309.0000 1.0000
64.2200 330.0000 1.0000
64.2300 298.0000 1.0000
64.2400 338.0000 1.0000
64.2500 344.0000 1.0000
64.2600 361.0000 1.0000
64.2700 337.0000 1.0000
64.2800 326.0000 1.0000
64.2900 303.0000 1.0000
64.3000 316.0000 1.0000
64.3100 320.0000 1.0000
64.3200 324.0000 1.0000
64.3300 328.0000 1.0000
64.3400 313.0000 1.0000
64.3500 339.0000 1.0000
64.3600 319.0000 1.0000
64.3700 310.0000 1.0000
64.3800 318.0000 1.0000
64.3900 310.0000 1.0000
64.4000 350.0000 1.0000
64.4100 314.0000 1.0000
64.4200 311.0000 1.0000
64.4300 320.0000 1.0000
64.4400 305.0000 1.0000
64.4500 319.0000 1.0000
64.4600 311.0000 1.0000
64.4700 309.0000 1.0000
64.4800 292.0000 1.0000
64.4900 301.0000 1.0000
64.5000 340.0000 1.0000
64.5100 323.0000 1.0000
64.5200 347.0000 1.0000
64.5300 326.0000 1.0000
64.5400 302.0000 1.0000
64.5500 283.0000 1.0000
64.5600 321.0000 1.0000
64.5700 302.0000 1.0000
64.5800 310.0000 1.0000
64.5900 320.0000 1.0000
64.6000 295.0000 1.0000
64.6100 311.0000 1.0000
64.6200 300.0000 1.0000
64.6300 297.0000 1.0000
64.6400 296.0000 1.0000
64.6500 298.0000 1.0000
64.6600 325.0000 1.0000
64.6700 313.0000 1.0000
64.6800 311.0000 1.0000
64.6900 318.0000 1.0000
64.7000 322.0000 1.0000
64.7100 332.0000 1.0000
64.7200 330.0000 1.0000
64.7300 322.0000 1.0000
64.7400 316.0000 1.0000
64.7500 323.0000 1.0000
64.7600 308.0000 1.0000
64.7700 314.0000 1.0000
64.7800 316.0000 1.0000
64.7900 287.0000 1.0000
64.8000 336.0000 1.0000
64.8100 317.0000 1.0000
64.8200 335.0000 1.0000
64.8300 333.0000 1.0000
64.8400 323.0000 1.0000
64.8500 316.0000 1.0000
64.8600 281.0000 1.0000
64.8700 303.0000 1.0000
64.8800 315.0000 1.0000
64.8900 287.0000 1.0000
64.9000 337.0000 1.0000
64.9100 302.0000 1.0000
64.9200 308.0000 1.0000
64.9300 312.0000 1.0000
64.9400 330.0000 1.0000
64.9500 300.0000 1.0000
64.9600 312.0000 1.0000
64.9700 338.0000 1.0000
64.9800 306.0000 1.0000
64.9900 300.0000 1.0000
65.0000 340.0000 1.0000
65.0100 336.0000 1.0000
65.0200 314.0000 1.0000
65.0300 316.0000 1.0000
65.0400 328.0000 1.0000
65.0500 352.0000 1.0000
65.0600 330.0000 1.0000
65.0700 315.0000 1.0000
65.0800 358.0000 1.0000
65.0900 328.0000 1.0000
65.1000 350.0000 1.0000
65.1100 363.0000 1.0000
65.1200 361.0000 1.0000
65.1300 335.0000 1.0000
65.1400 349.0000 1.0000
65.1500 342.0000 1.0000
65.1600 360.0000 1.0000
65.1700 367.0000 1.0000
65.1800 367.0000 1.0000
65.1900 361.0000 1.0000
65.2000 381.0000 1.0000
65.2100 380.0000 1.0000
65.2200 409.0000 1.0000
65.2300 429.0000 1.0000
65.2400 397.0000 1.0000
65.2500 424.0000 1.0000
65.2600 447.0000 1.0000
65.2700 421.0000 1.0000
65.2800 458.0000 1.0000
65.2900 486.0000 1.0000
65.3000 532.0000 1.0000
65.3100 524.0000 1.0000
65.3200 506.0000 1.0000
65.3300 520.0000 1.0000
65.3400 537.0000 1.0000
65.3500 551.0000 1.0000
65.3600 612.0000 1.0000
65.3700 671.0000 1.0000
65.3800 644.0000 1.0000
65.3900 675.0000 1.0000
65.4000 709.0000 1.0000
65.4100 765.0000 1.0000
65.4200 790.0000 1.0000
65.4300 841.0000 1.0000
65.4400 830.0000 1.0000
65.4500 894.0000 1.0000
65.4600 916.0000 1.0000
65.4700 933.0000 1.0000
65.4800 918.0000 1.0000
65.4900 982.0000 1.0000
65.5000 1031.0000 1.0000
65.5100 1000.0000 1.0000
65.5200 1009.0000 1.0000
65.5300 1067.0000 1.0000
65.5400 1059.0000 1.0000
65.5500 1102.0000 1.0000
65.5600 1045.0000 1.0000
65.5700 1070.0000 1.0000
65.5800 1020.0000 1.0000
65.5900 1060.0000 1.0000
65.6000 1027.0000 1.0000
65.6100 1020.0000 1.0000
65.6200 961.0000 1.0000
65.6300 935.0000 1.0000
65.6400 872.0000 1.0000
65.6500 872.0000 1.0000
65.6600 840.0000 1.0000
65.6700 879.0000 1.0000
65.6800 843.0000 1.0000
65.6900 844.0000 1.0000
65.7000 820.0000 1.0000
65.7100 822.0000 1.0000
65.7200 812.0000 1.0000
65.7300 778.0000 1.0000
65.7400 765.0000 1.0000
65.7500 732.0000 1.0000
65.7600 702.0000 1.0000
65.7700 655.0000 1.0000
65.7800 642.0000 1.0000
65.7900 639.0000 1.0000
65.8000 618.0000 1.0000
65.8100 598.0000 1.0000
65.8200 532.0000 1.0000
65.8300 558.0000 1.0000
65.8400 498.0000 1.0000
65.8500 490.0000 1.0000
65.8600 500.0000 1.0000
65.8700 468.0000 1.0000
65.8800 479.0000 1.0000
65.8900 431.0000 1.0000
65.9000 431.0000 1.0000
65.9100 416.0000 1.0000
65.9200 420.0000 1.0000
65.9300 404.0000 1.0000
65.9400 385.0000 1.0000
65.9500 400.0000 1.0000
65.9600 364.0000 1.0000
65.9700 332.0000 1.0000
65.9800 371.0000 1.0000
65.9900 365.0000 1.0000
66.0000 333.0000 1.0000
66.0100 356.0000 1.0000
66.0200 351.0000 1.0000
66.0300 332.0000 1.0000
66.0400 343.0000 1.0000
66.0500 334.0000 1.0000
66.0600 347.0000 1.0000
66.0700 327.0000 1.0000
66.0800 328.0000 1.0000
66.0900 313.0000 1.0000
66.1000 321.0000 1.0000
66.1100 308.0000 1.0000
66.1200 337.0000 1.0000
66.1300 304.0000 1.0000
66.1400 327.0000 1.0000
66.1500 331.0000 1.0000
66.1600 326.0000 1.0000
66.1700 310.0000 1.0000
66.1800 281.0000 1.0000
66.1900 280.0000 1.0000
66.2000 324.0000 1.0000
66.2100 310.0000 1.0000
66.2200 299.0000 1.0000
66.2300 317.0000 1.0000
66.2400 257.0000 1.0000
66.2500 263.0000 1.0000
66.2600 271.0000 1.0000
66.2700 291.0000 1.0000
66.2800 285.0000 1.0000
66.2900 276.0000 1.0000
66.3000 303.0000 1.0000
66.3100 307.0000 1.0000
66.3200 310.0000 1.0000
66.3300 291.0000 1.0000
66.3400 271.0000 1.0000
66.3500 276.0000 1.0000
66.3600 272.0000 1.0000
66.3700 278.0000 1.0000
66.3800 293.0000 1.0000
66.3900 294.0000 1.0000
66.4000 294.0000 1.0000
66.4100 292.0000 1.0000
66.4200 257.0000 1.0000
66.4300 276.0000 1.0000
66.4400 312.0000 1.0000
66.4500 277.0000 1.0000
66.4600 304.0000 1.0000
66.4700 300.0000 1.0000
66.4800 265.0000 1.0000
66.4900 278.0000 1.0000
66.5000 266.0000 1.0000
66.5100 284.0000 1.0000
66.5200 276.0000 1.0000
66.5300 261.0000 1.0000
66.5400 279.0000 1.0000
66.5500 297.0000 1.0000
66.5600 312.0000 1.0000
66.5700 281.0000 1.0000
66.5800 288.0000 1.0000
66.5900 289.0000 1.0000
66.6000 296.0000 1.0000
66.6100 297.0000 1.0000
66.6200 273.0000 1.0000
66.6300 269.0000 1.0000
66.6400 292.0000 1.0000
66.6500 332.0000 1.0000
66.6600 307.0000 1.0000
66.6700 280.0000 1.0000
66.6800 310.0000 1.0000
66.6900 279.0000 1.0000
66.7000 312.0000 1.0000
66.7100 302.0000 1.0000
66.7200 238.0000 1.0000
66.7300 269.0000 1.0000
66.7400 269.0000 1.0000
66.7500 271.0000 1.0000
66.7600 286.0000 1.0000
66.7700 310.0000 1.0000
66.7800 288.0000 1.0000
66.7900 293.0000 1.0000
66.8000 283.0000 1.0000
66.8100 265.0000 1.0000
66.8200 289.0000 1.0000
66.8300 280.0000 1.0000
66.8400 257.0000 1.0000
66.8500 277.0000 1.0000
66.8600 272.0000 1.0000
66.8700 271.0000 1.0000
66.8800 275.0000 1.0000
66.8900 284.0000 1.0000
66.9000 281.0000 1.0000
66.9100 268.0000 1.0000
66.9200 268.0000 1.0000
66.9300 270.0000 1.0000
66.9400 279.0000 1.0000
66.9500 281.0000 1.0000
66.9600 285.0000 1.0000
66.9700 288.0000 1.0000
66.9800 291.0000 1.0000
66.9900 272.0000 1.0000
67.0000 257.0000 1.0000
67.0100 250.0000 1.0000
67.0200 264.0000 1.0000
67.0300 304.0000 1.0000
67.0400 291.0000 1.0000
67.0500 249.0000 1.0000
67.0600 274.0000 1.0000
67.0700 266.0000 1.0000
67.0800 279.0000 1.0000
67.0900 279.0000 1.0000
67.1000 275.0000 1.0000
67.1100 271.0000 1.0000
67.1200 301.0000 1.0000
67.1300 263.0000 1.0000
67.1400 252.0000 1.0000
67.1500 247.0000 1.0000
67.1600 259.0000 1.0000
67.1700 259.0000 1.0000
67.1800 273.0000 1.0000
67.1900 290.0000 1.0000
67.2000 269.0000 1.0000
67.2100 271.0000 1.0000
67.2200 300.0000 1.0000
67.2300 269.0000 1.0000
67.2400 287.0000 1.0000
67.2500 265.0000 1.0000
67.2600 263.0000 1.0000
67.2700 284.0000 1.0000
67.2800 269.0000 1.0000
67.2900 257.0000 1.0000
67.3000 275.0000 1.0000
67.3100 284.0000 1.0000
67.3200 310.0000 1.0000
67.3300 280.0000 1.0000
67.3400 251.0000 1.0000
67.3500 281.0000 1.0000
67.3600 282.0000 1.0000
67.3700 241.0000 1.0000
67.3800 273.0000 1.0000
67.3900 255.0000 1.0000
67.4000 264.0000 1.0000
67.4100 272.0000 1.0000
67.4200 272.0000 1.0000
67.4300 267.0000 1.0000
67.4400 280.0000 1.0000
67.4500 244.0000 1.0000
67.4600 234.0000 1.0000
67.4700 276.0000 1.0000
67.4800 300.0000 1.0000
67.4900 262.0000 1.0000
67.5000 268.0000 1.0000
67.5100 254.0000 1.0000
67.5200 284.0000 1.0000
67.5300 282.0000 1.0000
67.5400 267.0000 1.0000
67.5500 286.0000 1.0000
67.5600 283.0000 1.0000
67.5700 272.0000 1.0000
67.5800 262.0000 1.0000
67.5900 266.0000 1.0000
67.6000 285.0000 1.0000
67.6100 269.0000 1.0000
67.6200 257.0000 1.0000
67.6300 297.0000 1.0000
67.6400 270.0000 1.0000
67.6500 263.0000 1.0000
67.6600 289.0000 1.0000
67.6700 273.0000 1.0000
67.6800 263.0000 1.0000
67.6900 260.0000 1.0000
67.7000 277.0000 1.0000
67.7100 283.0000 1.0000
67.7200 275.0000 1.0000
67.7300 271.0000 1.0000
67.7400 272.0000 1.0000
67.7500 294.0000 1.0000
67.7600 290.0000 1.0000
67.7700 274.0000 1.0000
67.7800 273.0000 1.0000
67.7900 253.0000 1.0000
67.8000 273.0000 1.0000
67.8100 251.0000 1.0000
67.8200 262.0000 1.0000
67.8300 258.0000 1.0000
67.8400 262.0000 1.0000
67.8500 269.0000 1.0000
67.8600 265.0000 1.0000
67.8700 278.0000 1.0000
67.8800 286.0000 1.0000
67.8900 253.0000 1.0000
67.9000 262.0000 1.0000
67.9100 261.0000 1.0000
67.9200 247.0000 1.0000
67.9300 283.0000 1.0000
67.9400 298.0000 1.0000
67.9500 265.0000 1.0000
67.9600 256.0000 1.0000
67.9700 229.0000 1.0000
67.9800 265.0000 1.0000
67.9900 286.0000 1.0000
68.0000 264.0000 1.0000
68.0100 258.0000 1.0000
68.0200 275.0000 1.0000
68.0300 247.0000 1.0000
68.0400 245.0000 1.0000
68.0500 250.0000 1.0000
68.0600 259.0000 1.0000
68.0700 248.0000 1.0000
68.0800 262.0000 1.0000
68.0900 239.0000 1.0000
68.1000 272.0000 1.0000
68.1100 259.0000 1.0000
68.1200 235.0000 1.0000
68.1300 246.0000 1.0000
68.1400 242.0000 1.0000
68.1500 258.0000 1.0000
68.1600 248.0000 1.0000
68.1700 240.0000 1.0000
68.1800 289.0000 1.0000
68.1900 263.0000 1.0000
68.2000 274.0000 1.0000
68.2100 280.0000 1.0000
68.2200 250.0000 1.0000
68.2300 265.0000 1.0000
68.2400 259.0000 1.0000
68.2500 259.0000 1.0000
68.2600 278.0000 1.0000
68.2700 284.0000 1.0000
68.2800 268.0000 1.0000
68.2900 284.0000 1.0000
68.3000 251.0000 1.0000
68.3100 278.0000 1.0000
68.3200 262.0000 1.0000
68.3300 266.0000 1.0000
68.3400 248.0000 1.0000
68.3500 257.0000 1.0000
68.3600 275.0000 1.0000
68.3700 255.0000 1.0000
68.3800 259.0000 1.0000
68.3900 262.0000 1.0000
68.4000 266.0000 1.0000
68.4100 256.0000 1.0000
68.4200 261.0000 1.0000
68.4300 287.0000 1.0000
68.4400 295.0000 1.0000
68.4500 253.0000 1.0000
68.4600 251.0000 1.0000
68.4700 289.0000 1.0000
68.4800 258.0000 1.0000
68.4900 269.0000 1.0000
68.5000 251.0000 1.0000
68.5100 245.0000 1.0000
68.5200 270.0000 1.0000
68.5300 258.0000 1.0000
68.5400 249.0000 1.0000
68.5500 271.0000 1.0000
68.5600 267.0000 1.0000
68.5700 249.0000 1.0000
68.5800 249.0000 1.0000
68.5900 271.0000 1.0000
68.6000 244.0000 1.0000
68.6100 251.0000 1.0000
68.6200 255.0000 1.0000
68.6300 229.0000 1.0000
68.6400 252.0000 1.0000
68.6500 237.0000 1.0000
68.6600 243.0000 1.0000
68.6700 281.0000 1.0000
68.6800 261.0000 1.0000
68.6900 261.0000 1.0000
68.7000 279.0000 1.0000
68.7100 259.0000 1.0000
68.7200 258.0000 1.0000
68.7300 289.0000 1.0000
68.7400 299.0000 1.0000
68.7500 303.0000 1.0000
68.7600 276.0000 1.0000
68.7700 268.0000 1.0000
68.7800 264.0000 1.0000
68.7900 289.0000 1.0000
68.8000 264.0000 1.0000
68.8100 266.0000 1.0000
68.8200 285.0000 1.0000
68.8300 288.0000 1.0000
68.8400 277.0000 1.0000
68.8500 260.0000 1.0000
68.8600 252.0000 1.0000
68.8700 267.0000 1.0000
68.8800 272.0000 1.0000
68.8900 263.0000 1.0000
68.9000 265.0000 1.0000
68.9100 298.0000 1.0000
68.9200 259.0000 1.0000
68.9300 259.0000 1.0000
68.9400 271.0000 1.0000
68.9500 259.0000 1.0000
68.9600 257.0000 1.0000
68.9700 256.0000 1.0000
68.9800 270.0000 1.0000
68.9900 263.0000 1.0000
69.0000 274.0000 1.0000
69.0100 258.0000 1.0000
69.0200 239.0000 1.0000
69.0300 277.0000 1.0000
69.0400 254.0000 1.0000
69.0500 244.0000 1.0000
69.0600 233.0000 1.0000
69.0700 232.0000 1.0000
69.0800 271.0000 1.0000
69.0900 299.0000 1.0000
69.1000 244.0000 1.0000
69.1100 270.0000 1.0000
69.1200 248.0000 1.0000
69.1300 252.0000 1.0000
69.1400 270.0000 1.0000
69.1500 245.0000 1.0000
69.1600 245.0000 1.0000
69.1700 264.0000 1.0000
69.1800 273.0000 1.0000
69.1900 268.0000 1.0000
69.2000 235.0000 1.0000
69.2100 265.0000 1.0000
69.2200 266.0000 1.0000
69.2300 283.0000 1.0000
69.2400 244.0000 1.0000
69.2500 265.0000 1.0000
69.2600 279.0000 1.0000
69.2700 259.0000 1.0000
69.2800 248.0000 1.0000
69.2900 253.0000 1.0000
69.3000 245.0000 1.0000
69.3100 286.0000 1.0000
69.3200 259.0000 1.0000
69.3300 261.0000 1.0000
69.3400 245.0000 1.0000
69.3500 249.0000 1.0000
69.3600 272.0000 1.0000
69.3700 269.0000 1.0000
69.3800 255.0000 1.0000
69.3900 238.0000 1.0000
69.4000 247.0000 1.0000
69.4100 253.0000 1.0000
69.4200 248.0000 1.0000
69.4300 249.0000 1.0000
69.4400 257.0000 1.0000
69.4500 261.0000 1.0000
69.4600 266.0000 1.0000
69.4700 278.0000 1.0000
69.4800 258.0000 1.0000
69.4900 249.0000 1.0000
69.5000 264.0000 1.0000
69.5100 251.0000 1.0000
69.5200 273.0000 1.0000
69.5300 253.0000 1.0000
69.5400 263.0000 1.0000
69.5500 268.0000 1.0000
69.5600 239.0000 1.0000
69.5700 269.0000 1.0000
69.5800 242.0000 1.0000
69.5900 248.0000 1.0000
69.6000 240.0000 1.0000
69.6100 252.0000 1.0000
69.6200 283.0000 1.0000
69.6300 270.0000 1.0000
69.6400 255.0000 1.0000
69.6500 243.0000 1.0000
69.6600 245.0000 1.0000
69.6700 283.0000 1.0000
69.6800 268.0000 1.0000
69.6900 271.0000 1.0000
69.7000 246.0000 1.0000
69.7100 266.0000 1.0000
69.7200 275.0000 1.0000
69.7300 263.0000 1.0000
69.7400 273.0000 1.0000
69.7500 236.0000 1.0000
69.7600 261.0000 1.0000
69.7700 238.0000 1.0000
69.7800 257.0000 1.0000
69.7900 256.0000 1.0000
69.8000 266.0000 1.0000
69.8100 267.0000 1.0000
69.8200 243.0000 1.0000
69.8300 261.0000 1.0000
69.8400 238.0000 1.0000
69.8500 248.0000 1.0000
69.8600 264.0000 1.0000
69.8700 259.0000 1.0000
69.8800 262.0000 1.0000
69.8900 267.0000 1.0000
69.9000 261.0000 1.0000
69.9100 263.0000 1.0000
69.9200 252.0000 1.0000
69.9300 253.0000 1.0000
69.9400 259.0000 1.0000
69.9500 279.0000 1.0000
69.9600 235.0000 1.0000
69.9700 267.0000 1.0000
69.9800 245.0000 1.0000
69.9900 244.0000 1.0000
70.0000 246.0000 1.0000
*RAS_INT_END
*RAS_TEMPERATURE_START
*RAS_TEMPERATURE_END
*RAS_DATA_END
