Date	2021年06月15日火曜日 12時11分29秒
Spectrometers	USB2+H05879
ダーク	使用
リファレンス	使用
積分時間[msec]	10
平均回数	280
ｽﾑｰｼﾞﾝｸﾞ	10
Electrical Dark	USE
ピクセル数	2048
計測モード	吸光度
保存開始波長[nm]	190.664
保存終了波長[nm]	884.878
保存ﾋﾟｯﾁ波長[nm]	全波長

>>>>>>>>>> Data Start <<<<<<<<<<<<
190.664	0.000000
191.040	0.000000
191.415	0.000000
191.791	-2.404335
192.166	-0.450904
192.542	-0.830179
192.917	0.000000
193.293	-0.568379
193.668	-0.557461
194.044	-1.011392
194.419	0.000000
194.794	-1.312572
195.170	-1.232035
195.545	-1.149198
195.920	-1.014014
196.296	-0.900876
196.671	-0.729979
197.046	-0.576128
197.421	-0.502938
197.796	-0.490447
198.171	-0.453562
198.546	-0.400577
198.922	-0.340213
199.297	-0.311107
199.672	-0.287153
200.047	-0.265544
200.422	-0.238421
200.796	-0.225487
201.171	-0.207486
201.546	-0.203632
201.921	-0.190947
202.296	-0.189993
202.671	-0.167402
203.045	-0.144696
203.420	-0.129680
203.795	-0.122026
204.170	-0.114617
204.544	-0.114025
204.919	-0.117189
205.294	-0.126245
205.668	-0.112781
206.043	-0.098860
206.417	-0.107917
206.792	-0.110312
207.166	-0.111743
207.541	-0.103638
207.915	-0.104448
208.289	-0.083027
208.664	-0.082703
209.038	-0.081793
209.412	-0.066293
209.787	-0.051773
210.161	-0.036979
210.535	-0.043267
210.909	-0.035699
211.284	-0.034367
211.658	-0.031973
212.032	-0.025598
212.406	-0.036334
212.780	-0.030851
213.154	-0.029443
213.528	-0.026244
213.902	-0.022124
214.276	-0.015756
214.650	-0.013942
215.024	-0.017629
215.398	-0.018895
215.772	-0.014420
216.145	-0.016555
216.519	-0.008635
216.893	-0.008976
217.267	-0.012202
217.640	-0.019140
218.014	-0.000828
218.388	0.008499
218.761	0.006278
219.135	0.021320
219.508	0.012128
219.882	0.001985
220.256	0.008730
220.629	0.012901
221.003	0.011814
221.376	0.007606
221.749	-0.002142
222.123	-0.000475
222.496	-0.003527
222.869	0.007634
223.243	0.012956
223.616	0.015097
223.989	0.009310
224.362	0.010828
224.736	0.014137
225.109	0.011348
225.482	0.016622
225.855	0.007710
226.228	0.000164
226.601	-0.002819
226.974	0.001174
227.347	0.014716
227.720	0.014632
228.093	0.011900
228.466	0.008475
228.839	0.007070
229.212	0.001049
229.585	-0.001036
229.957	0.009130
230.330	0.009401
230.703	0.018006
231.076	0.013386
231.448	0.012994
231.821	0.013279
232.194	0.021397
232.566	0.020027
232.939	0.013493
233.311	0.005350
233.684	0.005262
234.056	0.013656
234.429	0.022361
234.801	0.010861
235.174	0.011019
235.546	0.014128
235.918	0.013621
236.291	0.013241
236.663	0.022812
237.035	0.037264
237.408	0.046132
237.780	0.041349
238.152	0.043280
238.524	0.033888
238.896	0.039357
239.268	0.035247
239.641	0.027638
240.013	0.028470
240.385	0.035172
240.757	0.043230
241.129	0.048853
241.500	0.050632
241.872	0.049525
242.244	0.052162
242.616	0.057022
242.988	0.062140
243.360	0.065992
243.731	0.075123
244.103	0.072709
244.475	0.069096
244.847	0.064503
245.218	0.066008
245.590	0.067598
245.961	0.067964
246.333	0.062081
246.705	0.068907
247.076	0.070864
247.448	0.082039
247.819	0.077003
248.190	0.076157
248.562	0.068744
248.933	0.072975
249.305	0.069886
249.676	0.073967
250.047	0.068872
250.418	0.071685
250.790	0.070063
251.161	0.074501
251.532	0.072354
251.903	0.074985
252.274	0.081564
252.645	0.082361
253.016	0.076658
253.387	0.068759
253.758	0.075401
254.129	0.081231
254.500	0.075913
254.871	0.072321
255.242	0.072006
255.613	0.071457
255.984	0.063516
256.355	0.076118
256.725	0.081454
257.096	0.087193
257.467	0.085656
257.838	0.084282
258.208	0.072988
258.579	0.070825
258.949	0.060621
259.320	0.057947
259.690	0.061492
260.061	0.062005
260.431	0.067708
260.802	0.068308
261.172	0.072304
261.543	0.067307
261.913	0.068371
262.283	0.062418
262.654	0.056680
263.024	0.049683
263.394	0.045429
263.764	0.052334
264.135	0.049460
264.505	0.038283
264.875	0.039136
265.245	0.040616
265.615	0.042615
265.985	0.049568
266.355	0.050012
266.725	0.058645
267.095	0.059483
267.465	0.058399
267.835	0.051561
268.205	0.046658
268.575	0.054370
268.944	0.059300
269.314	0.058813
269.684	0.065091
270.054	0.064889
270.423	0.081260
270.793	0.086459
271.163	0.090618
271.532	0.087839
271.902	0.086979
272.271	0.093560
272.641	0.092656
273.010	0.089249
273.380	0.079461
273.749	0.079139
274.119	0.087550
274.488	0.092140
274.857	0.102313
275.227	0.100675
275.596	0.103633
275.965	0.102602
276.335	0.099495
276.704	0.096302
277.073	0.099039
277.442	0.101861
277.811	0.111258
278.180	0.106329
278.549	0.108022
278.918	0.109204
279.287	0.108666
279.656	0.113979
280.025	0.109766
280.394	0.103902
280.763	0.111239
281.132	0.125707
281.501	0.125537
281.869	0.116923
282.238	0.115152
282.607	0.107936
282.976	0.111310
283.344	0.113837
283.713	0.116792
284.081	0.116240
284.450	0.122361
284.819	0.127749
285.187	0.123109
285.556	0.118838
285.924	0.118814
286.292	0.119085
286.661	0.115626
287.029	0.120057
287.398	0.115417
287.766	0.115779
288.134	0.120042
288.502	0.116235
288.871	0.116598
289.239	0.124930
289.607	0.133892
289.975	0.126530
290.343	0.133000
290.711	0.131125
291.079	0.136634
291.447	0.135952
291.815	0.137585
292.183	0.133159
292.551	0.126746
292.919	0.125942
293.287	0.131233
293.655	0.135783
294.022	0.136203
294.390	0.139024
294.758	0.137852
295.126	0.137467
295.493	0.148997
295.861	0.154925
296.229	0.147934
296.596	0.150879
296.964	0.145034
297.331	0.141830
297.699	0.146640
298.066	0.148340
298.434	0.154238
298.801	0.153700
299.168	0.155261
299.536	0.156761
299.903	0.161236
300.270	0.161458
300.638	0.170022
301.005	0.173190
301.372	0.179004
301.739	0.184699
302.106	0.192982
302.473	0.205218
302.840	0.217617
303.207	0.226298
303.574	0.238614
303.941	0.254919
304.308	0.260452
304.675	0.267965
305.042	0.289170
305.409	0.314077
305.776	0.323378
306.143	0.348657
306.509	0.367812
306.876	0.396122
307.243	0.422433
307.610	0.448897
307.976	0.476526
308.343	0.503936
308.709	0.539180
309.076	0.567157
309.442	0.594584
309.809	0.622598
310.175	0.654511
310.542	0.687866
310.908	0.714665
311.275	0.736743
311.641	0.768028
312.007	0.799406
312.373	0.836191
312.740	0.856191
313.106	0.879520
313.472	0.918880
313.838	0.935739
314.204	0.963392
314.570	0.984411
314.936	1.012604
315.302	1.036539
315.668	1.063027
316.034	1.092201
316.400	1.117410
316.766	1.138570
317.132	1.168855
317.498	1.192889
317.864	1.204905
318.230	1.218305
318.595	1.237822
318.961	1.261753
319.327	1.285603
319.692	1.305340
320.058	1.319202
320.424	1.338734
320.789	1.353421
321.155	1.367706
321.520	1.386743
321.886	1.407818
322.251	1.420962
322.616	1.428209
322.982	1.435539
323.347	1.444175
323.712	1.451653
324.078	1.455339
324.443	1.463498
324.808	1.470332
325.173	1.479057
325.539	1.493098
325.904	1.502702
326.269	1.508690
326.634	1.513896
326.999	1.518829
327.364	1.523072
327.729	1.528865
328.094	1.531065
328.459	1.534943
328.823	1.538113
329.188	1.543778
329.553	1.541892
329.918	1.547716
330.283	1.551490
330.647	1.559134
331.012	1.565326
331.377	1.568902
331.741	1.574121
332.106	1.578506
332.470	1.580432
332.835	1.582597
333.199	1.581842
333.564	1.585416
333.928	1.590251
334.293	1.590874
334.657	1.589120
335.021	1.593031
335.386	1.593911
335.750	1.595510
336.114	1.597688
336.478	1.599913
336.843	1.598736
337.207	1.600713
337.571	1.602096
337.935	1.604082
338.299	1.603174
338.663	1.602290
339.027	1.602839
339.391	1.602959
339.755	1.603271
340.119	1.603789
340.483	1.602433
340.846	1.603809
341.210	1.603115
341.574	1.602141
341.938	1.603135
342.301	1.605834
342.665	1.605270
343.029	1.605936
343.392	1.608194
343.756	1.607952
344.119	1.606674
344.483	1.608973
344.846	1.610020
345.210	1.611040
345.573	1.610341
345.937	1.609891
346.300	1.610158
346.663	1.610822
347.027	1.611727
347.390	1.612254
347.753	1.611242
348.116	1.612334
348.479	1.613892
348.843	1.613362
349.206	1.613724
349.569	1.613125
349.932	1.613462
350.295	1.613689
350.658	1.615271
351.021	1.615086
351.383	1.616286
351.746	1.617010
352.109	1.616484
352.472	1.616758
352.835	1.617062
353.197	1.619380
353.560	1.621982
353.923	1.622335
354.285	1.622815
354.648	1.623053
355.011	1.623150
355.373	1.625020
355.736	1.627173
356.098	1.626202
356.461	1.627547
356.823	1.627673
357.185	1.630250
357.548	1.631133
357.910	1.632038
358.272	1.631252
358.635	1.631812
358.997	1.632057
359.359	1.634903
359.721	1.635556
360.083	1.637442
360.445	1.637368
360.807	1.638330
361.169	1.638367
361.531	1.639475
361.893	1.640469
362.255	1.641678
362.617	1.642528
362.979	1.643598
363.341	1.641925
363.703	1.643431
364.064	1.644368
364.426	1.645624
364.788	1.645144
365.149	1.645476
365.511	1.646108
365.873	1.647046
366.234	1.647518
366.596	1.648445
366.957	1.648230
367.319	1.649973
367.680	1.649306
368.042	1.649700
368.403	1.650503
368.764	1.651253
369.126	1.652986
369.487	1.653174
369.848	1.653612
370.209	1.655385
370.570	1.655381
370.931	1.658806
371.293	1.659167
371.654	1.660215
372.015	1.662062
372.376	1.664666
372.737	1.665153
373.098	1.665075
373.458	1.667368
373.819	1.670234
374.180	1.672967
374.541	1.673732
374.902	1.674554
375.263	1.676073
375.623	1.678218
375.984	1.679916
376.345	1.681366
376.705	1.682068
377.066	1.683962
377.426	1.684599
377.787	1.685135
378.147	1.686868
378.508	1.685993
378.868	1.687667
379.228	1.687221
379.589	1.686478
379.949	1.686511
380.309	1.687689
380.670	1.690127
381.030	1.690154
381.390	1.690368
381.750	1.689433
382.110	1.689788
382.470	1.690981
382.830	1.691918
383.190	1.692786
383.550	1.692398
383.910	1.693168
384.270	1.694273
384.630	1.694769
384.990	1.695463
385.350	1.695908
385.709	1.696746
386.069	1.698793
386.429	1.697802
386.788	1.700458
387.148	1.702127
387.508	1.703130
387.867	1.703545
388.227	1.703684
388.586	1.704877
388.946	1.705571
389.305	1.707447
389.665	1.708587
390.024	1.708875
390.383	1.709813
390.743	1.709424
391.102	1.708942
391.461	1.707914
391.820	1.707708
392.179	1.707003
392.539	1.707724
392.898	1.708592
393.257	1.708530
393.616	1.708948
393.975	1.710516
394.334	1.710163
394.693	1.711175
395.051	1.711295
395.410	1.712107
395.769	1.713475
396.128	1.714167
396.487	1.713948
396.845	1.712785
397.204	1.712968
397.563	1.712209
397.921	1.710877
398.280	1.711219
398.638	1.710488
398.997	1.711650
399.355	1.710513
399.714	1.710740
400.072	1.709497
400.431	1.708237
400.789	1.707551
401.147	1.706828
401.506	1.705771
401.864	1.705332
402.222	1.703958
402.580	1.702056
402.938	1.700982
403.297	1.698807
403.655	1.697165
404.013	1.696657
404.371	1.695973
404.729	1.693092
405.087	1.691758
405.444	1.690361
405.802	1.688235
406.160	1.687676
406.518	1.686274
406.876	1.685571
407.233	1.684748
407.591	1.684004
407.949	1.683463
408.306	1.682970
408.664	1.681766
409.022	1.680833
409.379	1.679548
409.737	1.677300
410.094	1.676244
410.451	1.675117
410.809	1.673882
411.166	1.672044
411.523	1.670324
411.881	1.668892
412.238	1.669458
412.595	1.667765
412.952	1.666622
413.310	1.665912
413.667	1.665457
414.024	1.664461
414.381	1.663004
414.738	1.660683
415.095	1.658861
415.452	1.657133
415.809	1.655034
416.165	1.653111
416.522	1.651375
416.879	1.649572
417.236	1.648545
417.593	1.646391
417.949	1.644025
418.306	1.642259
418.663	1.642327
419.019	1.640236
419.376	1.638522
419.732	1.635539
420.089	1.634737
420.445	1.633500
420.802	1.631778
421.158	1.629394
421.514	1.627221
421.871	1.625195
422.227	1.623301
422.583	1.621400
422.939	1.618415
423.295	1.615940
423.652	1.613651
424.008	1.611279
424.364	1.609236
424.720	1.606724
425.076	1.604979
425.432	1.602949
425.788	1.600745
426.143	1.597095
426.499	1.594565
426.855	1.592234
427.211	1.589827
427.567	1.586744
427.922	1.584562
428.278	1.581227
428.634	1.579489
428.989	1.576909
429.345	1.574628
429.700	1.571982
430.056	1.570258
430.411	1.568422
430.767	1.565771
431.122	1.563123
431.478	1.560461
431.833	1.557734
432.188	1.554615
432.543	1.552036
432.899	1.548753
433.254	1.545345
433.609	1.541943
433.964	1.538967
434.319	1.535112
434.674	1.531548
435.029	1.528591
435.384	1.524617
435.739	1.521686
436.094	1.518047
436.449	1.515102
436.804	1.511291
437.158	1.507908
437.513	1.503669
437.868	1.500125
438.223	1.497039
438.577	1.493071
438.932	1.489813
439.287	1.485916
439.641	1.482462
439.996	1.478842
440.350	1.475052
440.704	1.471382
441.059	1.467723
441.413	1.463282
441.768	1.459523
442.122	1.456245
442.476	1.451751
442.830	1.448109
443.185	1.444037
443.539	1.439974
443.893	1.435928
444.247	1.432192
444.601	1.428286
444.955	1.424173
445.309	1.420031
445.663	1.415751
446.017	1.411805
446.371	1.406773
446.724	1.402107
447.078	1.397889
447.432	1.393332
447.786	1.388908
448.139	1.384477
448.493	1.379796
448.847	1.375517
449.200	1.370978
449.554	1.366358
449.907	1.362606
450.261	1.358119
450.614	1.353988
450.968	1.349456
451.321	1.344810
451.674	1.340297
452.027	1.335701
452.381	1.331220
452.734	1.326749
453.087	1.322338
453.440	1.317393
453.793	1.312952
454.146	1.308394
454.499	1.303921
454.852	1.299117
455.205	1.294881
455.558	1.290375
455.911	1.285892
456.264	1.281177
456.617	1.277089
456.970	1.272780
457.322	1.268454
457.675	1.264358
458.028	1.260201
458.380	1.256291
458.733	1.252299
459.086	1.248453
459.438	1.244728
459.791	1.240675
460.143	1.236628
460.496	1.232526
460.848	1.228666
461.200	1.224962
461.553	1.220848
461.905	1.216815
462.257	1.212563
462.609	1.208527
462.961	1.204594
463.314	1.200841
463.666	1.197210
464.018	1.193155
464.370	1.189565
464.722	1.185743
465.074	1.181863
465.426	1.178541
465.777	1.175289
466.129	1.171938
466.481	1.168438
466.833	1.165031
467.184	1.161979
467.536	1.158402
467.888	1.154898
468.239	1.151277
468.591	1.147298
468.943	1.143627
469.294	1.139428
469.646	1.135685
469.997	1.131585
470.348	1.127920
470.700	1.124396
471.051	1.120908
471.402	1.117432
471.754	1.113873
472.105	1.110769
472.456	1.107926
472.807	1.104582
473.158	1.101138
473.509	1.098087
473.860	1.095165
474.211	1.092418
474.562	1.089665
474.913	1.086794
475.264	1.083841
475.615	1.081022
475.966	1.078318
476.316	1.075335
476.667	1.072607
477.018	1.069958
477.368	1.067270
477.719	1.064422
478.070	1.061463
478.420	1.058795
478.771	1.056087
479.121	1.053521
479.472	1.050727
479.822	1.047865
480.172	1.045294
480.523	1.042672
480.873	1.040398
481.223	1.037972
481.573	1.035112
481.924	1.031686
482.274	1.028250
482.624	1.025159
482.974	1.022219
483.324	1.019149
483.674	1.016471
484.024	1.014203
484.374	1.012223
484.724	1.010362
485.073	1.008648
485.423	1.006963
485.773	1.005157
486.123	1.003458
486.472	1.001530
486.822	0.999718
487.172	0.997934
487.521	0.996055
487.871	0.994160
488.220	0.991883
488.570	0.989299
488.919	0.986283
489.268	0.983150
489.618	0.979994
489.967	0.976193
490.316	0.972309
490.666	0.968755
491.015	0.965593
491.364	0.962374
491.713	0.959168
492.062	0.956282
492.411	0.953314
492.760	0.950460
493.109	0.947553
493.458	0.944759
493.807	0.942154
494.156	0.939334
494.505	0.936536
494.853	0.933762
495.202	0.930936
495.551	0.928052
495.900	0.925239
496.248	0.922523
496.597	0.919836
496.945	0.917188
497.294	0.914605
497.642	0.911718
497.991	0.908950
498.339	0.906053
498.688	0.903375
499.036	0.900821
499.384	0.898174
499.732	0.895505
500.081	0.892920
500.429	0.890388
500.777	0.887810
501.125	0.885385
501.473	0.882930
501.821	0.880487
502.169	0.878072
502.517	0.875750
502.865	0.873407
503.213	0.870989
503.561	0.868680
503.908	0.866383
504.256	0.863929
504.604	0.861566
504.952	0.859340
505.299	0.856981
505.647	0.854752
505.994	0.852502
506.342	0.850104
506.689	0.847732
507.037	0.845459
507.384	0.843064
507.732	0.840796
508.079	0.838465
508.426	0.836129
508.774	0.833950
509.121	0.831833
509.468	0.829801
509.815	0.827740
510.162	0.825642
510.509	0.823562
510.856	0.821384
511.203	0.819315
511.550	0.817195
511.897	0.815110
512.244	0.813047
512.591	0.810963
512.938	0.808989
513.284	0.806984
513.631	0.804956
513.978	0.802928
514.324	0.801008
514.671	0.799091
515.018	0.797195
515.364	0.795249
515.711	0.793240
516.057	0.791200
516.403	0.789184
516.750	0.787142
517.096	0.785183
517.443	0.783266
517.789	0.781361
518.135	0.779599
518.481	0.777727
518.827	0.775905
519.173	0.774085
519.519	0.772239
519.865	0.770488
520.211	0.768572
520.557	0.766615
520.903	0.764632
521.249	0.762779
521.595	0.760758
521.941	0.758586
522.287	0.756459
522.632	0.754413
522.978	0.752548
523.324	0.750598
523.669	0.748675
524.015	0.746643
524.360	0.744630
524.706	0.742866
525.051	0.740997
525.397	0.739016
525.742	0.737117
526.087	0.735275
526.433	0.733274
526.778	0.731360
527.123	0.729341
527.468	0.727365
527.813	0.725599
528.158	0.723856
528.504	0.721870
528.849	0.719935
529.193	0.718263
529.538	0.716404
529.883	0.714411
530.228	0.712099
530.573	0.710051
530.918	0.707832
531.263	0.705704
531.607	0.703572
531.952	0.701274
532.296	0.699143
532.641	0.697055
532.986	0.694768
533.330	0.692599
533.675	0.690632
534.019	0.688496
534.363	0.686459
534.708	0.684337
535.052	0.682082
535.396	0.679869
535.741	0.677734
536.085	0.675414
536.429	0.673069
536.773	0.670640
537.117	0.668255
537.461	0.665885
537.805	0.663332
538.149	0.660791
538.493	0.658160
538.837	0.655647
539.181	0.653063
539.524	0.650379
539.868	0.647686
540.212	0.645216
540.556	0.642547
540.899	0.639839
541.243	0.637152
541.586	0.634382
541.930	0.631646
542.273	0.628884
542.617	0.626084
542.960	0.623220
543.304	0.620364
543.647	0.617412
543.990	0.614422
544.333	0.611366
544.677	0.608301
545.020	0.605218
545.363	0.602154
545.706	0.599146
546.049	0.596013
546.392	0.593020
546.735	0.590081
547.078	0.587062
547.421	0.583936
547.764	0.580752
548.106	0.577404
548.449	0.574015
548.792	0.570743
549.135	0.567382
549.477	0.563986
549.820	0.560673
550.162	0.557347
550.505	0.553977
550.847	0.550582
551.190	0.547040
551.532	0.543461
551.875	0.539752
552.217	0.536021
552.559	0.532280
552.901	0.528563
553.244	0.524957
553.586	0.521344
553.928	0.517821
554.270	0.514413
554.612	0.511007
554.954	0.507627
555.296	0.504234
555.638	0.500840
555.980	0.497141
556.322	0.493393
556.663	0.489553
557.005	0.485587
557.347	0.481633
557.689	0.477601
558.030	0.473635
558.372	0.469754
558.713	0.465891
559.055	0.462173
559.396	0.458384
559.738	0.454611
560.079	0.450860
560.421	0.447149
560.762	0.443405
561.103	0.439665
561.444	0.435960
561.786	0.432314
562.127	0.428722
562.468	0.425179
562.809	0.421564
563.150	0.417931
563.491	0.414160
563.832	0.410229
564.173	0.406252
564.514	0.402261
564.855	0.398317
565.195	0.394311
565.536	0.390170
565.877	0.386098
566.218	0.382041
566.558	0.378059
566.899	0.374186
567.239	0.370389
567.580	0.366720
567.920	0.363339
568.261	0.360220
568.601	0.357363
568.941	0.354599
569.282	0.351971
569.622	0.349410
569.962	0.346908
570.302	0.344398
570.643	0.341878
570.983	0.339402
571.323	0.336996
571.663	0.334637
572.003	0.332342
572.343	0.330014
572.683	0.327718
573.022	0.325426
573.362	0.323044
573.702	0.320544
574.042	0.317997
574.381	0.315509
574.721	0.313150
575.061	0.310824
575.400	0.308590
575.740	0.306384
576.079	0.304284
576.419	0.302290
576.758	0.300269
577.097	0.298118
577.437	0.295801
577.776	0.293370
578.115	0.290956
578.454	0.288600
578.794	0.286299
579.133	0.284158
579.472	0.282258
579.811	0.280510
580.150	0.278872
580.489	0.277241
580.828	0.275604
581.167	0.273915
581.505	0.272186
581.844	0.270379
582.183	0.268597
582.522	0.266861
582.860	0.265177
583.199	0.263549
583.538	0.261848
583.876	0.260132
584.215	0.258390
584.553	0.256654
584.891	0.255010
585.230	0.253348
585.568	0.251731
585.906	0.250206
586.245	0.248755
586.583	0.247341
586.921	0.246004
587.259	0.244593
587.597	0.243227
587.935	0.241850
588.273	0.240490
588.611	0.238998
588.949	0.237484
589.287	0.235893
589.625	0.234283
589.963	0.232706
590.300	0.231075
590.638	0.229523
590.976	0.227971
591.313	0.226431
591.651	0.224980
591.989	0.223558
592.326	0.222223
592.664	0.220971
593.001	0.219800
593.338	0.218720
593.676	0.217730
594.013	0.216807
594.350	0.215912
594.687	0.214969
595.025	0.213956
595.362	0.212901
595.699	0.211851
596.036	0.210751
596.373	0.209660
596.710	0.208548
597.047	0.207447
597.384	0.206411
597.720	0.205382
598.057	0.204399
598.394	0.203460
598.731	0.202520
599.067	0.201608
599.404	0.200686
599.741	0.199747
600.077	0.198830
600.414	0.197941
600.750	0.197066
601.087	0.196172
601.423	0.195279
601.759	0.194439
602.096	0.193634
602.432	0.192846
602.768	0.192039
603.104	0.191206
603.440	0.190401
603.776	0.189667
604.112	0.188939
604.448	0.188202
604.784	0.187487
605.120	0.186776
605.456	0.186110
605.792	0.185400
606.128	0.184687
606.463	0.184021
606.799	0.183372
607.135	0.182721
607.470	0.182027
607.806	0.181362
608.142	0.180698
608.477	0.180065
608.812	0.179401
609.148	0.178756
609.483	0.178083
609.819	0.177453
610.154	0.176835
610.489	0.176253
610.824	0.175676
611.159	0.175022
611.494	0.174421
611.830	0.173860
612.165	0.173323
612.500	0.172764
612.834	0.172263
613.169	0.171743
613.504	0.171211
613.839	0.170641
614.174	0.170095
614.509	0.169621
614.843	0.169111
615.178	0.168635
615.512	0.168191
615.847	0.167738
616.182	0.167290
616.516	0.166803
616.850	0.166341
617.185	0.165936
617.519	0.165466
617.853	0.164979
618.188	0.164568
618.522	0.164227
618.856	0.163789
619.190	0.163286
619.524	0.162756
619.858	0.162295
620.192	0.161824
620.526	0.161302
620.860	0.160818
621.194	0.160349
621.528	0.159925
621.862	0.159466
622.195	0.158981
622.529	0.158509
622.863	0.158094
623.196	0.157653
623.530	0.157258
623.864	0.156813
624.197	0.156452
624.530	0.156094
624.864	0.155719
625.197	0.155353
625.531	0.154851
625.864	0.154423
626.197	0.153997
626.530	0.153612
626.863	0.153114
627.196	0.152657
627.529	0.152241
627.862	0.151843
628.195	0.151476
628.528	0.151066
628.861	0.150743
629.194	0.150468
629.527	0.150029
629.860	0.149656
630.192	0.149268
630.525	0.148925
630.858	0.148568
631.190	0.148091
631.523	0.147659
631.855	0.147204
632.188	0.146767
632.520	0.146392
632.852	0.145953
633.185	0.145524
633.517	0.145133
633.849	0.144727
634.182	0.144444
634.514	0.144255
634.846	0.144034
635.178	0.143759
635.510	0.143492
635.842	0.143161
636.174	0.142816
636.506	0.142580
636.837	0.142211
637.169	0.141870
637.501	0.141504
637.833	0.141192
638.164	0.140867
638.496	0.140516
638.828	0.140152
639.159	0.139768
639.491	0.139320
639.822	0.138912
640.154	0.138545
640.485	0.138082
640.816	0.137699
641.147	0.137253
641.479	0.136763
641.810	0.136365
642.141	0.135915
642.472	0.135451
642.803	0.134993
643.134	0.134522
643.465	0.134207
643.796	0.133962
644.127	0.133816
644.458	0.133670
644.789	0.133465
645.119	0.133346
645.450	0.133151
645.781	0.133008
646.111	0.132862
646.442	0.132776
646.773	0.132619
647.103	0.132422
647.433	0.132329
647.764	0.132222
648.094	0.132062
648.425	0.132050
648.755	0.131980
649.085	0.131826
649.415	0.131676
649.745	0.131617
650.075	0.131578
650.405	0.131567
650.735	0.132772
651.065	0.140924
651.395	0.142036
651.725	0.126197
652.055	0.087095
652.385	0.065388
652.715	0.051555
653.044	0.041972
653.374	0.034958
653.704	0.029619
654.033	0.035099
654.363	0.040354
654.692	0.043414
655.022	0.045371
655.351	0.046683
655.680	0.047524
656.010	0.048011
656.339	0.048234
656.668	0.048303
656.997	0.048278
657.326	0.048194
657.655	0.047885
657.984	0.045769
658.313	0.040538
658.642	0.035022
658.971	0.040282
659.300	0.046998
659.629	0.055893
659.958	0.068195
660.286	0.086373
660.615	0.115960
660.944	0.126813
661.272	0.127716
661.601	0.129295
661.929	0.129797
662.258	0.128919
662.586	0.127146
662.915	0.125327
663.243	0.123945
663.571	0.122962
663.899	0.122399
664.228	0.121903
664.556	0.121615
664.884	0.121362
665.212	0.121139
665.540	0.120920
665.868	0.120791
666.196	0.120692
666.524	0.120445
666.852	0.120459
667.179	0.120431
667.507	0.120372
667.835	0.120335
668.162	0.120297
668.490	0.120215
668.818	0.120063
669.145	0.119858
669.473	0.119656
669.800	0.119419
670.127	0.119220
670.455	0.119032
670.782	0.118932
671.109	0.118820
671.436	0.118761
671.764	0.118669
672.091	0.118545
672.418	0.118467
672.745	0.118410
673.072	0.118389
673.399	0.118362
673.726	0.118182
674.053	0.117948
674.379	0.117785
674.706	0.117632
675.033	0.117412
675.359	0.117268
675.686	0.117110
676.013	0.117018
676.339	0.116882
676.666	0.116824
676.992	0.116794
677.318	0.116632
677.645	0.116421
677.971	0.116136
678.297	0.115887
678.624	0.115670
678.950	0.115509
679.276	0.115321
679.602	0.115114
679.928	0.114939
680.254	0.114822
680.580	0.114744
680.906	0.114682
681.232	0.114554
681.558	0.114340
681.883	0.114054
682.209	0.113828
682.535	0.113661
682.860	0.113460
683.186	0.113328
683.511	0.113015
683.837	0.112735
684.162	0.112601
684.488	0.112468
684.813	0.112420
685.138	0.112244
685.464	0.112142
685.789	0.111916
686.114	0.111797
686.439	0.111669
686.764	0.111513
687.089	0.111272
687.414	0.111009
687.739	0.110761
688.064	0.110531
688.389	0.110382
688.714	0.110328
689.039	0.110037
689.363	0.109851
689.688	0.109639
690.013	0.109460
690.337	0.109448
690.662	0.109354
690.986	0.109216
691.311	0.109048
691.635	0.108897
691.959	0.108772
692.284	0.108665
692.608	0.108594
692.932	0.108475
693.256	0.108410
693.580	0.108384
693.904	0.108330
694.228	0.108220
694.552	0.108007
694.876	0.107682
695.200	0.107343
695.524	0.107042
695.848	0.106896
696.172	0.106647
696.495	0.106399
696.819	0.106229
697.143	0.105917
697.466	0.105702
697.790	0.105501
698.113	0.105380
698.437	0.105171
698.760	0.104951
699.083	0.104695
699.407	0.104458
699.730	0.104247
700.053	0.103967
700.376	0.103577
700.699	0.103179
701.022	0.102873
701.345	0.102636
701.668	0.102538
701.991	0.102446
702.314	0.102328
702.637	0.102290
702.960	0.102248
703.283	0.102186
703.605	0.101984
703.928	0.101919
704.251	0.101767
704.573	0.101482
704.896	0.101223
705.218	0.101021
705.540	0.100991
705.863	0.100862
706.185	0.100754
706.507	0.100545
706.830	0.100414
707.152	0.100235
707.474	0.100075
707.796	0.099787
708.118	0.099575
708.440	0.099384
708.762	0.099188
709.084	0.098952
709.406	0.098702
709.728	0.098450
710.049	0.098227
710.371	0.098009
710.693	0.097701
711.014	0.097335
711.336	0.097133
711.658	0.096789
711.979	0.096507
712.301	0.096124
712.622	0.095788
712.943	0.095404
713.265	0.095147
713.586	0.094841
713.907	0.094665
714.228	0.094546
714.549	0.094499
714.870	0.094419
715.191	0.094191
715.512	0.093976
715.833	0.093782
716.154	0.093490
716.475	0.093186
716.796	0.092815
717.117	0.092475
717.437	0.092145
717.758	0.091893
718.078	0.091548
718.399	0.091342
718.719	0.091060
719.040	0.090868
719.360	0.090630
719.681	0.090409
720.001	0.090138
720.321	0.090032
720.642	0.089841
720.962	0.089550
721.282	0.089341
721.602	0.089040
721.922	0.088864
722.242	0.088639
722.562	0.088269
722.882	0.088088
723.202	0.087875
723.521	0.087705
723.841	0.087618
724.161	0.087438
724.481	0.087328
724.800	0.087307
725.120	0.087223
725.439	0.087174
725.759	0.086964
726.078	0.086907
726.398	0.086848
726.717	0.086848
727.036	0.086645
727.355	0.086471
727.675	0.086297
727.994	0.086141
728.313	0.086085
728.632	0.085896
728.951	0.085721
729.270	0.085616
729.589	0.085455
729.908	0.085317
730.226	0.085106
730.545	0.084846
730.864	0.084668
731.182	0.084436
731.501	0.084111
731.820	0.083865
732.138	0.083598
732.457	0.083402
732.775	0.083116
733.093	0.082904
733.412	0.082612
733.730	0.082374
734.048	0.082162
734.367	0.081915
734.685	0.081680
735.003	0.081339
735.321	0.081156
735.639	0.080928
735.957	0.080724
736.275	0.080431
736.593	0.080122
736.910	0.079835
737.228	0.079598
737.546	0.079345
737.863	0.079121
738.181	0.078931
738.499	0.078696
738.816	0.078503
739.134	0.078277
739.451	0.078033
739.768	0.077783
740.086	0.077546
740.403	0.077253
740.720	0.076933
741.038	0.076721
741.355	0.076425
741.672	0.076138
741.989	0.075760
742.306	0.075391
742.623	0.075006
742.940	0.074767
743.257	0.074371
743.573	0.074142
743.890	0.073818
744.207	0.073525
744.523	0.073320
744.840	0.073032
745.157	0.072756
745.473	0.072538
745.790	0.072464
746.106	0.072363
746.422	0.072126
746.739	0.071977
747.055	0.071860
747.371	0.071672
747.687	0.071473
748.004	0.071252
748.320	0.071146
748.636	0.071038
748.952	0.071029
749.268	0.071045
749.584	0.070948
749.899	0.070945
750.215	0.070967
750.531	0.070940
750.847	0.070932
751.162	0.070817
751.478	0.070749
751.793	0.070692
752.109	0.070588
752.424	0.070459
752.740	0.070385
753.055	0.070498
753.370	0.070465
753.686	0.070552
754.001	0.070631
754.316	0.070663
754.631	0.070744
754.946	0.070701
755.261	0.070647
755.576	0.070506
755.891	0.070386
756.206	0.070303
756.521	0.070201
756.836	0.070027
757.150	0.069876
757.465	0.069657
757.780	0.069534
758.094	0.069500
758.409	0.069450
758.723	0.069376
759.038	0.069266
759.352	0.069218
759.667	0.069058
759.981	0.069054
760.295	0.068920
760.609	0.068769
760.923	0.068645
761.238	0.068425
761.552	0.068265
761.866	0.068100
762.180	0.067900
762.493	0.067687
762.807	0.067383
763.121	0.067166
763.435	0.066994
763.749	0.066831
764.062	0.066856
764.376	0.066854
764.689	0.066754
765.003	0.066658
765.316	0.066621
765.630	0.066628
765.943	0.066533
766.257	0.066397
766.570	0.066158
766.883	0.065889
767.196	0.065622
767.509	0.065255
767.822	0.064959
768.135	0.064629
768.448	0.064408
768.761	0.064170
769.074	0.063961
769.387	0.063847
769.700	0.063746
770.013	0.063577
770.325	0.063371
770.638	0.063100
770.950	0.062764
771.263	0.062475
771.575	0.062157
771.888	0.061768
772.200	0.061379
772.513	0.060942
772.825	0.060564
773.137	0.060133
773.449	0.059843
773.761	0.059579
774.074	0.059534
774.386	0.059481
774.698	0.059513
775.010	0.059438
775.321	0.059489
775.633	0.059459
775.945	0.059426
776.257	0.059402
776.568	0.059465
776.880	0.059706
777.192	0.059713
777.503	0.059648
777.815	0.059704
778.126	0.059750
778.438	0.059818
778.749	0.059847
779.060	0.059857
779.372	0.059843
779.683	0.059788
779.994	0.059656
780.305	0.059452
780.616	0.059337
780.927	0.059297
781.238	0.059098
781.549	0.058899
781.860	0.058740
782.171	0.058699
782.481	0.058759
782.792	0.058673
783.103	0.058631
783.413	0.058476
783.724	0.058381
784.034	0.058416
784.345	0.058310
784.655	0.058319
784.966	0.058162
785.276	0.058012
785.586	0.057925
785.896	0.057859
786.207	0.057813
786.517	0.057812
786.827	0.057934
787.137	0.057884
787.447	0.057809
787.757	0.057874
788.066	0.057915
788.376	0.057986
788.686	0.057966
788.996	0.057912
789.305	0.057951
789.615	0.058087
789.925	0.058224
790.234	0.058369
790.544	0.058470
790.853	0.058532
791.162	0.058399
791.472	0.058425
791.781	0.058319
792.090	0.058175
792.399	0.057916
792.708	0.057774
793.017	0.057673
793.326	0.057544
793.635	0.057465
793.944	0.057318
794.253	0.057251
794.562	0.057223
794.871	0.057181
795.179	0.057085
795.488	0.056965
795.797	0.056881
796.105	0.056559
796.414	0.056270
796.722	0.055979
797.031	0.055710
797.339	0.055385
797.647	0.055041
797.956	0.054789
798.264	0.054592
798.572	0.054503
798.880	0.054787
799.188	0.054766
799.496	0.054691
799.804	0.054714
800.112	0.054638
800.420	0.054616
800.728	0.054478
801.035	0.054231
801.343	0.053967
801.651	0.053941
801.958	0.053952
802.266	0.053921
802.573	0.054054
802.881	0.054204
803.188	0.054182
803.496	0.054280
803.803	0.054335
804.110	0.054432
804.417	0.054228
804.724	0.054177
805.032	0.054174
805.339	0.053829
805.646	0.053796
805.953	0.053553
806.259	0.053520
806.566	0.053312
806.873	0.053229
807.180	0.053030
807.486	0.053121
807.793	0.053093
808.100	0.052951
808.406	0.052694
808.713	0.052472
809.019	0.052057
809.326	0.051803
809.632	0.051718
809.938	0.051241
810.244	0.050922
810.551	0.050645
810.857	0.050439
811.163	0.050318
811.469	0.050073
811.775	0.049949
812.081	0.049834
812.387	0.050093
812.692	0.049887
812.998	0.050125
813.304	0.050054
813.610	0.050442
813.915	0.050315
814.221	0.050306
814.526	0.050300
814.832	0.050435
815.137	0.050292
815.443	0.050167
815.748	0.049985
816.053	0.049839
816.358	0.049938
816.664	0.050092
816.969	0.050190
817.274	0.050520
817.579	0.050689
817.884	0.050805
818.189	0.050874
818.493	0.050676
818.798	0.050421
819.103	0.050228
819.408	0.049908
819.712	0.049810
820.017	0.049326
820.321	0.049173
820.626	0.049202
820.930	0.049051
821.235	0.048817
821.539	0.048721
821.843	0.048807
822.148	0.048449
822.452	0.048334
822.756	0.048245
823.060	0.047880
823.364	0.047849
823.668	0.047622
823.972	0.047428
824.276	0.047245
824.580	0.047171
824.883	0.047476
825.187	0.047525
825.491	0.047653
825.795	0.047597
826.098	0.047382
826.402	0.047241
826.705	0.047283
827.008	0.046925
827.312	0.046632
827.615	0.046400
827.918	0.046105
828.222	0.045807
828.525	0.045841
828.828	0.045918
829.131	0.045844
829.434	0.045781
829.737	0.045428
830.040	0.045239
830.343	0.045089
830.645	0.045037
830.948	0.044822
831.251	0.044614
831.553	0.044588
831.856	0.044344
832.159	0.044309
832.461	0.044293
832.764	0.044201
833.066	0.043737
833.368	0.043894
833.671	0.043806
833.973	0.043707
834.275	0.043890
834.577	0.043755
834.879	0.043704
835.181	0.043015
835.483	0.042506
835.785	0.042067
836.087	0.041856
836.389	0.041748
836.690	0.041438
836.992	0.040669
837.294	0.040035
837.595	0.039070
837.897	0.038274
838.198	0.037692
838.500	0.037276
838.801	0.036748
839.103	0.036492
839.404	0.036247
839.705	0.035698
840.006	0.035536
840.307	0.035565
840.608	0.035479
840.910	0.035916
841.210	0.035894
841.511	0.036133
841.812	0.035984
842.113	0.036318
842.414	0.035712
842.715	0.035293
843.015	0.034334
843.316	0.034361
843.616	0.034224
843.917	0.033832
844.217	0.033930
844.518	0.033911
844.818	0.033666
845.118	0.033965
845.419	0.033962
845.719	0.033954
846.019	0.033546
846.319	0.033879
846.619	0.033278
846.919	0.032953
847.219	0.032298
847.519	0.032000
847.819	0.032539
848.118	0.032728
848.418	0.032872
848.718	0.033617
849.017	0.033911
849.317	0.034694
849.616	0.034629
849.916	0.035889
850.215	0.036745
850.515	0.036826
850.814	0.036930
851.113	0.036546
851.412	0.036223
851.712	0.035906
852.011	0.035505
852.310	0.035642
852.609	0.035466
852.908	0.035325
853.206	0.035278
853.505	0.035503
853.804	0.035337
854.103	0.034832
854.401	0.034557
854.700	0.034146
854.999	0.033667
855.297	0.033349
855.595	0.032807
855.894	0.032597
856.192	0.031727
856.491	0.031095
856.789	0.030625
857.087	0.029916
857.385	0.029744
857.683	0.029345
857.981	0.029309
858.279	0.029128
858.577	0.028461
858.875	0.028223
859.173	0.028289
859.471	0.028466
859.768	0.027909
860.066	0.027886
860.363	0.027845
860.661	0.027282
860.959	0.027322
861.256	0.027400
861.553	0.027162
861.851	0.026780
862.148	0.026144
862.445	0.026009
862.742	0.025501
863.039	0.024889
863.337	0.024839
863.634	0.024479
863.931	0.024460
864.227	0.024254
864.524	0.024483
864.821	0.024794
865.118	0.024113
865.415	0.023147
865.711	0.021942
866.008	0.020968
866.304	0.020746
866.601	0.020638
866.897	0.021089
867.194	0.020760
867.490	0.020381
867.786	0.020233
868.082	0.020635
868.379	0.020429
868.675	0.020305
868.971	0.020448
869.267	0.020243
869.563	0.020410
869.859	0.020292
870.154	0.019634
870.450	0.019451
870.746	0.019433
871.042	0.019723
871.337	0.019903
871.633	0.020544
871.928	0.020748
872.224	0.020578
872.519	0.019892
872.815	0.019372
873.110	0.018844
873.405	0.018850
873.700	0.019101
873.995	0.019342
874.291	0.019565
874.586	0.020468
874.881	0.020476
875.175	0.020487
875.470	0.020930
875.765	0.020702
876.060	0.020743
876.355	0.021463
876.649	0.021026
876.944	0.020630
877.238	0.020089
877.533	0.020139
877.827	0.019751
878.122	0.019814
878.416	0.020288
878.710	0.020621
879.005	0.020380
879.299	0.020155
879.593	0.019767
879.887	0.019239
880.181	0.018480
880.475	0.018396
880.769	0.017778
881.063	0.017918
881.356	0.018052
881.650	0.017474
881.944	0.017125
882.238	0.002974
882.531	0.012184
882.825	0.007815
883.118	0.006756
883.412	0.024405
883.705	0.012691
883.998	0.024936
884.291	0.026924
884.585	0.013241
884.878	0.014748
>>>>>>>>>> END of Data <<<<<<<<<<
>>>>>>>>>> Raw Data Start <<<<<<<<
190.664	-274
191.040	6
191.415	6
191.791	5
192.166	6
192.542	8
192.917	4
193.293	10
193.668	7
194.044	8
194.419	-5
194.794	8
195.170	8
195.545	9
195.920	9
196.296	9
196.671	9
197.046	10
197.421	10
197.796	10
198.171	10
198.546	10
198.922	10
199.297	10
199.672	11
200.047	11
200.422	11
200.796	11
201.171	11
201.546	11
201.921	11
202.296	12
202.671	12
203.045	12
203.420	12
203.795	12
204.170	12
204.544	12
204.919	12
205.294	13
205.668	13
206.043	12
206.417	12
206.792	13
207.166	13
207.541	12
207.915	12
208.289	12
208.664	12
209.038	12
209.412	12
209.787	12
210.161	12
210.535	12
210.909	12
211.284	12
211.658	12
212.032	12
212.406	12
212.780	12
213.154	11
213.528	11
213.902	11
214.276	11
214.650	11
215.024	11
215.398	12
215.772	12
216.145	12
216.519	12
216.893	12
217.267	12
217.640	12
218.014	12
218.388	12
218.761	12
219.135	12
219.508	12
219.882	12
220.256	12
220.629	13
221.003	12
221.376	13
221.749	13
222.123	13
222.496	13
222.869	13
223.243	13
223.616	12
223.989	13
224.362	13
224.736	13
225.109	13
225.482	13
225.855	13
226.228	13
226.601	13
226.974	13
227.347	13
227.720	13
228.093	13
228.466	13
228.839	13
229.212	13
229.585	12
229.957	12
230.330	13
230.703	12
231.076	13
231.448	13
231.821	12
232.194	12
232.566	12
232.939	12
233.311	12
233.684	12
234.056	12
234.429	12
234.801	12
235.174	12
235.546	12
235.918	13
236.291	13
236.663	13
237.035	12
237.408	13
237.780	13
238.152	13
238.524	13
238.896	13
239.268	13
239.641	14
240.013	14
240.385	14
240.757	14
241.129	14
241.500	13
241.872	14
242.244	14
242.616	14
242.988	13
243.360	13
243.731	13
244.103	13
244.475	13
244.847	14
245.218	14
245.590	14
245.961	14
246.333	14
246.705	14
247.076	14
247.448	14
247.819	14
248.190	14
248.562	14
248.933	14
249.305	15
249.676	15
250.047	15
250.418	15
250.790	15
251.161	14
251.532	14
251.903	14
252.274	14
252.645	14
253.016	14
253.387	14
253.758	14
254.129	14
254.500	15
254.871	15
255.242	15
255.613	15
255.984	15
256.355	14
256.725	14
257.096	14
257.467	14
257.838	14
258.208	14
258.579	15
258.949	15
259.320	15
259.690	15
260.061	16
260.431	15
260.802	16
261.172	15
261.543	16
261.913	16
262.283	16
262.654	16
263.024	16
263.394	16
263.764	16
264.135	17
264.505	17
264.875	17
265.245	17
265.615	17
265.985	17
266.355	17
266.725	16
267.095	17
267.465	17
267.835	17
268.205	17
268.575	16
268.944	16
269.314	16
269.684	16
270.054	15
270.423	15
270.793	15
271.163	15
271.532	15
271.902	15
272.271	15
272.641	15
273.010	15
273.380	15
273.749	15
274.119	15
274.488	15
274.857	15
275.227	15
275.596	15
275.965	15
276.335	16
276.704	16
277.073	16
277.442	16
277.811	16
278.180	16
278.549	16
278.918	16
279.287	16
279.656	16
280.025	16
280.394	16
280.763	16
281.132	16
281.501	16
281.869	16
282.238	16
282.607	16
282.976	16
283.344	16
283.713	15
284.081	15
284.450	15
284.819	15
285.187	16
285.556	16
285.924	16
286.292	16
286.661	16
287.029	15
287.398	16
287.766	16
288.134	16
288.502	16
288.871	16
289.239	16
289.607	15
289.975	16
290.343	16
290.711	16
291.079	16
291.447	16
291.815	16
292.183	16
292.551	16
292.919	16
293.287	16
293.655	16
294.022	16
294.390	16
294.758	16
295.126	16
295.493	15
295.861	15
296.229	15
296.596	15
296.964	15
297.331	16
297.699	16
298.066	16
298.434	16
298.801	16
299.168	16
299.536	16
299.903	16
300.270	16
300.638	16
301.005	16
301.372	16
301.739	16
302.106	16
302.473	17
302.840	17
303.207	17
303.574	17
303.941	17
304.308	17
304.675	17
305.042	17
305.409	17
305.776	17
306.143	17
306.509	17
306.876	17
307.243	17
307.610	17
307.976	17
308.343	17
308.709	17
309.076	17
309.442	17
309.809	17
310.175	17
310.542	17
310.908	17
311.275	17
311.641	17
312.007	17
312.373	17
312.740	17
313.106	18
313.472	17
313.838	18
314.204	18
314.570	18
314.936	18
315.302	18
315.668	19
316.034	18
316.400	18
316.766	19
317.132	18
317.498	18
317.864	19
318.230	19
318.595	19
318.961	19
319.327	19
319.692	19
320.058	20
320.424	20
320.789	20
321.155	21
321.520	21
321.886	21
322.251	21
322.616	22
322.982	23
323.347	23
323.712	24
324.078	25
324.443	26
324.808	27
325.173	27
325.539	27
325.904	28
326.269	29
326.634	29
326.999	30
327.364	31
327.729	32
328.094	33
328.459	34
328.823	34
329.188	35
329.553	36
329.918	37
330.283	38
330.647	38
331.012	38
331.377	39
331.741	40
332.106	40
332.470	41
332.835	42
333.199	43
333.564	44
333.928	44
334.293	45
334.657	46
335.021	47
335.386	48
335.750	49
336.114	50
336.478	50
336.843	52
337.207	52
337.571	53
337.935	54
338.299	55
338.663	56
339.027	57
339.391	58
339.755	59
340.119	60
340.483	62
340.846	62
341.210	64
341.574	65
341.938	66
342.301	66
342.665	67
343.029	68
343.392	69
343.756	70
344.119	71
344.483	71
344.846	72
345.210	73
345.573	74
345.937	75
346.300	76
346.663	77
347.027	77
347.390	78
347.753	79
348.116	80
348.479	80
348.843	81
349.206	82
349.569	83
349.932	83
350.295	84
350.658	85
351.021	85
351.383	86
351.746	86
352.109	87
352.472	88
352.835	88
353.197	88
353.560	88
353.923	89
354.285	90
354.648	90
355.011	91
355.373	91
355.736	91
356.098	92
356.461	92
356.823	93
357.185	93
357.548	93
357.910	93
358.272	94
358.635	94
358.997	95
359.359	95
359.721	95
360.083	95
360.445	96
360.807	96
361.169	97
361.531	97
361.893	97
362.255	97
362.617	98
362.979	98
363.341	99
363.703	99
364.064	99
364.426	100
364.788	100
365.149	101
365.511	101
365.873	101
366.234	102
366.596	102
366.957	102
367.319	102
367.680	102
368.042	103
368.403	103
368.764	103
369.126	103
369.487	103
369.848	103
370.209	103
370.570	103
370.931	102
371.293	102
371.654	102
372.015	102
372.376	101
372.737	102
373.098	102
373.458	101
373.819	101
374.180	101
374.541	101
374.902	101
375.263	101
375.623	101
375.984	101
376.345	101
376.705	102
377.066	102
377.426	102
377.787	102
378.147	102
378.508	103
378.868	103
379.228	103
379.589	104
379.949	104
380.309	104
380.670	104
381.030	104
381.390	104
381.750	105
382.110	105
382.470	105
382.830	105
383.190	105
383.550	105
383.910	105
384.270	105
384.630	106
384.990	106
385.350	106
385.709	106
386.069	106
386.429	107
386.788	106
387.148	106
387.508	106
387.867	106
388.227	107
388.586	107
388.946	107
389.305	108
389.665	108
390.024	109
390.383	109
390.743	110
391.102	110
391.461	111
391.820	111
392.179	112
392.539	112
392.898	112
393.257	112
393.616	112
393.975	112
394.334	113
394.693	114
395.051	115
395.410	115
395.769	116
396.128	116
396.487	116
396.845	117
397.204	117
397.563	117
397.921	117
398.280	117
398.638	118
398.997	117
399.355	118
399.714	118
400.072	118
400.431	119
400.789	119
401.147	120
401.506	120
401.864	120
402.222	121
402.580	121
402.938	121
403.297	121
403.655	121
404.013	121
404.371	121
404.729	122
405.087	122
405.444	122
405.802	123
406.160	123
406.518	124
406.876	124
407.233	124
407.591	124
407.949	125
408.306	125
408.664	125
409.022	125
409.379	125
409.737	126
410.094	126
410.451	127
410.809	127
411.166	128
411.523	129
411.881	129
412.238	129
412.595	130
412.952	130
413.310	131
413.667	131
414.024	131
414.381	131
414.738	132
415.095	133
415.452	133
415.809	134
416.165	135
416.522	135
416.879	136
417.236	137
417.593	138
417.949	140
418.306	141
418.663	142
419.019	144
419.376	146
419.732	148
420.089	150
420.445	151
420.802	153
421.158	154
421.514	156
421.871	157
422.227	158
422.583	159
422.939	161
423.295	162
423.652	163
424.008	164
424.364	165
424.720	166
425.076	167
425.432	167
425.788	168
426.143	169
426.499	170
426.855	171
427.211	173
427.567	174
427.922	175
428.278	176
428.634	177
428.989	178
429.345	178
429.700	180
430.056	181
430.411	182
430.767	184
431.122	185
431.478	187
431.833	188
432.188	189
432.543	190
432.899	192
433.254	193
433.609	194
433.964	194
434.319	195
434.674	196
435.029	196
435.384	198
435.739	199
436.094	201
436.449	203
436.804	206
437.158	208
437.513	211
437.868	215
438.223	218
438.577	221
438.932	225
439.287	229
439.641	232
439.996	236
440.350	240
440.704	244
441.059	248
441.413	253
441.768	257
442.122	260
442.476	265
442.830	268
443.185	273
443.539	276
443.893	280
444.247	284
444.601	287
444.955	289
445.309	292
445.663	294
446.017	296
446.371	298
446.724	300
447.078	301
447.432	303
447.786	304
448.139	305
448.493	307
448.847	307
449.200	308
449.554	309
449.907	310
450.261	311
450.614	311
450.968	312
451.321	313
451.674	315
452.027	315
452.381	317
452.734	319
453.087	320
453.440	322
453.793	324
454.146	327
454.499	330
454.852	334
455.205	338
455.558	342
455.911	346
456.264	351
456.617	355
456.970	359
457.322	363
457.675	367
458.028	371
458.380	374
458.733	377
459.086	380
459.438	383
459.791	387
460.143	392
460.496	397
460.848	402
461.200	408
461.553	415
461.905	421
462.257	427
462.609	432
462.961	437
463.314	441
463.666	445
464.018	450
464.370	453
464.722	458
465.074	462
465.426	466
465.777	470
466.129	473
466.481	476
466.833	478
467.184	480
467.536	481
467.888	482
468.239	482
468.591	483
468.943	484
469.294	485
469.646	487
469.997	490
470.348	494
470.700	498
471.051	504
471.402	511
471.754	519
472.105	527
472.456	535
472.807	545
473.158	555
473.509	567
473.860	579
474.211	591
474.562	604
474.913	617
475.264	632
475.615	646
475.966	660
476.316	674
476.667	688
477.018	702
477.368	717
477.719	731
478.070	746
478.420	759
478.771	773
479.121	786
479.472	800
479.822	814
480.172	828
480.523	845
480.873	867
481.223	903
481.573	957
481.924	1027
482.274	1105
482.624	1188
482.974	1272
483.324	1347
483.674	1405
484.024	1445
484.374	1472
484.724	1491
485.073	1503
485.423	1515
485.773	1526
486.123	1536
486.472	1547
486.822	1556
487.172	1565
487.521	1572
487.871	1577
488.220	1576
488.570	1561
488.919	1528
489.268	1479
489.618	1421
489.967	1358
490.316	1294
490.666	1236
491.015	1195
491.364	1171
491.713	1161
492.062	1159
492.411	1162
492.760	1168
493.109	1174
493.458	1181
493.807	1186
494.156	1192
494.505	1197
494.853	1202
495.202	1209
495.551	1218
495.900	1227
496.248	1236
496.597	1245
496.945	1253
497.294	1262
497.642	1272
497.991	1282
498.339	1295
498.688	1307
499.036	1319
499.384	1331
499.732	1342
500.081	1351
500.429	1359
500.777	1366
501.125	1373
501.473	1381
501.821	1389
502.169	1396
502.517	1403
502.865	1407
503.213	1411
503.561	1414
503.908	1417
504.256	1420
504.604	1421
504.952	1422
505.299	1422
505.647	1421
505.994	1418
506.342	1416
506.689	1413
507.037	1411
507.384	1411
507.732	1411
508.079	1411
508.426	1412
508.774	1413
509.121	1412
509.468	1412
509.815	1410
510.162	1410
510.509	1409
510.856	1408
511.203	1406
511.550	1405
511.897	1404
512.244	1403
512.591	1402
512.938	1401
513.284	1400
513.631	1398
513.978	1396
514.324	1394
514.671	1391
515.018	1388
515.364	1385
515.711	1384
516.057	1381
516.403	1380
516.750	1378
517.096	1374
517.443	1371
517.789	1367
518.135	1363
518.481	1360
518.827	1357
519.173	1354
519.519	1351
519.865	1348
520.211	1347
520.557	1345
520.903	1344
521.249	1343
521.595	1343
521.941	1343
522.287	1343
522.632	1342
522.978	1341
523.324	1341
523.669	1342
524.015	1344
524.360	1348
524.706	1353
525.051	1360
525.397	1368
525.742	1376
526.087	1385
526.433	1394
526.778	1402
527.123	1409
527.468	1415
527.813	1420
528.158	1424
528.504	1431
528.849	1440
529.193	1450
529.538	1462
529.883	1478
530.228	1496
530.573	1516
530.918	1537
531.263	1558
531.607	1577
531.952	1596
532.296	1611
532.641	1624
532.986	1635
533.330	1645
533.675	1655
534.019	1668
534.363	1684
534.708	1703
535.052	1725
535.396	1748
535.741	1771
536.085	1791
536.429	1810
536.773	1827
537.117	1841
537.461	1853
537.805	1864
538.149	1876
538.493	1889
538.837	1902
539.181	1918
539.524	1937
539.868	1960
540.212	1984
540.556	2010
540.899	2038
541.243	2063
541.586	2085
541.930	2103
542.273	2117
542.617	2128
542.960	2140
543.304	2155
543.647	2174
543.990	2197
544.333	2224
544.677	2251
545.020	2277
545.363	2300
545.706	2319
546.049	2334
546.392	2344
546.735	2350
547.078	2354
547.421	2359
547.764	2365
548.106	2373
548.449	2383
548.792	2398
549.135	2417
549.477	2441
549.820	2464
550.162	2485
550.505	2503
550.847	2516
551.190	2527
551.532	2536
551.875	2545
552.217	2556
552.559	2569
552.901	2586
553.244	2606
553.586	2628
553.928	2650
554.270	2671
554.612	2689
554.954	2704
555.296	2717
555.638	2730
555.980	2743
556.322	2760
556.663	2781
557.005	2809
557.347	2844
557.689	2882
558.030	2920
558.372	2955
558.713	2988
559.055	3018
559.396	3048
559.738	3080
560.079	3113
560.421	3151
560.762	3194
561.103	3242
561.444	3295
561.786	3349
562.127	3407
562.468	3469
562.809	3537
563.150	3611
563.491	3692
563.832	3782
564.173	3883
564.514	3998
564.855	4135
565.195	4301
565.536	4502
565.877	4735
566.218	5001
566.558	5302
566.899	5632
567.239	5991
567.580	6369
567.920	6758
568.261	7150
568.601	7551
568.941	7967
569.282	8395
569.622	8838
569.962	9300
570.302	9793
570.643	10306
570.983	10825
571.323	11328
571.663	11815
572.003	12279
572.343	12715
572.683	13123
573.022	13535
573.362	13970
573.702	14423
574.042	14879
574.381	15318
574.721	15734
575.061	16136
575.400	16505
575.740	16835
576.079	17126
576.419	17409
576.758	17727
577.097	18104
577.437	18521
577.776	18968
578.115	19436
578.454	19914
578.794	20361
579.133	20715
579.472	20963
579.811	21113
580.150	21170
580.489	21158
580.828	21111
581.167	21066
581.505	21041
581.844	21029
582.183	21014
582.522	21014
582.860	21026
583.199	21038
583.538	21027
583.876	20954
584.215	20795
584.553	20537
584.891	20184
585.230	19745
585.568	19253
585.906	18744
586.245	18283
586.583	17887
586.921	17561
587.259	17274
587.597	16985
587.935	16683
588.273	16369
588.611	16076
588.949	15815
589.287	15597
589.625	15428
589.963	15296
590.300	15196
590.638	15105
590.976	15003
591.313	14880
591.651	14760
591.989	14656
592.326	14572
592.664	14502
593.001	14443
593.338	14409
593.676	14394
594.013	14404
594.350	14458
594.687	14554
595.025	14664
595.362	14766
595.699	14840
596.036	14891
596.373	14909
596.710	14888
597.047	14840
597.384	14778
597.720	14707
598.057	14649
598.394	14607
598.731	14584
599.067	14584
599.404	14611
599.741	14673
600.077	14760
600.414	14858
600.750	14963
601.087	15047
601.423	15090
601.759	15098
602.096	15076
602.432	15036
602.768	14974
603.104	14886
603.440	14775
603.776	14655
604.112	14525
604.448	14394
604.784	14255
605.120	14107
605.456	13963
605.792	13813
606.128	13656
606.463	13493
606.799	13328
607.135	13177
607.470	13029
607.806	12881
608.142	12737
608.477	12599
608.812	12466
609.148	12333
609.483	12192
609.819	12048
610.154	11909
610.489	11781
610.824	11668
611.159	11576
611.494	11481
611.830	11398
612.165	11318
612.500	11229
612.834	11123
613.169	11002
613.504	10869
613.839	10722
614.174	10553
614.509	10381
614.843	10211
615.178	10049
615.512	9888
615.847	9731
616.182	9576
616.516	9420
616.850	9254
617.185	9080
617.519	8906
617.853	8718
618.188	8519
618.522	8336
618.856	8181
619.190	8048
619.524	7931
619.858	7837
620.192	7764
620.526	7701
620.860	7638
621.194	7578
621.528	7517
621.862	7458
622.195	7386
622.529	7309
622.863	7227
623.196	7147
623.530	7064
623.864	6983
624.197	6900
624.530	6818
624.864	6745
625.197	6671
625.531	6587
625.864	6485
626.197	6375
626.530	6256
626.863	6122
627.196	5976
627.529	5827
627.862	5680
628.195	5534
628.528	5391
628.861	5252
629.194	5126
629.527	5009
629.860	4893
630.192	4778
630.525	4670
630.858	4569
631.190	4475
631.523	4383
631.855	4297
632.188	4222
632.520	4152
632.852	4086
633.185	4019
633.517	3953
633.849	3895
634.182	3841
634.514	3789
634.846	3743
635.178	3702
635.510	3667
635.842	3635
636.174	3603
636.506	3571
636.837	3540
637.169	3510
637.501	3478
637.833	3443
638.164	3403
638.496	3359
638.828	3308
639.159	3252
639.491	3191
639.822	3127
640.154	3062
640.485	2998
640.816	2934
641.147	2871
641.479	2811
641.810	2752
642.141	2695
642.472	2640
642.803	2585
643.134	2533
643.465	2487
643.796	2450
644.127	2424
644.458	2409
644.789	2408
645.119	2421
645.450	2444
645.781	2471
646.111	2497
646.442	2520
646.773	2538
647.103	2553
647.433	2565
647.764	2577
648.094	2594
648.425	2615
648.755	2640
649.085	2669
649.415	2700
649.745	2733
650.075	2766
650.405	2802
650.735	2865
651.065	3310
651.395	4928
651.725	7764
652.055	11388
652.385	15007
652.715	18624
653.044	22244
653.374	25868
653.704	29498
654.033	32403
654.363	34249
654.692	35471
655.022	36254
655.351	36756
655.680	37063
656.010	37226
656.339	37299
656.668	37316
656.997	37305
657.326	37274
657.655	37205
657.984	36742
658.313	35097
658.642	32223
658.971	28551
659.300	24879
659.629	21207
659.958	17537
660.286	13866
660.615	10196
660.944	7259
661.272	5386
661.601	4139
661.929	3328
662.258	2794
662.586	2450
662.915	2242
663.243	2121
663.571	2053
663.899	2010
664.228	1984
664.556	1965
664.884	1953
665.212	1944
665.540	1938
665.868	1935
666.196	1933
666.524	1932
666.852	1933
667.179	1941
667.507	1955
667.835	1977
668.162	2005
668.490	2041
668.818	2083
669.145	2129
669.473	2173
669.800	2216
670.127	2254
670.455	2285
670.782	2311
671.109	2334
671.436	2353
671.764	2369
672.091	2382
672.418	2393
672.745	2402
673.072	2411
673.399	2422
673.726	2434
674.053	2443
674.379	2447
674.706	2446
675.033	2445
675.359	2442
675.686	2437
676.013	2434
676.339	2435
676.666	2442
676.992	2459
677.318	2484
677.645	2513
677.971	2541
678.297	2566
678.624	2591
678.950	2614
679.276	2635
679.602	2656
679.928	2677
680.254	2703
680.580	2736
680.906	2779
681.232	2832
681.558	2889
681.883	2947
682.209	3000
682.535	3049
682.860	3093
683.186	3131
683.511	3162
683.837	3181
684.162	3196
684.488	3207
684.813	3219
685.138	3231
685.464	3240
685.789	3249
686.114	3257
686.439	3268
686.764	3281
687.089	3290
687.414	3293
687.739	3284
688.064	3266
688.389	3241
688.714	3211
689.039	3179
689.363	3145
689.688	3108
690.013	3072
690.337	3039
690.662	3013
690.986	2989
691.311	2966
691.635	2942
691.959	2920
692.284	2903
692.608	2899
692.932	2904
693.256	2913
693.580	2926
693.904	2941
694.228	2961
694.552	2979
694.876	2989
695.200	2989
695.524	2977
695.848	2958
696.172	2934
696.495	2909
696.819	2883
697.143	2856
697.466	2828
697.790	2803
698.113	2786
698.437	2778
698.760	2776
699.083	2776
699.407	2769
699.730	2755
700.053	2734
700.376	2704
700.699	2661
701.022	2606
701.345	2545
701.668	2486
701.991	2437
702.314	2402
702.637	2385
702.960	2387
703.283	2410
703.605	2452
703.928	2511
704.251	2578
704.573	2646
704.896	2707
705.218	2757
705.540	2795
705.863	2826
706.185	2850
706.507	2871
706.830	2889
707.152	2909
707.474	2930
707.796	2955
708.118	2982
708.440	3008
708.762	3032
709.084	3051
709.406	3062
709.728	3065
710.049	3059
710.371	3046
710.693	3026
711.014	3004
711.336	2981
711.658	2962
711.979	2945
712.301	2930
712.622	2914
712.943	2895
713.265	2872
713.586	2847
713.907	2823
714.228	2802
714.549	2785
714.870	2774
715.191	2770
715.512	2770
715.833	2767
716.154	2761
716.475	2750
716.796	2733
717.117	2708
717.437	2678
717.758	2644
718.078	2609
718.399	2574
718.719	2543
719.040	2516
719.360	2495
719.681	2480
720.001	2472
720.321	2466
720.642	2463
720.962	2466
721.282	2472
721.602	2480
721.922	2489
722.242	2501
722.562	2518
722.882	2538
723.202	2557
723.521	2573
723.841	2591
724.161	2609
724.481	2627
724.800	2645
725.120	2668
725.439	2696
725.759	2728
726.078	2764
726.398	2808
726.717	2862
727.036	2925
727.355	2991
727.675	3056
727.994	3118
728.313	3177
728.632	3229
728.951	3272
729.270	3308
729.589	3341
729.908	3382
730.226	3429
730.545	3481
730.864	3536
731.182	3596
731.501	3658
731.820	3717
732.138	3769
732.457	3814
732.775	3855
733.093	3889
733.412	3910
733.730	3916
734.048	3908
734.367	3890
734.685	3866
735.003	3839
735.321	3814
735.639	3793
735.957	3777
736.275	3764
736.593	3745
736.910	3715
737.228	3672
737.546	3617
737.863	3551
738.181	3478
738.499	3400
738.816	3324
739.134	3249
739.451	3174
739.768	3098
740.086	3025
740.403	2957
740.720	2894
741.038	2835
741.355	2778
741.672	2721
741.989	2663
742.306	2604
742.623	2542
742.940	2481
743.257	2424
743.573	2373
743.890	2332
744.207	2302
744.523	2280
744.840	2266
745.157	2257
745.473	2255
745.790	2262
746.106	2278
746.422	2305
746.739	2337
747.055	2376
747.371	2421
747.687	2469
748.004	2515
748.320	2555
748.636	2591
748.952	2626
749.268	2662
749.584	2696
749.899	2727
750.215	2759
750.531	2795
750.847	2835
751.162	2876
751.478	2915
751.793	2955
752.109	2999
752.424	3045
752.740	3093
753.055	3146
753.370	3211
753.686	3286
754.001	3367
754.316	3453
754.631	3543
754.946	3640
755.261	3741
755.576	3840
755.891	3934
756.206	4028
756.521	4126
756.836	4226
757.150	4324
757.465	4411
757.780	4484
758.094	4546
758.409	4594
758.723	4625
759.038	4640
759.352	4640
759.667	4628
759.981	4604
760.295	4581
760.609	4562
760.923	4550
761.238	4543
761.552	4538
761.866	4531
762.180	4522
762.493	4499
762.807	4455
763.121	4385
763.435	4295
763.749	4195
764.062	4100
764.376	4020
764.689	3965
765.003	3934
765.316	3929
765.630	3941
765.943	3963
766.257	3990
766.570	4013
766.883	4020
767.196	4011
767.509	3986
767.822	3948
768.135	3899
768.448	3845
768.761	3788
769.074	3739
769.387	3700
769.700	3676
770.013	3661
770.325	3651
770.638	3635
770.950	3607
771.263	3559
771.575	3493
771.888	3408
772.200	3308
772.513	3200
772.825	3086
773.137	2970
773.449	2855
773.761	2743
774.074	2639
774.386	2546
774.698	2467
775.010	2402
775.321	2355
775.633	2324
775.945	2306
776.257	2296
776.568	2292
776.880	2297
777.192	2314
777.503	2339
777.815	2370
778.126	2410
778.438	2459
778.749	2512
779.060	2563
779.372	2612
779.683	2659
779.994	2702
780.305	2737
780.616	2761
780.927	2776
781.238	2782
781.549	2778
781.860	2761
782.171	2737
782.481	2708
782.792	2680
783.103	2652
783.413	2622
783.724	2590
784.034	2558
784.345	2529
784.655	2502
784.966	2475
785.276	2447
785.586	2419
785.896	2391
786.207	2362
786.517	2331
786.827	2301
787.137	2272
787.447	2245
787.757	2218
788.066	2193
788.376	2169
788.686	2145
788.996	2120
789.305	2096
789.615	2075
789.925	2064
790.234	2060
790.544	2065
790.853	2075
791.162	2087
791.472	2096
791.781	2101
792.090	2098
792.399	2087
792.708	2067
793.017	2045
793.326	2023
793.635	2003
793.944	1985
794.253	1968
794.562	1956
794.871	1949
795.179	1943
795.488	1937
795.797	1926
796.105	1910
796.414	1882
796.722	1844
797.031	1796
797.339	1737
797.647	1670
797.956	1600
798.264	1534
798.572	1479
798.880	1435
799.188	1403
799.496	1380
799.804	1363
800.112	1350
800.420	1339
800.728	1328
801.035	1315
801.343	1299
801.651	1286
801.958	1282
802.266	1286
802.573	1297
802.881	1310
803.188	1327
803.496	1346
803.803	1366
804.110	1384
804.417	1400
804.724	1414
805.032	1427
805.339	1439
805.646	1446
805.953	1450
806.259	1451
806.566	1449
806.873	1444
807.180	1437
807.486	1429
807.793	1420
808.100	1406
808.406	1384
808.713	1353
809.019	1316
809.326	1279
809.632	1243
809.938	1209
810.244	1178
810.551	1152
810.857	1130
811.163	1111
811.469	1092
811.775	1070
812.081	1049
812.387	1028
812.692	1012
812.998	1000
813.304	990
813.610	981
813.915	975
814.221	970
814.526	965
814.832	961
815.137	957
815.443	952
815.748	942
816.053	930
816.358	917
816.664	905
816.969	894
817.274	884
817.579	876
817.884	871
818.189	869
818.493	869
818.798	867
819.103	862
819.408	853
819.712	843
820.017	833
820.321	821
820.626	810
820.930	799
821.235	792
821.539	789
821.843	788
822.148	791
822.452	792
822.756	792
823.060	790
823.364	785
823.668	779
823.972	771
824.276	763
824.580	756
824.883	752
825.187	751
825.491	751
825.795	751
826.098	752
826.402	751
826.705	748
827.008	743
827.312	736
827.615	724
827.918	709
828.222	692
828.525	674
828.828	658
829.131	641
829.434	624
829.737	609
830.040	596
830.343	586
830.645	577
830.948	568
831.251	559
831.553	551
831.856	545
832.159	539
832.461	532
832.764	524
833.066	517
833.368	510
833.671	506
833.973	502
834.275	498
834.577	495
834.879	491
835.181	486
835.483	481
835.785	474
836.087	466
836.389	456
836.690	444
836.992	432
837.294	419
837.595	406
837.897	392
838.198	378
838.500	364
838.801	352
839.103	342
839.404	333
839.705	325
840.006	319
840.307	314
840.608	310
840.910	307
841.210	306
841.511	303
841.812	300
842.113	297
842.414	293
842.715	287
843.015	281
843.316	275
843.616	269
843.917	264
844.217	259
844.518	255
844.818	252
845.118	250
845.419	249
845.719	247
846.019	246
846.319	245
846.619	244
846.919	243
847.219	242
847.519	240
847.819	239
848.118	239
848.418	241
848.718	248
849.017	260
849.317	276
849.616	297
849.916	320
850.215	346
850.515	374
850.814	403
851.113	429
851.412	452
851.712	473
852.011	493
852.310	512
852.609	529
852.908	543
853.206	556
853.505	567
853.804	578
854.103	588
854.401	594
854.700	598
854.999	596
855.297	590
855.595	578
855.894	562
856.192	542
856.491	519
856.789	494
857.087	468
857.385	443
857.683	420
857.981	400
858.279	382
858.577	364
858.875	348
859.173	335
859.471	325
859.768	316
860.066	309
860.363	302
860.661	297
860.959	293
861.256	289
861.553	285
861.851	279
862.148	273
862.445	268
862.742	263
863.039	258
863.337	255
863.634	252
863.931	249
864.227	248
864.524	247
864.821	247
865.118	246
865.415	245
865.711	242
866.008	238
866.304	233
866.601	229
866.897	224
867.194	221
867.490	219
867.786	217
868.082	217
868.379	218
868.675	218
868.971	218
869.267	219
869.563	219
869.859	218
870.154	218
870.450	217
870.746	215
871.042	214
871.337	214
871.633	214
871.928	215
872.224	216
872.519	218
872.815	220
873.110	221
873.405	221
873.700	220
873.995	219
874.291	219
874.586	219
874.881	221
875.175	223
875.470	226
875.765	230
876.060	234
876.355	239
876.649	244
876.944	249
877.238	253
877.533	257
877.827	260
878.122	263
878.416	263
878.710	263
879.005	263
879.299	262
879.593	261
879.887	260
880.181	259
880.475	258
880.769	256
881.063	254
881.356	251
881.650	247
881.944	244
882.238	206
882.531	194
882.825	193
883.118	196
883.412	191
883.705	194
883.998	195
884.291	199
884.585	206
884.878	215
>>>>>>>>>> END of Data <<<<<<<<<<