Date	2021年06月15日火曜日 04時18分40秒
Spectrometers	USB2+H05879
ダーク	使用
リファレンス	使用
積分時間[msec]	10
平均回数	280
ｽﾑｰｼﾞﾝｸﾞ	10
Electrical Dark	USE
ピクセル数	2048
計測モード	吸光度
保存開始波長[nm]	190.664
保存終了波長[nm]	884.878
保存ﾋﾟｯﾁ波長[nm]	全波長

>>>>>>>>>> Data Start <<<<<<<<<<<<
190.664	0.000000
191.040	0.000000
191.415	0.000000
191.791	-2.398113
192.166	-0.239776
192.542	-0.988378
192.917	0.000000
193.293	-0.433006
193.668	-0.575831
194.044	-1.135387
194.419	0.000000
194.794	-1.365697
195.170	-1.292363
195.545	-1.213118
195.920	-1.085949
196.296	-0.979115
196.671	-0.818572
197.046	-0.669080
197.421	-0.622653
197.796	-0.610970
198.171	-0.570686
198.546	-0.528243
198.922	-0.475710
199.297	-0.443866
199.672	-0.417303
200.047	-0.391277
200.422	-0.364415
200.796	-0.354847
201.171	-0.335257
201.546	-0.333910
201.921	-0.319749
202.296	-0.314457
202.671	-0.289435
203.045	-0.267236
203.420	-0.252550
203.795	-0.239918
204.170	-0.231720
204.544	-0.222863
204.919	-0.222862
205.294	-0.216354
205.668	-0.206592
206.043	-0.191438
206.417	-0.201163
206.792	-0.200988
207.166	-0.196283
207.541	-0.194814
207.915	-0.206321
208.289	-0.187976
208.664	-0.186763
209.038	-0.187749
209.412	-0.171226
209.787	-0.157996
210.161	-0.144966
210.535	-0.155810
210.909	-0.141558
211.284	-0.133859
211.658	-0.134963
212.032	-0.136460
212.406	-0.142521
212.780	-0.140544
213.154	-0.134585
213.528	-0.128698
213.902	-0.125696
214.276	-0.107930
214.650	-0.113612
215.024	-0.111069
215.398	-0.105692
215.772	-0.094000
216.145	-0.102503
216.519	-0.090879
216.893	-0.081142
217.267	-0.081748
217.640	-0.094749
218.014	-0.085650
218.388	-0.071430
218.761	-0.084603
219.135	-0.079206
219.508	-0.079902
219.882	-0.086034
220.256	-0.084454
220.629	-0.071582
221.003	-0.071643
221.376	-0.075313
221.749	-0.079653
222.123	-0.084800
222.496	-0.078433
222.869	-0.077756
223.243	-0.079172
223.616	-0.078770
223.989	-0.084883
224.362	-0.080954
224.736	-0.087957
225.109	-0.086832
225.482	-0.083505
225.855	-0.084930
226.228	-0.094571
226.601	-0.089114
226.974	-0.086386
227.347	-0.072770
227.720	-0.069280
228.093	-0.070807
228.466	-0.083863
228.839	-0.086160
229.212	-0.089420
229.585	-0.105793
229.957	-0.109341
230.330	-0.100991
230.703	-0.096913
231.076	-0.101764
231.448	-0.109781
231.821	-0.106999
232.194	-0.106859
232.566	-0.108329
232.939	-0.110253
233.311	-0.114346
233.684	-0.113327
234.056	-0.106566
234.429	-0.108121
234.801	-0.119044
235.174	-0.124588
235.546	-0.124996
235.918	-0.120291
236.291	-0.116134
236.663	-0.109489
237.035	-0.106242
237.408	-0.088984
237.780	-0.074948
238.152	-0.079941
238.524	-0.084308
238.896	-0.078353
239.268	-0.070692
239.641	-0.070700
240.013	-0.068344
240.385	-0.062650
240.757	-0.057066
241.129	-0.046620
241.500	-0.049396
241.872	-0.044343
242.244	-0.039114
242.616	-0.036074
242.988	-0.038509
243.360	-0.033507
243.731	-0.029720
244.103	-0.025112
244.475	-0.030926
244.847	-0.024447
245.218	-0.023294
245.590	-0.024924
245.961	-0.018643
246.333	-0.013175
246.705	-0.013408
247.076	-0.010632
247.448	-0.007906
247.819	-0.011649
248.190	-0.002699
248.562	-0.007374
248.933	-0.008633
249.305	-0.006306
249.676	-0.005803
250.047	-0.008009
250.418	-0.005185
250.790	-0.000396
251.161	0.008834
251.532	0.010615
251.903	0.009562
252.274	0.021753
252.645	0.026758
253.016	0.017681
253.387	0.011171
253.758	0.008561
254.129	0.011116
254.500	0.012955
254.871	0.010768
255.242	0.004323
255.613	0.002361
255.984	-0.004681
256.355	-0.007188
256.725	-0.006357
257.096	-0.003527
257.467	-0.004360
257.838	-0.004282
258.208	-0.007867
258.579	-0.005420
258.949	-0.010706
259.320	-0.014416
259.690	-0.010876
260.061	-0.016437
260.431	-0.017352
260.802	-0.008419
261.172	-0.008286
261.543	-0.011891
261.913	-0.014369
262.283	-0.014194
262.654	-0.016100
263.024	-0.011957
263.394	-0.008074
263.764	-0.006599
264.135	-0.000644
264.505	-0.002511
264.875	0.000439
265.245	0.001397
265.615	0.003961
265.985	0.011114
266.355	0.011451
266.725	0.006227
267.095	0.008110
267.465	0.006812
267.835	0.005584
268.205	0.001596
268.575	0.002591
268.944	0.008028
269.314	0.010227
269.684	0.013358
270.054	0.007690
270.423	0.011421
270.793	0.017128
271.163	0.022230
271.532	0.022468
271.902	0.026088
272.271	0.025822
272.641	0.021715
273.010	0.013383
273.380	0.009209
273.749	0.004459
274.119	0.005579
274.488	0.018304
274.857	0.023023
275.227	0.026330
275.596	0.029273
275.965	0.031497
276.335	0.028180
276.704	0.016262
277.073	0.014715
277.442	0.013933
277.811	0.016313
278.180	0.021851
278.549	0.016902
278.918	0.012444
279.287	0.009874
279.656	0.010116
280.025	0.010475
280.394	0.009661
280.763	0.018790
281.132	0.026070
281.501	0.032936
281.869	0.028882
282.238	0.025520
282.607	0.018594
282.976	0.016251
283.344	0.016722
283.713	0.008871
284.081	0.014410
284.450	0.029318
284.819	0.036910
285.187	0.039986
285.556	0.044212
285.924	0.036399
286.292	0.039210
286.661	0.039434
287.029	0.043745
287.398	0.041973
287.766	0.043453
288.134	0.040398
288.502	0.037616
288.871	0.037349
289.239	0.038616
289.607	0.041349
289.975	0.038937
290.343	0.046607
290.711	0.050342
291.079	0.049540
291.447	0.061466
291.815	0.059118
292.183	0.062198
292.551	0.062242
292.919	0.062061
293.287	0.065852
293.655	0.071506
294.022	0.069858
294.390	0.077469
294.758	0.078895
295.126	0.080340
295.493	0.081407
295.861	0.090826
296.229	0.088443
296.596	0.089268
296.964	0.083025
297.331	0.089258
297.699	0.095425
298.066	0.096420
298.434	0.090817
298.801	0.089514
299.168	0.083153
299.536	0.086545
299.903	0.083297
300.270	0.086390
300.638	0.087941
301.005	0.095924
301.372	0.101945
301.739	0.108562
302.106	0.110666
302.473	0.125748
302.840	0.127354
303.207	0.143754
303.574	0.152091
303.941	0.167682
304.308	0.182016
304.675	0.197897
305.042	0.213018
305.409	0.228955
305.776	0.242157
306.143	0.266729
306.509	0.286740
306.876	0.320710
307.243	0.340003
307.610	0.368708
307.976	0.386169
308.343	0.413275
308.709	0.440907
309.076	0.471699
309.442	0.503221
309.809	0.530663
310.175	0.552919
310.542	0.584419
310.908	0.605370
311.275	0.628645
311.641	0.658926
312.007	0.683967
312.373	0.708435
312.740	0.728744
313.106	0.750658
313.472	0.780097
313.838	0.803134
314.204	0.828379
314.570	0.840924
314.936	0.864937
315.302	0.878856
315.668	0.904037
316.034	0.926498
316.400	0.948167
316.766	0.962536
317.132	0.982019
317.498	1.000748
317.864	1.011258
318.230	1.022355
318.595	1.036391
318.961	1.049207
319.327	1.062098
319.692	1.069774
320.058	1.077839
320.424	1.085784
320.789	1.097103
321.155	1.109514
321.520	1.118018
321.886	1.130389
322.251	1.139303
322.616	1.146111
322.982	1.156213
323.347	1.159291
323.712	1.166410
324.078	1.169156
324.443	1.172713
324.808	1.175477
325.173	1.179139
325.539	1.185547
325.904	1.193204
326.269	1.195572
326.634	1.199174
326.999	1.199752
327.364	1.202985
327.729	1.205700
328.094	1.208985
328.459	1.211087
328.823	1.211570
329.188	1.214945
329.553	1.213646
329.918	1.215716
330.283	1.217384
330.647	1.217565
331.012	1.220015
331.377	1.220324
331.741	1.218794
332.106	1.219729
332.470	1.220607
332.835	1.221689
333.199	1.222610
333.564	1.221867
333.928	1.223584
334.293	1.223599
334.657	1.224384
335.021	1.224817
335.386	1.225665
335.750	1.225552
336.114	1.223998
336.478	1.223935
336.843	1.222607
337.207	1.222860
337.571	1.223631
337.935	1.223380
338.299	1.223105
338.663	1.221958
339.027	1.221852
339.391	1.223364
339.755	1.223578
340.119	1.222663
340.483	1.221885
340.846	1.222163
341.210	1.223257
341.574	1.222749
341.938	1.222784
342.301	1.223059
342.665	1.223251
343.029	1.223492
343.392	1.224775
343.756	1.225853
344.119	1.226204
344.483	1.226841
344.846	1.227768
345.210	1.227584
345.573	1.227736
345.937	1.228050
346.300	1.228639
346.663	1.228821
347.027	1.229202
347.390	1.229459
347.753	1.229950
348.116	1.230185
348.479	1.231046
348.843	1.230202
349.206	1.230376
349.569	1.230887
349.932	1.231412
350.295	1.231798
350.658	1.232215
351.021	1.232509
351.383	1.233331
351.746	1.233569
352.109	1.234226
352.472	1.234657
352.835	1.235019
353.197	1.235522
353.560	1.236453
353.923	1.236704
354.285	1.237188
354.648	1.237040
355.011	1.237566
355.373	1.238437
355.736	1.238735
356.098	1.238256
356.461	1.239534
356.823	1.239794
357.185	1.240577
357.548	1.240679
357.910	1.241356
358.272	1.241585
358.635	1.241077
358.997	1.240927
359.359	1.241708
359.721	1.242229
360.083	1.242598
360.445	1.243384
360.807	1.244164
361.169	1.244435
361.531	1.245610
361.893	1.246182
362.255	1.247759
362.617	1.248391
362.979	1.249187
363.341	1.249747
363.703	1.250675
364.064	1.250978
364.426	1.251504
364.788	1.251598
365.149	1.252687
365.511	1.253191
365.873	1.253971
366.234	1.255204
366.596	1.256331
366.957	1.256446
367.319	1.257031
367.680	1.257402
368.042	1.257064
368.403	1.257685
368.764	1.258668
369.126	1.259023
369.487	1.259842
369.848	1.259592
370.209	1.260347
370.570	1.260453
370.931	1.261287
371.293	1.261449
371.654	1.261947
372.015	1.263537
372.376	1.264582
372.737	1.264952
373.098	1.265289
373.458	1.266146
373.819	1.266642
374.180	1.267070
374.541	1.267575
374.902	1.268052
375.263	1.268751
375.623	1.269723
375.984	1.270475
376.345	1.270264
376.705	1.270354
377.066	1.270841
377.426	1.271471
377.787	1.271710
378.147	1.272100
378.508	1.272278
378.868	1.273223
379.228	1.273510
379.589	1.273264
379.949	1.273684
380.309	1.274316
380.670	1.274998
381.030	1.275188
381.390	1.275848
381.750	1.276096
382.110	1.276447
382.470	1.277024
382.830	1.277039
383.190	1.277779
383.550	1.277825
383.910	1.278796
384.270	1.279504
384.630	1.279774
384.990	1.280124
385.350	1.280448
385.709	1.280739
386.069	1.281134
386.429	1.280649
386.788	1.281348
387.148	1.281848
387.508	1.282110
387.867	1.281995
388.227	1.282015
388.586	1.281878
388.946	1.282340
389.305	1.282470
389.665	1.282304
390.024	1.282310
390.383	1.282742
390.743	1.282353
391.102	1.282058
391.461	1.281509
391.820	1.281590
392.179	1.280898
392.539	1.280722
392.898	1.280630
393.257	1.280619
393.616	1.280685
393.975	1.280422
394.334	1.280307
394.693	1.280071
395.051	1.280022
395.410	1.279907
395.769	1.279587
396.128	1.279495
396.487	1.278765
396.845	1.278073
397.204	1.277855
397.563	1.276858
397.921	1.276213
398.280	1.275511
398.638	1.274650
398.997	1.274201
399.355	1.273213
399.714	1.272637
400.072	1.271481
400.431	1.270560
400.789	1.269808
401.147	1.268733
401.506	1.267971
401.864	1.266742
402.222	1.265550
402.580	1.263712
402.938	1.262486
403.297	1.261110
403.655	1.259782
404.013	1.258660
404.371	1.257711
404.729	1.256437
405.087	1.255375
405.444	1.253972
405.802	1.252623
406.160	1.251600
406.518	1.250113
406.876	1.248515
407.233	1.247362
407.591	1.246175
407.949	1.244848
408.306	1.243274
408.664	1.241718
409.022	1.240247
409.379	1.238758
409.737	1.236835
410.094	1.235549
410.451	1.233933
410.809	1.232570
411.166	1.230870
411.523	1.229092
411.881	1.227593
412.238	1.226167
412.595	1.224380
412.952	1.222852
413.310	1.221347
413.667	1.219890
414.024	1.218787
414.381	1.217123
414.738	1.215283
415.095	1.213510
415.452	1.212018
415.809	1.210111
416.165	1.208598
416.522	1.206921
416.879	1.204692
417.236	1.202910
417.593	1.200879
417.949	1.198918
418.306	1.197090
418.663	1.195900
419.019	1.193862
419.376	1.191872
419.732	1.189735
420.089	1.188184
420.445	1.186402
420.802	1.184557
421.158	1.182362
421.514	1.180378
421.871	1.178746
422.227	1.176817
422.583	1.175330
422.939	1.172968
423.295	1.171154
423.652	1.169127
424.008	1.166963
424.364	1.165185
424.720	1.163329
425.076	1.161348
425.432	1.159032
425.788	1.156777
426.143	1.153970
426.499	1.151813
426.855	1.149638
427.211	1.147725
427.567	1.145552
427.922	1.143347
428.278	1.140842
428.634	1.138939
428.989	1.136379
429.345	1.134233
429.700	1.131917
430.056	1.129625
430.411	1.127706
430.767	1.125499
431.122	1.123146
431.478	1.120937
431.833	1.118406
432.188	1.115823
432.543	1.113332
432.899	1.110884
433.254	1.108059
433.609	1.105373
433.964	1.102790
434.319	1.099898
434.674	1.096613
435.029	1.093655
435.384	1.090758
435.739	1.088193
436.094	1.085475
436.449	1.083113
436.804	1.080276
437.158	1.077637
437.513	1.074921
437.868	1.071959
438.223	1.069234
438.577	1.066379
438.932	1.063834
439.287	1.061000
439.641	1.058278
439.996	1.055345
440.350	1.052581
440.704	1.050047
441.059	1.047405
441.413	1.044352
441.768	1.041331
442.122	1.038978
442.476	1.036171
442.830	1.033431
443.185	1.030732
443.539	1.028043
443.893	1.025224
444.247	1.022492
444.601	1.019819
444.955	1.016662
445.309	1.013726
445.663	1.010532
446.017	1.007510
446.371	1.004198
446.724	1.001125
447.078	0.998011
447.432	0.995147
447.786	0.992177
448.139	0.988853
448.493	0.985673
448.847	0.982511
449.200	0.979388
449.554	0.976310
449.907	0.973208
450.261	0.970015
450.614	0.966768
450.968	0.963486
451.321	0.960176
451.674	0.956980
452.027	0.953588
452.381	0.950602
452.734	0.947503
453.087	0.944514
453.440	0.941111
453.793	0.937877
454.146	0.934780
454.499	0.931832
454.852	0.928738
455.205	0.925517
455.558	0.922536
455.911	0.919602
456.264	0.916664
456.617	0.913912
456.970	0.910979
457.322	0.908169
457.675	0.905537
458.028	0.903071
458.380	0.900515
458.733	0.897881
459.086	0.895279
459.438	0.892805
459.791	0.890088
460.143	0.887438
460.496	0.884696
460.848	0.882182
461.200	0.879417
461.553	0.876766
461.905	0.873998
462.257	0.871229
462.609	0.868618
462.961	0.866172
463.314	0.863709
463.666	0.861286
464.018	0.858831
464.370	0.856430
464.722	0.854100
465.074	0.851575
465.426	0.849091
465.777	0.846828
466.129	0.844612
466.481	0.842397
466.833	0.840216
467.184	0.838163
467.536	0.835807
467.888	0.833514
468.239	0.831109
468.591	0.828694
468.943	0.825966
469.294	0.823246
469.646	0.820555
469.997	0.817909
470.348	0.815410
470.700	0.812754
471.051	0.810338
471.402	0.807827
471.754	0.805424
472.105	0.803066
472.456	0.800898
472.807	0.798805
473.158	0.796798
473.509	0.794832
473.860	0.792772
474.211	0.790827
474.562	0.788733
474.913	0.786805
475.264	0.784796
475.615	0.782853
475.966	0.780964
476.316	0.779043
476.667	0.777141
477.018	0.775237
477.368	0.773318
477.719	0.771375
478.070	0.769550
478.420	0.767630
478.771	0.765696
479.121	0.763819
479.472	0.762022
479.822	0.760136
480.172	0.758351
480.523	0.756353
480.873	0.754152
481.223	0.751704
481.573	0.749231
481.924	0.746748
482.274	0.744291
482.624	0.742095
482.974	0.740207
483.324	0.738691
483.674	0.737421
484.024	0.736169
484.374	0.735023
484.724	0.733878
485.073	0.732653
485.423	0.731481
485.773	0.730250
486.123	0.729132
486.472	0.727881
486.822	0.726658
487.172	0.725505
487.521	0.724264
487.871	0.723096
488.220	0.721883
488.570	0.720677
488.919	0.719129
489.268	0.717401
489.618	0.715530
489.967	0.713400
490.316	0.710920
490.666	0.708122
491.015	0.705459
491.364	0.703045
491.713	0.700742
492.062	0.698612
492.411	0.696640
492.760	0.694695
493.109	0.692786
493.458	0.690889
493.807	0.689134
494.156	0.687245
494.505	0.685287
494.853	0.683438
495.202	0.681454
495.551	0.679591
495.900	0.677630
496.248	0.675692
496.597	0.673750
496.945	0.671905
497.294	0.670024
497.642	0.668124
497.991	0.666318
498.339	0.664415
498.688	0.662627
499.036	0.660941
499.384	0.659288
499.732	0.657516
500.081	0.655757
500.429	0.653989
500.777	0.652231
501.125	0.650499
501.473	0.648879
501.821	0.647301
502.169	0.645667
502.517	0.644077
502.865	0.642495
503.213	0.640902
503.561	0.639373
503.908	0.637882
504.256	0.636324
504.604	0.634765
504.952	0.633260
505.299	0.631642
505.647	0.630062
505.994	0.628468
506.342	0.626810
506.689	0.625075
507.037	0.623544
507.384	0.621999
507.732	0.620538
508.079	0.619154
508.426	0.617655
508.774	0.616174
509.121	0.614742
509.468	0.613318
509.815	0.611877
510.162	0.610451
510.509	0.609099
510.856	0.607671
511.203	0.606298
511.550	0.604902
511.897	0.603578
512.244	0.602217
512.591	0.600824
512.938	0.599465
513.284	0.598110
513.631	0.596767
513.978	0.595414
514.324	0.594043
514.671	0.592607
515.018	0.591217
515.364	0.589721
515.711	0.588433
516.057	0.587050
516.403	0.585668
516.750	0.584351
517.096	0.583117
517.443	0.581840
517.789	0.580502
518.135	0.579271
518.481	0.577946
518.827	0.576624
519.173	0.575249
519.519	0.573930
519.865	0.572661
520.211	0.571459
520.557	0.570177
520.903	0.568873
521.249	0.567587
521.595	0.566284
521.941	0.565020
522.287	0.563594
522.632	0.562200
522.978	0.560795
523.324	0.559335
523.669	0.557954
524.015	0.556481
524.360	0.554939
524.706	0.553460
525.051	0.552056
525.397	0.550638
525.742	0.549297
526.087	0.547970
526.433	0.546694
526.778	0.545409
527.123	0.544171
527.468	0.542736
527.813	0.541404
528.158	0.539983
528.504	0.538607
528.849	0.537076
529.193	0.535633
529.538	0.534263
529.883	0.532843
530.228	0.531286
530.573	0.529826
530.918	0.528371
531.263	0.526911
531.607	0.525556
531.952	0.524218
532.296	0.522747
532.641	0.521369
532.986	0.519880
533.330	0.518390
533.675	0.516906
534.019	0.515382
534.363	0.513879
534.708	0.512375
535.052	0.510897
535.396	0.509562
535.741	0.508188
536.085	0.506764
536.429	0.505215
536.773	0.503722
537.117	0.502140
537.461	0.500535
537.805	0.498797
538.149	0.496955
538.493	0.495166
538.837	0.493404
539.181	0.491520
539.524	0.489791
539.868	0.487965
540.212	0.486229
540.556	0.484432
540.899	0.482614
541.243	0.480850
541.586	0.479033
541.930	0.477238
542.273	0.475380
542.617	0.473382
542.960	0.471389
543.304	0.469392
543.647	0.467357
543.990	0.465264
544.333	0.463196
544.677	0.461221
545.020	0.459284
545.363	0.457309
545.706	0.455390
546.049	0.453389
546.392	0.451449
546.735	0.449442
547.078	0.447350
547.421	0.445187
547.764	0.443027
548.106	0.440828
548.449	0.438554
548.792	0.436251
549.135	0.433977
549.477	0.431674
549.820	0.429546
550.162	0.427374
550.505	0.425183
550.847	0.423024
551.190	0.420694
551.532	0.418346
551.875	0.415791
552.217	0.413216
552.559	0.410717
552.901	0.408218
553.244	0.405801
553.586	0.403425
553.928	0.401101
554.270	0.398904
554.612	0.396721
554.954	0.394525
555.296	0.392265
555.638	0.389930
555.980	0.387449
556.322	0.384871
556.663	0.382170
557.005	0.379389
557.347	0.376695
557.689	0.374045
558.030	0.371417
558.372	0.368882
558.713	0.366335
559.055	0.363788
559.396	0.361236
559.738	0.358672
560.079	0.356020
560.421	0.353417
560.762	0.350840
561.103	0.348334
561.444	0.345823
561.786	0.343384
562.127	0.340990
562.468	0.338508
562.809	0.336006
563.150	0.333429
563.491	0.330820
563.832	0.328152
564.173	0.325322
564.514	0.322414
564.855	0.319451
565.195	0.316369
565.536	0.313362
565.877	0.310344
566.218	0.307430
566.558	0.304605
566.899	0.301863
567.239	0.299277
567.580	0.296898
567.920	0.294730
568.261	0.292722
568.601	0.290794
568.941	0.288973
569.282	0.287279
569.622	0.285597
569.962	0.283927
570.302	0.282310
570.643	0.280743
570.983	0.279283
571.323	0.277888
571.663	0.276530
572.003	0.275174
572.343	0.273824
572.683	0.272344
573.022	0.270798
573.362	0.269188
573.702	0.267612
574.042	0.266038
574.381	0.264525
574.721	0.263060
575.061	0.261642
575.400	0.260318
575.740	0.259036
576.079	0.257738
576.419	0.256312
576.758	0.254820
577.097	0.253267
577.437	0.251651
577.776	0.249988
578.115	0.248346
578.454	0.246803
578.794	0.245436
579.133	0.244226
579.472	0.243142
579.811	0.242130
580.150	0.241125
580.489	0.240093
580.828	0.238938
581.167	0.237763
581.505	0.236572
581.844	0.235387
582.183	0.234195
582.522	0.232988
582.860	0.231821
583.199	0.230714
583.538	0.229706
583.876	0.228734
584.215	0.227789
584.553	0.226836
584.891	0.225900
585.230	0.224947
585.568	0.223922
585.906	0.222817
586.245	0.221692
586.583	0.220586
586.921	0.219584
587.259	0.218713
587.597	0.217881
587.935	0.217042
588.273	0.216128
588.611	0.215052
588.949	0.213895
589.287	0.212693
589.625	0.211519
589.963	0.210394
590.300	0.209334
590.638	0.208319
590.976	0.207351
591.313	0.206347
591.651	0.205344
591.989	0.204354
592.326	0.203392
592.664	0.202544
593.001	0.201715
593.338	0.200958
593.676	0.200268
594.013	0.199578
594.350	0.198894
594.687	0.198264
595.025	0.197689
595.362	0.197091
595.699	0.196482
596.036	0.195850
596.373	0.195222
596.710	0.194564
597.047	0.193866
597.384	0.193160
597.720	0.192453
598.057	0.191755
598.394	0.191052
598.731	0.190357
599.067	0.189669
599.404	0.188954
599.741	0.188249
600.077	0.187587
600.414	0.186965
600.750	0.186397
601.087	0.185915
601.423	0.185383
601.759	0.184841
602.096	0.184263
602.432	0.183727
602.768	0.183195
603.104	0.182671
603.440	0.182119
603.776	0.181604
604.112	0.181097
604.448	0.180631
604.784	0.180171
605.120	0.179717
605.456	0.179286
605.792	0.178873
606.128	0.178443
606.463	0.178016
606.799	0.177558
607.135	0.177111
607.470	0.176702
607.806	0.176252
608.142	0.175791
608.477	0.175381
608.812	0.174952
609.148	0.174557
609.483	0.174135
609.819	0.173722
610.154	0.173248
610.489	0.172810
610.824	0.172354
611.159	0.171946
611.494	0.171509
611.830	0.171147
612.165	0.170832
612.500	0.170526
612.834	0.170213
613.169	0.169924
613.504	0.169595
613.839	0.169260
614.174	0.168896
614.509	0.168484
614.843	0.168095
615.178	0.167729
615.512	0.167381
615.847	0.167036
616.182	0.166736
616.516	0.166467
616.850	0.166200
617.185	0.165947
617.519	0.165670
617.853	0.165413
618.188	0.165045
618.522	0.164645
618.856	0.164202
619.190	0.163737
619.524	0.163327
619.858	0.162927
620.192	0.162559
620.526	0.162227
620.860	0.161969
621.194	0.161675
621.528	0.161395
621.862	0.161104
622.195	0.160845
622.529	0.160507
622.863	0.160226
623.196	0.159892
623.530	0.159602
623.864	0.159290
624.197	0.159010
624.530	0.158712
624.864	0.158433
625.197	0.158226
625.531	0.157991
625.864	0.157709
626.197	0.157423
626.530	0.157157
626.863	0.156837
627.196	0.156471
627.529	0.156169
627.862	0.155779
628.195	0.155439
628.528	0.155075
628.861	0.154722
629.194	0.154349
629.527	0.154061
629.860	0.153744
630.192	0.153436
630.525	0.153032
630.858	0.152684
631.190	0.152296
631.523	0.151938
631.855	0.151421
632.188	0.150934
632.520	0.150555
632.852	0.150241
633.185	0.149925
633.517	0.149515
633.849	0.149191
634.182	0.148927
634.514	0.148706
634.846	0.148516
635.178	0.148297
635.510	0.148116
635.842	0.147898
636.174	0.147638
636.506	0.147380
636.837	0.147171
637.169	0.146924
637.501	0.146667
637.833	0.146501
638.164	0.146295
638.496	0.146029
638.828	0.145783
639.159	0.145500
639.491	0.145168
639.822	0.144788
640.154	0.144373
640.485	0.143932
640.816	0.143464
641.147	0.143056
641.479	0.142533
641.810	0.142052
642.141	0.141526
642.472	0.141039
642.803	0.140595
643.134	0.140116
643.465	0.139651
643.796	0.139221
644.127	0.138924
644.458	0.138626
644.789	0.138323
645.119	0.138195
645.450	0.138158
645.781	0.138247
646.111	0.138454
646.442	0.138579
646.773	0.138639
647.103	0.138662
647.433	0.138650
647.764	0.138592
648.094	0.138479
648.425	0.138478
648.755	0.138395
649.085	0.138366
649.415	0.138343
649.745	0.138413
650.075	0.138465
650.405	0.138434
650.735	0.137025
651.065	0.128452
651.395	0.120890
651.725	0.108308
652.055	0.074111
652.385	0.054944
652.715	0.042662
653.044	0.034122
653.374	0.027868
653.704	0.023105
654.033	0.032089
654.363	0.038265
654.692	0.041828
655.022	0.043923
655.351	0.045188
655.680	0.045924
656.010	0.046316
656.339	0.046484
656.668	0.046511
656.997	0.046468
657.326	0.046377
657.655	0.046253
657.984	0.045586
658.313	0.042203
658.642	0.037929
658.971	0.043855
659.300	0.051435
659.629	0.061485
659.958	0.075443
660.286	0.096149
660.615	0.130125
660.944	0.133154
661.272	0.131331
661.601	0.130276
661.929	0.129899
662.258	0.129955
662.586	0.130291
662.915	0.130417
663.243	0.130317
663.571	0.130080
663.899	0.129811
664.228	0.129589
664.556	0.129483
664.884	0.129261
665.212	0.129111
665.540	0.128964
665.868	0.128769
666.196	0.128593
666.524	0.128526
666.852	0.128431
667.179	0.128316
667.507	0.128201
667.835	0.128108
668.162	0.128025
668.490	0.127957
668.818	0.127984
669.145	0.127927
669.473	0.127987
669.800	0.128092
670.127	0.128116
670.455	0.128109
670.782	0.128153
671.109	0.128116
671.436	0.128059
671.764	0.128085
672.091	0.128033
672.418	0.127991
672.745	0.128008
673.072	0.128044
673.399	0.127906
673.726	0.127727
674.053	0.127618
674.379	0.127573
674.706	0.127467
675.033	0.127224
675.359	0.127086
675.686	0.126830
676.013	0.126677
676.339	0.126417
676.666	0.126162
676.992	0.126058
677.318	0.125896
677.645	0.125667
677.971	0.125633
678.297	0.125605
678.624	0.125576
678.950	0.125489
679.276	0.125380
679.602	0.125212
679.928	0.124995
680.254	0.124808
680.580	0.124722
680.906	0.124644
681.232	0.124502
681.558	0.124569
681.883	0.124676
682.209	0.124779
682.535	0.124774
682.860	0.124798
683.186	0.124842
683.511	0.124835
683.837	0.124645
684.162	0.124602
684.488	0.124571
684.813	0.124466
685.138	0.124318
685.464	0.124173
685.789	0.124038
686.114	0.123942
686.439	0.123848
686.764	0.123804
687.089	0.123756
687.414	0.123673
687.739	0.123682
688.064	0.123709
688.389	0.123605
688.714	0.123488
689.039	0.123264
689.363	0.123135
689.688	0.123023
690.013	0.122808
690.337	0.122702
690.662	0.122709
690.986	0.122670
691.311	0.122597
691.635	0.122485
691.959	0.122388
692.284	0.122158
692.608	0.121959
692.932	0.121828
693.256	0.121802
693.580	0.121803
693.904	0.121828
694.228	0.121913
694.552	0.121925
694.876	0.121917
695.200	0.121808
695.524	0.121719
695.848	0.121590
696.172	0.121356
696.495	0.121126
696.819	0.120972
697.143	0.120656
697.466	0.120372
697.790	0.119997
698.113	0.119773
698.437	0.119488
698.760	0.119353
699.083	0.119304
699.407	0.119314
699.730	0.119195
700.053	0.119127
700.376	0.118932
700.699	0.118678
701.022	0.118335
701.345	0.117795
701.668	0.117146
701.991	0.116651
702.314	0.115940
702.637	0.115379
702.960	0.114882
703.283	0.114388
703.605	0.113938
703.928	0.113722
704.251	0.113633
704.573	0.113602
704.896	0.113515
705.218	0.113476
705.540	0.113181
705.863	0.112941
706.185	0.112564
706.507	0.112177
706.830	0.111609
707.152	0.111039
707.474	0.110523
707.796	0.110062
708.118	0.109708
708.440	0.109502
708.762	0.109288
709.084	0.109198
709.406	0.109023
709.728	0.108880
710.049	0.108710
710.371	0.108545
710.693	0.108316
711.014	0.107880
711.336	0.107574
711.658	0.107314
711.979	0.107120
712.301	0.106936
712.622	0.106749
712.943	0.106583
713.265	0.106467
713.586	0.106449
713.907	0.106441
714.228	0.106562
714.549	0.106541
714.870	0.106562
715.191	0.106571
715.512	0.106631
715.833	0.106631
716.154	0.106590
716.475	0.106500
716.796	0.106329
717.117	0.106059
717.437	0.105729
717.758	0.105462
718.078	0.105056
718.399	0.104673
718.719	0.104223
719.040	0.103982
719.360	0.103685
719.681	0.103463
720.001	0.103293
720.321	0.103073
720.642	0.102892
720.962	0.102571
721.282	0.102451
721.602	0.102286
721.922	0.102106
722.242	0.101745
722.562	0.101614
722.882	0.101487
723.202	0.101412
723.521	0.101397
723.841	0.101445
724.161	0.101390
724.481	0.101350
724.800	0.101357
725.120	0.101263
725.439	0.101239
725.759	0.101101
726.078	0.101033
726.398	0.100963
726.717	0.100913
727.036	0.100900
727.355	0.100952
727.675	0.101079
727.994	0.101203
728.313	0.101373
728.632	0.101434
728.951	0.101563
729.270	0.101433
729.589	0.101284
729.908	0.101027
730.226	0.100801
730.545	0.100597
730.864	0.100444
731.182	0.100271
731.501	0.100130
731.820	0.100032
732.138	0.099894
732.457	0.099782
732.775	0.099617
733.093	0.099523
733.412	0.099443
733.730	0.099339
734.048	0.099179
734.367	0.098913
734.685	0.098610
735.003	0.098217
735.321	0.097883
735.639	0.097522
735.957	0.097303
736.275	0.097169
736.593	0.097147
736.910	0.097051
737.228	0.096981
737.546	0.096841
737.863	0.096755
738.181	0.096518
738.499	0.096312
738.816	0.096140
739.134	0.095920
739.451	0.095783
739.768	0.095607
740.086	0.095311
740.403	0.095029
740.720	0.094798
741.038	0.094507
741.355	0.094192
741.672	0.093926
741.989	0.093644
742.306	0.093344
742.623	0.092940
742.940	0.092383
743.257	0.091721
743.573	0.091260
743.890	0.090652
744.207	0.090174
744.523	0.089704
744.840	0.089347
745.157	0.088996
745.473	0.088592
745.790	0.088266
746.106	0.087873
746.422	0.087577
746.739	0.087290
747.055	0.087053
747.371	0.086849
747.687	0.086825
748.004	0.086803
748.320	0.086737
748.636	0.086716
748.952	0.086583
749.268	0.086616
749.584	0.086693
749.899	0.086762
750.215	0.086702
750.531	0.086648
750.847	0.086625
751.162	0.086675
751.478	0.086717
751.793	0.086619
752.109	0.086510
752.424	0.086433
752.740	0.086439
753.055	0.086398
753.370	0.086396
753.686	0.086506
754.001	0.086665
754.316	0.086775
754.631	0.086939
754.946	0.087012
755.261	0.087100
755.576	0.087234
755.891	0.087174
756.206	0.087088
756.521	0.086982
756.836	0.086879
757.150	0.086870
757.465	0.086889
757.780	0.086843
758.094	0.086838
758.409	0.086881
758.723	0.086942
759.038	0.086955
759.352	0.086943
759.667	0.086850
759.981	0.086749
760.295	0.086464
760.609	0.086190
760.923	0.085937
761.238	0.085575
761.552	0.085345
761.866	0.085017
762.180	0.084832
762.493	0.084769
762.807	0.084694
763.121	0.084627
763.435	0.084504
763.749	0.084270
764.062	0.084004
764.376	0.083698
764.689	0.083410
765.003	0.083110
765.316	0.082897
765.630	0.082749
765.943	0.082536
766.257	0.082401
766.570	0.082233
766.883	0.082119
767.196	0.081880
767.509	0.081545
767.822	0.081272
768.135	0.080922
768.448	0.080699
768.761	0.080309
769.074	0.079932
769.387	0.079572
769.700	0.079290
770.013	0.079051
770.325	0.078858
770.638	0.078698
770.950	0.078532
771.263	0.078328
771.575	0.078066
771.888	0.077701
772.200	0.077372
772.513	0.077008
772.825	0.076628
773.137	0.076240
773.449	0.075874
773.761	0.075473
774.074	0.075163
774.386	0.074867
774.698	0.074561
775.010	0.074107
775.321	0.073707
775.633	0.073322
775.945	0.073149
776.257	0.072910
776.568	0.072705
776.880	0.072553
777.192	0.072345
777.503	0.072209
777.815	0.072223
778.126	0.072271
778.438	0.072313
778.749	0.072393
779.060	0.072459
779.372	0.072486
779.683	0.072535
779.994	0.072603
780.305	0.072655
780.616	0.072745
780.927	0.072801
781.238	0.072759
781.549	0.072854
781.860	0.072954
782.171	0.073027
782.481	0.073032
782.792	0.072972
783.103	0.073003
783.413	0.072997
783.724	0.072855
784.034	0.072753
784.345	0.072447
784.655	0.072250
784.966	0.072077
785.276	0.071922
785.586	0.071825
785.896	0.071752
786.207	0.071685
786.517	0.071632
786.827	0.071628
787.137	0.071481
787.447	0.071372
787.757	0.071399
788.066	0.071281
788.376	0.071215
788.686	0.071118
788.996	0.071012
789.305	0.070916
789.615	0.070748
789.925	0.070612
790.234	0.070645
790.544	0.070644
790.853	0.070613
791.162	0.070583
791.472	0.070668
791.781	0.070739
792.090	0.070697
792.399	0.070592
792.708	0.070397
793.017	0.070210
793.326	0.069977
793.635	0.069835
793.944	0.069573
794.253	0.069345
794.562	0.069091
794.871	0.068892
795.179	0.068771
795.488	0.068580
795.797	0.068502
796.105	0.068413
796.414	0.068319
796.722	0.068136
797.031	0.067892
797.339	0.067734
797.647	0.067484
797.956	0.066997
798.264	0.066312
798.572	0.065867
798.880	0.065405
799.188	0.065067
799.496	0.064725
799.804	0.064538
800.112	0.064389
800.420	0.064319
800.728	0.064237
801.035	0.064241
801.343	0.063872
801.651	0.063386
801.958	0.063033
802.266	0.062853
802.573	0.062883
802.881	0.062811
803.188	0.062749
803.496	0.062926
803.803	0.063103
804.110	0.063172
804.417	0.063227
804.724	0.063276
805.032	0.063176
805.339	0.063183
805.646	0.063210
805.953	0.063020
806.259	0.062913
806.566	0.062678
806.873	0.062616
807.180	0.062549
807.486	0.062418
807.793	0.062580
808.100	0.062697
808.406	0.062725
808.713	0.062610
809.019	0.062076
809.326	0.061835
809.632	0.061593
809.938	0.061017
810.244	0.060441
810.551	0.059909
810.857	0.059413
811.163	0.059075
811.469	0.058881
811.775	0.058678
812.081	0.058460
812.387	0.058355
812.692	0.058217
812.998	0.058235
813.304	0.058117
813.610	0.058034
813.915	0.057998
814.221	0.057808
814.526	0.057718
814.832	0.057867
815.137	0.057834
815.443	0.057965
815.748	0.057958
816.053	0.057896
816.358	0.057794
816.664	0.057846
816.969	0.057866
817.274	0.057968
817.579	0.057869
817.884	0.057792
818.189	0.057727
818.493	0.057624
818.798	0.057642
819.103	0.057372
819.408	0.057129
819.712	0.057156
820.017	0.056997
820.321	0.056810
820.626	0.056703
820.930	0.056348
821.235	0.055900
821.539	0.055554
821.843	0.055537
822.148	0.055332
822.452	0.055294
822.756	0.055473
823.060	0.055111
823.364	0.055235
823.668	0.055285
823.972	0.055300
824.276	0.055329
824.580	0.055187
824.883	0.055201
825.187	0.055162
825.491	0.055312
825.795	0.055479
826.098	0.055241
826.402	0.054989
826.705	0.054945
827.008	0.054813
827.312	0.054909
827.615	0.054767
827.918	0.054684
828.222	0.054275
828.525	0.053992
828.828	0.053932
829.131	0.053728
829.434	0.053888
829.737	0.053356
830.040	0.052493
830.343	0.051917
830.645	0.051671
830.948	0.051412
831.251	0.051011
831.553	0.050568
831.856	0.050253
832.159	0.050326
832.461	0.050244
832.764	0.050298
833.066	0.050098
833.368	0.050237
833.671	0.050072
833.973	0.050000
834.275	0.049861
834.577	0.049997
834.879	0.049730
835.181	0.049144
835.483	0.048631
835.785	0.047966
836.087	0.047688
836.389	0.048051
836.690	0.047555
836.992	0.046610
837.294	0.045874
837.595	0.045021
837.897	0.044391
838.198	0.043854
838.500	0.042741
838.801	0.042006
839.103	0.041130
839.404	0.040466
839.705	0.039438
840.006	0.038766
840.307	0.038820
840.608	0.038503
840.910	0.038242
841.210	0.038717
841.511	0.039168
841.812	0.039247
842.113	0.039497
842.414	0.038878
842.715	0.038370
843.015	0.037910
843.316	0.037388
843.616	0.036527
843.917	0.036591
844.217	0.036621
844.518	0.036434
844.818	0.036014
845.118	0.035851
845.419	0.036374
845.719	0.036501
846.019	0.035962
846.319	0.036304
846.619	0.035373
846.919	0.035801
847.219	0.035846
847.519	0.034985
847.819	0.035047
848.118	0.034682
848.418	0.034764
848.718	0.034517
849.017	0.033855
849.317	0.034457
849.616	0.035107
849.916	0.035801
850.215	0.036179
850.515	0.036447
850.814	0.036532
851.113	0.036962
851.412	0.037088
851.712	0.037088
852.011	0.036962
852.310	0.037732
852.609	0.037821
852.908	0.038124
853.206	0.038001
853.505	0.038259
853.804	0.038400
854.103	0.038286
854.401	0.038591
854.700	0.038696
854.999	0.038733
855.297	0.038821
855.595	0.038834
855.894	0.038582
856.192	0.038424
856.491	0.037972
856.789	0.037666
857.087	0.037231
857.385	0.036780
857.683	0.036585
857.981	0.036135
858.279	0.035987
858.577	0.035040
858.875	0.034632
859.173	0.034021
859.471	0.034114
859.768	0.033808
860.066	0.033551
860.363	0.033335
860.661	0.032465
860.959	0.032254
861.256	0.032711
861.553	0.032934
861.851	0.031990
862.148	0.031967
862.445	0.031708
862.742	0.031688
863.039	0.031524
863.337	0.031786
863.634	0.031019
863.931	0.030150
864.227	0.030060
864.524	0.029742
864.821	0.029847
865.118	0.029324
865.415	0.029236
865.711	0.028541
866.008	0.027402
866.304	0.027329
866.601	0.026620
866.897	0.026040
867.194	0.024897
867.490	0.024164
867.786	0.023521
868.082	0.024162
868.379	0.023575
868.675	0.023629
868.971	0.023658
869.267	0.023452
869.563	0.023536
869.859	0.023532
870.154	0.022947
870.450	0.023041
870.746	0.022722
871.042	0.022680
871.337	0.022699
871.633	0.022517
871.928	0.022586
872.224	0.022675
872.519	0.021924
872.815	0.021998
873.110	0.022298
873.405	0.022593
873.700	0.022505
873.995	0.022259
874.291	0.022000
874.586	0.022664
874.881	0.022847
875.175	0.022567
875.470	0.022787
875.765	0.022445
876.060	0.022766
876.355	0.023906
876.649	0.024134
876.944	0.024316
877.238	0.024293
877.533	0.024512
877.827	0.025044
878.122	0.025397
878.416	0.025607
878.710	0.026699
879.005	0.026684
879.299	0.026438
879.593	0.026548
879.887	0.026655
880.181	0.026538
880.475	0.026706
880.769	0.026348
881.063	0.026450
881.356	0.026747
881.650	0.026219
881.944	0.025911
882.238	0.012291
882.531	0.028953
882.825	0.025361
883.118	0.011722
883.412	0.023409
883.705	0.021284
883.998	0.033019
884.291	0.025634
884.585	0.013173
884.878	0.014262
>>>>>>>>>> END of Data <<<<<<<<<<
>>>>>>>>>> Raw Data Start <<<<<<<<
190.664	-394
191.040	4
191.415	4
191.791	5
192.166	4
192.542	12
192.917	7
193.293	8
193.668	8
194.044	11
194.419	-10
194.794	9
195.170	9
195.545	10
195.920	10
196.296	11
196.671	11
197.046	12
197.421	13
197.796	13
198.171	14
198.546	14
198.922	14
199.297	14
199.672	14
200.047	15
200.422	15
200.796	15
201.171	15
201.546	15
201.921	15
202.296	16
202.671	16
203.045	16
203.420	16
203.795	16
204.170	16
204.544	16
204.919	16
205.294	16
205.668	16
206.043	15
206.417	15
206.792	16
207.166	16
207.541	15
207.915	15
208.289	15
208.664	15
209.038	15
209.412	15
209.787	15
210.161	15
210.535	16
210.909	16
211.284	15
211.658	15
212.032	15
212.406	15
212.780	15
213.154	14
213.528	14
213.902	14
214.276	14
214.650	14
215.024	14
215.398	14
215.772	14
216.145	14
216.519	14
216.893	14
217.267	14
217.640	14
218.014	15
218.388	14
218.761	15
219.135	15
219.508	15
219.882	15
220.256	15
220.629	15
221.003	15
221.376	15
221.749	16
222.123	16
222.496	15
222.869	15
223.243	15
223.616	16
223.989	16
224.362	16
224.736	16
225.109	16
225.482	16
225.855	16
226.228	16
226.601	16
226.974	16
227.347	16
227.720	16
228.093	15
228.466	16
228.839	16
229.212	16
229.585	16
229.957	16
230.330	16
230.703	16
231.076	16
231.448	17
231.821	16
232.194	16
232.566	16
232.939	16
233.311	16
233.684	16
234.056	16
234.429	16
234.801	16
235.174	17
235.546	17
235.918	17
236.291	17
236.663	17
237.035	17
237.408	17
237.780	17
238.152	17
238.524	17
238.896	17
239.268	17
239.641	17
240.013	17
240.385	17
240.757	17
241.129	17
241.500	17
241.872	17
242.244	17
242.616	17
242.988	16
243.360	17
243.731	17
244.103	17
244.475	17
244.847	17
245.218	17
245.590	17
245.961	17
246.333	17
246.705	16
247.076	16
247.448	17
247.819	17
248.190	17
248.562	17
248.933	17
249.305	17
249.676	18
250.047	18
250.418	17
250.790	17
251.161	17
251.532	17
251.903	17
252.274	16
252.645	16
253.016	16
253.387	17
253.758	17
254.129	17
254.500	17
254.871	17
255.242	17
255.613	17
255.984	17
256.355	17
256.725	17
257.096	17
257.467	17
257.838	17
258.208	17
258.579	17
258.949	18
259.320	18
259.690	18
260.061	19
260.431	19
260.802	19
261.172	18
261.543	19
261.913	19
262.283	19
262.654	19
263.024	19
263.394	19
263.764	19
264.135	19
264.505	19
264.875	19
265.245	19
265.615	19
265.985	18
266.355	18
266.725	19
267.095	19
267.465	19
267.835	19
268.205	18
268.575	18
268.944	18
269.314	18
269.684	18
270.054	18
270.423	18
270.793	17
271.163	17
271.532	17
271.902	17
272.271	17
272.641	17
273.010	18
273.380	18
273.749	18
274.119	18
274.488	18
274.857	18
275.227	18
275.596	18
275.965	18
276.335	18
276.704	19
277.073	19
277.442	19
277.811	20
278.180	19
278.549	20
278.918	20
279.287	20
279.656	20
280.025	20
280.394	20
280.763	20
281.132	20
281.501	20
281.869	20
282.238	19
282.607	20
282.976	19
283.344	19
283.713	20
284.081	19
284.450	19
284.819	19
285.187	19
285.556	19
285.924	19
286.292	19
286.661	19
287.029	18
287.398	18
287.766	18
288.134	19
288.502	19
288.871	19
289.239	19
289.607	19
289.975	19
290.343	19
290.711	19
291.079	19
291.447	19
291.815	19
292.183	19
292.551	19
292.919	19
293.287	19
293.655	19
294.022	19
294.390	18
294.758	18
295.126	18
295.493	18
295.861	18
296.229	18
296.596	18
296.964	18
297.331	18
297.699	18
298.066	18
298.434	19
298.801	19
299.168	19
299.536	19
299.903	19
300.270	19
300.638	19
301.005	19
301.372	19
301.739	19
302.106	20
302.473	20
302.840	20
303.207	20
303.574	21
303.941	21
304.308	20
304.675	21
305.042	20
305.409	20
305.776	21
306.143	20
306.509	21
306.876	20
307.243	21
307.610	21
307.976	21
308.343	21
308.709	21
309.076	21
309.442	21
309.809	21
310.175	21
310.542	21
310.908	22
311.275	22
311.641	22
312.007	22
312.373	23
312.740	23
313.106	24
313.472	24
313.838	24
314.204	24
314.570	25
314.936	26
315.302	27
315.668	27
316.034	27
316.400	27
316.766	28
317.132	28
317.498	29
317.864	30
318.230	30
318.595	31
318.961	32
319.327	32
319.692	33
320.058	35
320.424	36
320.789	37
321.155	37
321.520	39
321.886	39
322.251	41
322.616	42
322.982	43
323.347	45
323.712	46
324.078	48
324.443	50
324.808	52
325.173	54
325.539	56
325.904	57
326.269	59
326.634	61
326.999	63
327.364	65
327.729	67
328.094	69
328.459	71
328.823	73
329.188	75
329.553	77
329.918	79
330.283	81
330.647	83
331.012	85
331.377	87
331.741	90
332.106	92
332.470	94
332.835	96
333.199	98
333.564	101
333.928	103
334.293	105
334.657	107
335.021	110
335.386	112
335.750	115
336.114	117
336.478	120
336.843	123
337.207	125
337.571	128
337.935	130
338.299	133
338.663	136
339.027	138
339.391	140
339.755	142
340.119	145
340.483	148
340.846	150
341.210	152
341.574	155
341.938	157
342.301	160
342.665	162
343.029	164
343.392	166
343.756	168
344.119	170
344.483	172
344.846	174
345.210	176
345.573	179
345.937	180
346.300	182
346.663	184
347.027	186
347.390	188
347.753	190
348.116	192
348.479	194
348.843	196
349.206	198
349.569	199
349.932	201
350.295	203
350.658	204
351.021	206
351.383	207
351.746	209
352.109	210
352.472	211
352.835	213
353.197	214
353.560	215
353.923	216
354.285	218
354.648	219
355.011	220
355.373	221
355.736	223
356.098	224
356.461	225
356.823	226
357.185	227
357.548	228
357.910	229
358.272	231
358.635	232
358.997	234
359.359	235
359.721	236
360.083	237
360.445	237
360.807	238
361.169	239
361.531	240
361.893	241
362.255	241
362.617	242
362.979	243
363.341	244
363.703	245
364.064	246
364.426	247
364.788	248
365.149	249
365.511	250
365.873	250
366.234	251
366.596	251
366.957	252
367.319	252
367.680	253
368.042	254
368.403	254
368.764	254
369.126	254
369.487	254
369.848	255
370.209	255
370.570	255
370.931	255
371.293	256
371.654	256
372.015	255
372.376	255
372.737	255
373.098	255
373.458	255
373.819	256
374.180	256
374.541	257
374.902	258
375.263	259
375.623	259
375.984	260
376.345	261
376.705	263
377.066	263
377.426	264
377.787	265
378.147	266
378.508	266
378.868	267
379.228	267
379.589	269
379.949	269
380.309	270
380.670	270
381.030	271
381.390	271
381.750	271
382.110	272
382.470	272
382.830	272
383.190	272
383.550	273
383.910	273
384.270	273
384.630	274
384.990	275
385.350	276
385.709	277
386.069	278
386.429	279
386.788	279
387.148	279
387.508	280
387.867	281
388.227	282
388.586	283
388.946	285
389.305	286
389.665	288
390.024	290
390.383	292
390.743	293
391.102	295
391.461	296
391.820	297
392.179	298
392.539	298
392.898	299
393.257	300
393.616	301
393.975	303
394.334	305
394.693	307
395.051	310
395.410	312
395.769	314
396.128	315
396.487	317
396.845	318
397.204	318
397.563	319
397.921	319
398.280	320
398.638	321
398.997	321
399.355	322
399.714	323
400.072	324
400.431	325
400.789	326
401.147	328
401.506	329
401.864	330
402.222	331
402.580	331
402.938	331
403.297	332
403.655	332
404.013	332
404.371	332
404.729	332
405.087	333
405.444	334
405.802	336
406.160	337
406.518	338
406.876	339
407.233	340
407.591	341
407.949	342
408.306	343
408.664	344
409.022	345
409.379	346
409.737	347
410.094	349
410.451	350
410.809	352
411.166	354
411.523	356
411.881	357
412.238	359
412.595	361
412.952	362
413.310	363
413.667	364
414.024	366
414.381	367
414.738	369
415.095	370
415.452	372
415.809	374
416.165	375
416.522	377
416.879	379
417.236	382
417.593	386
417.949	389
418.306	394
418.663	398
419.019	404
419.376	409
419.732	414
420.089	418
420.445	423
420.802	428
421.158	432
421.514	436
421.871	439
422.227	442
422.583	445
422.939	448
423.295	451
423.652	454
424.008	457
424.364	459
424.720	461
425.076	463
425.432	465
425.788	466
426.143	469
426.499	472
426.855	475
427.211	478
427.567	481
427.922	484
428.278	486
428.634	487
428.989	490
429.345	492
429.700	495
430.056	499
430.411	502
430.767	506
431.122	510
431.478	513
431.833	517
432.188	520
432.543	523
432.899	525
433.254	528
433.609	529
433.964	530
434.319	531
434.674	533
435.029	535
435.384	537
435.739	540
436.094	545
436.449	549
436.804	555
437.158	561
437.513	567
437.868	575
438.223	583
438.577	591
438.932	599
439.287	608
439.641	617
439.996	627
440.350	636
440.704	644
441.059	653
441.413	663
441.768	672
442.122	680
442.476	689
442.830	697
443.185	706
443.539	714
443.893	722
444.247	728
444.601	734
444.955	740
445.309	743
445.663	747
446.017	750
446.371	753
446.724	755
447.078	757
447.432	757
447.786	758
448.139	759
448.493	760
448.847	760
449.200	760
449.554	759
449.907	759
450.261	759
450.614	759
450.968	759
451.321	760
451.674	760
452.027	760
452.381	761
452.734	763
453.087	764
453.440	766
453.793	769
454.146	772
454.499	777
454.852	783
455.205	790
455.558	798
455.911	805
456.264	812
456.617	819
456.970	826
457.322	833
457.675	838
458.028	843
458.380	848
458.733	852
459.086	857
459.438	862
459.791	868
460.143	875
460.496	884
460.848	894
461.200	904
461.553	916
461.905	926
462.257	936
462.609	945
462.961	952
463.314	959
463.666	966
464.018	971
464.370	976
464.722	983
465.074	989
465.426	995
465.777	1001
466.129	1005
466.481	1008
466.833	1011
467.184	1011
467.536	1011
467.888	1010
468.239	1008
468.591	1006
468.943	1005
469.294	1005
469.646	1006
469.997	1009
470.348	1014
470.700	1021
471.051	1031
471.402	1042
471.754	1056
472.105	1070
472.456	1084
472.807	1101
473.158	1119
473.509	1139
473.860	1162
474.211	1184
474.562	1208
474.913	1232
475.264	1258
475.615	1283
475.966	1309
476.316	1334
476.667	1358
477.018	1384
477.368	1410
477.719	1436
478.070	1461
478.420	1485
478.771	1508
479.121	1531
479.472	1554
479.822	1578
480.172	1604
480.523	1634
480.873	1676
481.223	1746
481.573	1849
481.924	1979
482.274	2126
482.624	2280
482.974	2435
483.324	2569
483.674	2672
484.024	2741
484.374	2788
484.724	2817
485.073	2838
485.423	2856
485.773	2873
486.123	2888
486.472	2904
486.822	2918
487.172	2931
487.521	2940
487.871	2944
488.220	2935
488.570	2897
488.919	2826
489.268	2728
489.618	2612
489.967	2487
490.316	2362
490.666	2253
491.015	2175
491.364	2128
491.713	2105
492.062	2098
492.411	2099
492.760	2105
493.109	2111
493.458	2119
493.807	2124
494.156	2129
494.505	2134
494.853	2140
495.202	2148
495.551	2159
495.900	2170
496.248	2182
496.597	2194
496.945	2205
497.294	2216
497.642	2228
497.991	2242
498.339	2258
498.688	2276
499.036	2292
499.384	2307
499.732	2321
500.081	2332
500.429	2342
500.777	2351
501.125	2359
501.473	2367
501.821	2376
502.169	2384
502.517	2391
502.865	2395
503.213	2397
503.561	2398
503.908	2398
504.256	2398
504.604	2396
504.952	2393
505.299	2389
505.647	2383
505.994	2375
506.342	2368
506.689	2360
507.037	2352
507.384	2347
507.732	2343
508.079	2339
508.426	2335
508.774	2333
509.121	2328
509.468	2324
509.815	2318
510.162	2314
510.509	2309
510.856	2303
511.203	2297
511.550	2291
511.897	2286
512.244	2280
512.591	2275
512.938	2270
513.284	2265
513.631	2259
513.978	2252
514.324	2245
514.671	2238
515.018	2230
515.364	2224
515.711	2217
516.057	2210
516.403	2205
516.750	2198
517.096	2189
517.443	2179
517.789	2171
518.135	2162
518.481	2155
518.827	2148
519.173	2140
519.519	2133
519.865	2126
520.211	2120
520.557	2114
520.903	2110
521.249	2105
521.595	2101
521.941	2096
522.287	2093
522.632	2089
522.978	2086
523.324	2083
523.669	2082
524.015	2082
524.360	2086
524.706	2093
525.051	2101
525.397	2110
525.742	2121
526.087	2132
526.433	2143
526.778	2151
527.123	2158
527.468	2164
527.813	2170
528.158	2175
528.504	2182
528.849	2193
529.193	2208
529.538	2224
529.883	2245
530.228	2269
530.573	2295
530.918	2323
531.263	2351
531.607	2376
531.952	2399
532.296	2418
532.641	2433
532.986	2445
533.330	2457
533.675	2469
534.019	2485
534.363	2505
534.708	2530
535.052	2558
535.396	2588
535.741	2616
536.085	2641
536.429	2665
536.773	2684
537.117	2699
537.461	2711
537.805	2722
538.149	2735
538.493	2749
538.837	2764
539.181	2782
539.524	2804
539.868	2831
540.212	2861
540.556	2893
540.899	2927
541.243	2957
541.586	2982
541.930	3001
542.273	3014
542.617	3025
542.960	3036
543.304	3051
543.647	3071
543.990	3098
544.333	3128
544.677	3158
545.020	3187
545.363	3211
545.706	3228
546.049	3241
546.392	3247
546.735	3248
547.078	3247
547.421	3247
547.764	3248
548.106	3250
548.449	3256
548.792	3268
549.135	3287
549.477	3310
549.820	3333
550.162	3352
550.505	3367
550.847	3376
551.190	3380
551.532	3383
551.875	3386
552.217	3391
552.559	3398
552.901	3412
553.244	3428
553.586	3447
553.928	3468
554.270	3485
554.612	3499
554.954	3509
555.296	3516
555.638	3524
555.980	3532
556.322	3543
556.663	3561
557.005	3587
557.347	3621
557.689	3658
558.030	3695
558.372	3728
558.713	3757
559.055	3785
559.396	3812
559.738	3841
560.079	3873
560.421	3910
560.762	3953
561.103	4001
561.444	4055
561.786	4110
562.127	4170
562.468	4236
562.809	4307
563.150	4387
563.491	4473
563.832	4568
564.173	4678
564.514	4805
564.855	4958
565.195	5147
565.536	5373
565.877	5637
566.218	5938
566.558	6279
566.899	6653
567.239	7057
567.580	7479
567.920	7914
568.261	8353
568.601	8802
568.941	9266
569.282	9743
569.622	10237
569.962	10751
570.302	11299
570.643	11864
570.983	12432
571.323	12980
571.663	13507
572.003	14006
572.343	14472
572.683	14908
573.022	15350
573.362	15814
573.702	16292
574.042	16770
574.381	17226
574.721	17658
575.061	18071
575.400	18445
575.740	18774
576.079	19064
576.419	19353
576.758	19683
577.097	20074
577.437	20503
577.776	20961
578.115	21440
578.454	21926
578.794	22370
579.133	22710
579.472	22938
579.811	23064
580.150	23093
580.489	23048
580.828	22970
581.167	22895
581.505	22839
581.844	22793
582.183	22747
582.522	22719
582.860	22704
583.199	22690
583.538	22643
583.876	22525
584.215	22313
584.553	21996
584.891	21583
585.230	21079
585.568	20526
585.906	19965
586.245	19459
586.583	19024
586.921	18663
587.259	18335
587.597	18006
587.935	17664
588.273	17314
588.611	16987
588.949	16697
589.287	16453
589.625	16258
589.963	16102
590.300	15976
590.638	15861
590.976	15733
591.313	15585
591.651	15443
591.989	15319
592.326	15218
592.664	15130
593.001	15057
593.338	15011
593.676	14985
594.013	14987
594.350	15036
594.687	15124
595.025	15224
595.362	15313
595.699	15374
596.036	15410
596.373	15413
596.710	15375
597.047	15312
597.384	15236
597.720	15152
598.057	15082
598.394	15030
598.731	14998
599.067	14991
599.404	15011
599.741	15067
600.077	15147
600.414	15238
600.750	15335
601.087	15406
601.423	15438
601.759	15436
602.096	15405
602.432	15356
602.768	15282
603.104	15182
603.440	15059
603.776	14930
604.112	14790
604.448	14647
604.784	14497
605.120	14338
605.456	14184
605.792	14023
606.128	13854
606.463	13681
606.799	13507
607.135	13348
607.470	13190
607.806	13034
608.142	12882
608.477	12735
608.812	12594
609.148	12453
609.483	12304
609.819	12152
610.154	12008
610.489	11874
610.824	11758
611.159	11658
611.494	11558
611.830	11470
612.165	11383
612.500	11287
612.834	11176
613.169	11049
613.504	10910
613.839	10756
614.174	10582
614.509	10409
614.843	10235
615.178	10070
615.512	9907
615.847	9747
616.182	9588
616.516	9427
616.850	9257
617.185	9080
617.519	8901
617.853	8709
618.188	8510
618.522	8328
618.856	8174
619.190	8039
619.524	7921
619.858	7826
620.192	7751
620.526	7684
620.860	7618
621.194	7555
621.528	7492
621.862	7430
622.195	7355
622.529	7275
622.863	7192
623.196	7110
623.530	7026
623.864	6943
624.197	6859
624.530	6777
624.864	6703
625.197	6627
625.531	6540
625.864	6436
626.197	6325
626.530	6205
626.863	6070
627.196	5923
627.529	5775
627.862	5629
628.195	5484
628.528	5341
628.861	5204
629.194	5081
629.527	4963
629.860	4847
630.192	4732
630.525	4626
630.858	4526
631.190	4432
631.523	4340
631.855	4255
632.188	4181
632.520	4112
632.852	4046
633.185	3978
633.517	3914
633.849	3855
634.182	3802
634.514	3750
634.846	3705
635.178	3664
635.510	3628
635.842	3595
636.174	3563
636.506	3532
636.837	3500
637.169	3470
637.501	3437
637.833	3401
638.164	3361
638.496	3316
638.828	3266
639.159	3209
639.491	3148
639.822	3085
640.154	3021
640.485	2958
640.816	2895
641.147	2833
641.479	2774
641.810	2716
642.141	2661
642.472	2606
642.803	2552
643.134	2500
643.465	2456
643.796	2421
644.127	2395
644.458	2382
644.789	2381
645.119	2394
645.450	2416
645.781	2441
646.111	2465
646.442	2486
646.773	2503
647.103	2516
647.433	2528
647.764	2540
648.094	2556
648.425	2576
648.755	2601
649.085	2629
649.415	2659
649.745	2690
650.075	2722
650.405	2758
650.735	2837
651.065	3406
651.395	5174
651.725	8090
652.055	11734
652.385	15372
652.715	19010
653.044	22649
653.374	26294
653.704	29944
654.033	32629
654.363	34415
654.692	35601
655.022	36375
655.351	36883
655.680	37199
656.010	37372
656.339	37449
656.668	37471
656.997	37461
657.326	37431
657.655	37345
657.984	36758
658.313	34962
658.642	32008
658.971	28317
659.300	24626
659.629	20936
659.958	17246
660.286	13557
660.615	9869
660.944	7154
661.272	5341
661.601	4129
661.929	3328
662.258	2787
662.586	2432
662.915	2216
663.243	2091
663.571	2019
663.899	1976
664.228	1949
664.556	1930
664.884	1918
665.212	1909
665.540	1902
665.868	1899
666.196	1898
666.524	1897
666.852	1898
667.179	1906
667.507	1920
667.835	1942
668.162	1970
668.490	2005
668.818	2046
669.145	2089
669.473	2132
669.800	2172
670.127	2208
670.455	2237
670.782	2262
671.109	2284
671.436	2303
671.764	2318
672.091	2330
672.418	2341
672.745	2350
673.072	2358
673.399	2369
673.726	2381
674.053	2390
674.379	2392
674.706	2392
675.033	2391
675.359	2387
675.686	2383
676.013	2380
676.339	2382
676.666	2390
676.992	2407
677.318	2432
677.645	2461
677.971	2486
678.297	2510
678.624	2533
678.950	2554
679.276	2575
679.602	2595
679.928	2616
680.254	2642
680.580	2674
680.906	2716
681.232	2768
681.558	2822
681.883	2875
682.209	2925
682.535	2972
682.860	3014
683.186	3049
683.511	3077
683.837	3095
684.162	3109
684.488	3119
684.813	3131
685.138	3142
685.464	3151
685.789	3159
686.114	3167
686.439	3178
686.764	3189
687.089	3197
687.414	3198
687.739	3188
688.064	3168
688.389	3144
688.714	3115
689.039	3084
689.363	3050
689.688	3014
690.013	2979
690.337	2948
690.662	2921
690.986	2898
691.311	2875
691.635	2851
691.959	2829
692.284	2815
692.608	2811
692.932	2816
693.256	2825
693.580	2837
693.904	2851
694.228	2869
694.552	2885
694.876	2893
695.200	2891
695.524	2878
695.848	2860
696.172	2837
696.495	2812
696.819	2787
697.143	2761
697.466	2734
697.790	2711
698.113	2695
698.437	2688
698.760	2686
699.083	2684
699.407	2676
699.730	2662
700.053	2640
700.376	2610
700.699	2568
701.022	2515
701.345	2458
701.668	2404
701.991	2359
702.314	2328
702.637	2314
702.960	2319
703.283	2343
703.605	2386
703.928	2443
704.251	2508
704.573	2573
704.896	2632
705.218	2679
705.540	2718
705.863	2748
706.185	2773
706.507	2795
706.830	2816
707.152	2837
707.474	2860
707.796	2886
708.118	2913
708.440	2939
708.762	2962
709.084	2980
709.406	2990
709.728	2992
710.049	2986
710.371	2973
710.693	2953
711.014	2932
711.336	2910
711.658	2891
711.979	2874
712.301	2858
712.622	2842
712.943	2822
713.265	2798
713.586	2772
713.907	2748
714.228	2726
714.549	2709
714.870	2697
715.191	2692
715.512	2690
715.833	2686
716.154	2679
716.475	2667
716.796	2650
717.117	2625
717.437	2596
717.758	2562
718.078	2529
718.399	2496
718.719	2467
719.040	2441
719.360	2421
719.681	2407
720.001	2398
720.321	2393
720.642	2391
720.962	2393
721.282	2398
721.602	2406
721.922	2415
722.242	2427
722.562	2442
722.882	2461
723.202	2478
723.521	2494
723.841	2509
724.161	2526
724.481	2543
724.800	2560
725.120	2583
725.439	2610
725.759	2641
726.078	2676
726.398	2718
726.717	2771
727.036	2830
727.355	2893
727.675	2954
727.994	3012
728.313	3067
728.632	3115
728.951	3155
729.270	3189
729.589	3222
729.908	3262
730.226	3307
730.545	3357
730.864	3410
731.182	3467
731.501	3526
731.820	3581
732.138	3630
732.457	3672
732.775	3712
733.093	3743
733.412	3761
733.730	3766
734.048	3757
734.367	3741
734.685	3718
735.003	3692
735.321	3669
735.639	3651
735.957	3636
736.275	3622
736.593	3601
736.910	3571
737.228	3528
737.546	3474
737.863	3410
738.181	3340
738.499	3265
738.816	3192
739.134	3120
739.451	3047
739.768	2974
740.086	2904
740.403	2838
740.720	2778
741.038	2721
741.355	2666
741.672	2612
741.989	2556
742.306	2498
742.623	2439
742.940	2382
743.257	2329
743.573	2282
743.890	2244
744.207	2215
744.523	2196
744.840	2182
745.157	2174
745.473	2173
745.790	2181
746.106	2198
746.422	2224
746.739	2256
747.055	2295
747.371	2338
747.687	2384
748.004	2427
748.320	2465
748.636	2499
748.952	2534
749.268	2568
749.584	2600
749.899	2630
750.215	2661
750.531	2695
750.847	2734
751.162	2772
751.478	2810
751.793	2849
752.109	2891
752.424	2936
752.740	2981
753.055	3033
753.370	3095
753.686	3167
754.001	3245
754.316	3327
754.631	3413
754.946	3505
755.261	3602
755.576	3695
755.891	3785
756.206	3875
756.521	3969
756.836	4066
757.150	4158
757.465	4239
757.780	4309
758.094	4368
758.409	4413
758.723	4442
759.038	4454
759.352	4455
759.667	4443
759.981	4421
760.295	4400
760.609	4383
760.923	4372
761.238	4367
761.552	4363
761.866	4358
762.180	4349
762.493	4326
762.807	4281
763.121	4212
763.435	4125
763.749	4030
764.062	3941
764.376	3867
764.689	3815
765.003	3788
765.316	3784
765.630	3797
765.943	3820
766.257	3846
766.570	3867
766.883	3873
767.196	3864
767.509	3839
767.822	3803
768.135	3756
768.448	3704
768.761	3650
769.074	3604
769.387	3569
769.700	3546
770.013	3533
770.325	3523
770.638	3507
770.950	3478
771.263	3432
771.575	3368
771.888	3285
772.200	3189
772.513	3084
772.825	2974
773.137	2862
773.449	2752
773.761	2645
774.074	2546
774.386	2457
774.698	2383
775.010	2323
775.321	2279
775.633	2251
775.945	2235
776.257	2226
776.568	2223
776.880	2231
777.192	2247
777.503	2272
777.815	2303
778.126	2341
778.438	2389
778.749	2440
779.060	2490
779.372	2537
779.683	2582
779.994	2623
780.305	2655
780.616	2677
780.927	2691
781.238	2696
781.549	2690
781.860	2672
782.171	2648
782.481	2621
782.792	2593
783.103	2566
783.413	2536
783.724	2505
784.034	2475
784.345	2448
784.655	2423
784.966	2397
785.276	2370
785.586	2343
785.896	2316
786.207	2288
786.517	2258
786.827	2229
787.137	2202
787.447	2176
787.757	2150
788.066	2127
788.376	2103
788.686	2081
788.996	2057
789.305	2034
789.615	2016
789.925	2006
790.234	2003
790.544	2008
790.853	2018
791.162	2029
791.472	2038
791.781	2042
792.090	2038
792.399	2027
792.708	2008
793.017	1987
793.326	1966
793.635	1947
793.944	1930
794.253	1914
794.562	1903
794.871	1897
795.179	1892
795.488	1886
795.797	1876
796.105	1858
796.414	1831
796.722	1794
797.031	1746
797.339	1688
797.647	1623
797.956	1555
798.264	1493
798.572	1440
798.880	1400
799.188	1370
799.496	1349
799.804	1332
800.112	1320
800.420	1309
800.728	1299
801.035	1285
801.343	1270
801.651	1258
801.958	1255
802.266	1260
802.573	1270
802.881	1284
803.188	1301
803.496	1320
803.803	1339
804.110	1356
804.417	1372
804.724	1385
805.032	1398
805.339	1408
805.646	1415
805.953	1419
806.259	1420
806.566	1418
806.873	1413
807.180	1406
807.486	1399
807.793	1389
808.100	1375
808.406	1352
808.713	1321
809.019	1286
809.326	1250
809.632	1215
809.938	1182
810.244	1153
810.551	1128
810.857	1107
811.163	1089
811.469	1070
811.775	1049
812.081	1028
812.387	1009
812.692	993
812.998	981
813.304	972
813.610	964
813.915	958
814.221	953
814.526	949
814.832	945
815.137	941
815.443	935
815.748	925
816.053	913
816.358	900
816.664	889
816.969	878
817.274	869
817.579	861
817.884	857
818.189	856
818.493	855
818.798	853
819.103	848
819.408	839
819.712	829
820.017	818
820.321	807
820.626	796
820.930	786
821.235	779
821.539	776
821.843	776
822.148	778
822.452	780
822.756	779
823.060	777
823.364	772
823.668	765
823.972	757
824.276	749
824.580	743
824.883	739
825.187	738
825.491	738
825.795	737
826.098	738
826.402	738
826.705	735
827.008	730
827.312	722
827.615	710
827.918	695
828.222	679
828.525	662
828.828	646
829.131	629
829.434	613
829.737	598
830.040	586
830.343	577
830.645	568
830.948	559
831.251	550
831.553	543
831.856	537
832.159	531
832.461	524
832.764	517
833.066	509
833.368	503
833.671	498
833.973	495
834.275	492
834.577	488
834.879	484
835.181	480
835.483	474
835.785	468
836.087	460
836.389	449
836.690	438
836.992	426
837.294	414
837.595	400
837.897	386
838.198	372
838.500	360
838.801	348
839.103	338
839.404	330
839.705	323
840.006	317
840.307	312
840.608	308
840.910	306
841.210	304
841.511	301
841.812	298
842.113	294
842.414	290
842.715	285
843.015	279
843.316	273
843.616	268
843.917	262
844.217	258
844.518	254
844.818	251
845.118	249
845.419	248
845.719	246
846.019	245
846.319	243
846.619	243
846.919	241
847.219	240
847.519	239
847.819	238
848.118	238
848.418	240
848.718	248
849.017	260
849.317	276
849.616	297
849.916	320
850.215	347
850.515	375
850.814	403
851.113	429
851.412	451
851.712	472
852.011	492
852.310	509
852.609	526
852.908	539
853.206	552
853.505	564
853.804	574
854.103	583
854.401	589
854.700	592
854.999	589
855.297	582
855.595	570
855.894	554
856.192	534
856.491	511
856.789	486
857.087	460
857.385	436
857.683	414
857.981	394
858.279	376
858.577	358
858.875	343
859.173	331
859.471	320
859.768	312
860.066	305
860.363	298
860.661	293
860.959	289
861.256	285
861.553	281
861.851	276
862.148	270
862.445	264
862.742	259
863.039	254
863.337	250
863.634	248
863.931	246
864.227	245
864.524	244
864.821	244
865.118	243
865.415	241
865.711	238
866.008	234
866.304	230
866.601	225
866.897	222
867.194	219
867.490	217
867.786	216
868.082	215
868.379	216
868.675	217
868.971	217
869.267	217
869.563	217
869.859	217
870.154	216
870.450	215
870.746	214
871.042	213
871.337	213
871.633	213
871.928	214
872.224	215
872.519	217
872.815	219
873.110	219
873.405	219
873.700	218
873.995	218
874.291	218
874.586	218
874.881	219
875.175	222
875.470	225
875.765	229
876.060	233
876.355	237
876.649	242
876.944	246
877.238	251
877.533	254
877.827	257
878.122	259
878.416	260
878.710	260
879.005	259
879.299	258
879.593	257
879.887	256
880.181	254
880.475	253
880.769	251
881.063	249
881.356	246
881.650	243
881.944	239
882.238	202
882.531	187
882.825	185
883.118	194
883.412	192
883.705	190
883.998	191
884.291	200
884.585	206
884.878	215
>>>>>>>>>> END of Data <<<<<<<<<<