Date	2022年08月06日土曜日 12時53分32秒
Spectrometers	USB2+H05879
ダーク	使用
リファレンス	使用
積分時間[msec]	10
平均回数	10000
ｽﾑｰｼﾞﾝｸﾞ	0
Electrical Dark	USE
ピクセル数	2048
計測モード	吸光度
保存開始波長[nm]	190.664
保存終了波長[nm]	884.878
保存ﾋﾟｯﾁ波長[nm]	全波長

>>>>>>>>>> Data Start <<<<<<<<<<<<
190.664	0.000000
191.040	0.000000
191.415	0.000000
191.791	0.000000
192.166	0.000000
192.542	0.000000
192.917	0.000000
193.293	0.000000
193.668	0.000000
194.044	0.000000
194.419	0.000000
194.794	0.987162
195.170	0.000000
195.545	0.000000
195.920	0.000000
196.296	0.000000
196.671	0.000000
197.046	0.000000
197.421	0.000000
197.796	0.000000
198.171	0.000000
198.546	0.000000
198.922	0.000000
199.297	0.000000
199.672	0.000000
200.047	0.000000
200.422	0.000000
200.796	0.000000
201.171	0.000000
201.546	0.000000
201.921	0.000000
202.296	0.000000
202.671	0.000000
203.045	0.000000
203.420	0.506262
203.795	0.000000
204.170	0.000000
204.544	0.000000
204.919	0.000000
205.294	0.000000
205.668	0.000000
206.043	0.906327
206.417	0.000000
206.792	0.000000
207.166	0.000000
207.541	0.000000
207.915	0.000000
208.289	0.000000
208.664	0.000000
209.038	0.000000
209.412	0.000000
209.787	0.000000
210.161	0.000000
210.535	0.000000
210.909	0.000000
211.284	0.000000
211.658	0.000000
212.032	0.000000
212.406	0.000000
212.780	0.000000
213.154	0.000000
213.528	0.000000
213.902	0.000000
214.276	0.000000
214.650	0.000000
215.024	0.000000
215.398	0.000000
215.772	0.000000
216.145	0.000000
216.519	0.000000
216.893	0.000000
217.267	0.000000
217.640	0.000000
218.014	0.000000
218.388	0.000000
218.761	0.000000
219.135	0.000000
219.508	0.000000
219.882	0.000000
220.256	3.115833
220.629	0.000000
221.003	0.000000
221.376	0.000000
221.749	0.000000
222.123	0.000000
222.496	0.000000
222.869	0.000000
223.243	0.779492
223.616	1.451502
223.989	0.614153
224.362	0.000000
224.736	0.217664
225.109	0.000000
225.482	0.000000
225.855	0.411332
226.228	0.000000
226.601	0.000000
226.974	0.000000
227.347	0.000000
227.720	0.000000
228.093	0.000000
228.466	0.000000
228.839	1.513462
229.212	0.000000
229.585	0.000000
229.957	0.000000
230.330	0.000000
230.703	0.000000
231.076	0.000000
231.448	0.000000
231.821	0.000000
232.194	0.000000
232.566	0.000000
232.939	0.000000
233.311	0.000000
233.684	0.000000
234.056	0.000000
234.429	0.000000
234.801	0.000000
235.174	0.696350
235.546	0.000000
235.918	0.000000
236.291	0.000000
236.663	0.000000
237.035	0.000000
237.408	1.742255
237.780	0.000000
238.152	0.000000
238.524	0.000000
238.896	0.000000
239.268	0.000000
239.641	1.125795
240.013	0.000000
240.385	0.000000
240.757	0.000000
241.129	0.000000
241.500	0.000000
241.872	0.000000
242.244	0.000000
242.616	0.000000
242.988	0.000000
243.360	0.000000
243.731	0.000000
244.103	0.000000
244.475	0.000000
244.847	0.000000
245.218	0.000000
245.590	0.000000
245.961	0.000000
246.333	0.000000
246.705	0.000000
247.076	0.000000
247.448	0.000000
247.819	0.769978
248.190	0.000000
248.562	1.551361
248.933	0.676702
249.305	0.000000
249.676	0.000000
250.047	0.000000
250.418	0.000000
250.790	0.000000
251.161	0.000000
251.532	0.000000
251.903	1.694319
252.274	0.000000
252.645	0.646691
253.016	0.000000
253.387	0.000000
253.758	0.000000
254.129	0.000000
254.500	0.000000
254.871	0.000000
255.242	0.000000
255.613	0.000000
255.984	0.000000
256.355	0.000000
256.725	0.000000
257.096	0.000000
257.467	0.000000
257.838	0.000000
258.208	0.000000
258.579	0.000000
258.949	0.000000
259.320	0.000000
259.690	0.000000
260.061	0.636171
260.431	0.000000
260.802	0.000000
261.172	0.000000
261.543	0.340238
261.913	0.000000
262.283	0.000000
262.654	0.000000
263.024	0.000000
263.394	0.000000
263.764	0.000000
264.135	0.000000
264.505	0.000000
264.875	0.014441
265.245	0.000000
265.615	0.000000
265.985	0.000000
266.355	0.000000
266.725	0.000000
267.095	0.842220
267.465	1.152988
267.835	0.000000
268.205	0.000000
268.575	0.000000
268.944	0.000000
269.314	0.000000
269.684	0.660613
270.054	0.000000
270.423	0.000000
270.793	0.000000
271.163	0.000000
271.532	0.000000
271.902	1.580442
272.271	0.000000
272.641	0.000000
273.010	0.000000
273.380	0.000000
273.749	0.000000
274.119	0.413618
274.488	2.908516
274.857	0.749827
275.227	0.000000
275.596	0.000000
275.965	0.000000
276.335	0.000000
276.704	0.000000
277.073	0.000000
277.442	0.000000
277.811	0.000000
278.180	0.000000
278.549	0.000000
278.918	0.000000
279.287	0.694411
279.656	0.000000
280.025	0.000000
280.394	0.000000
280.763	0.000000
281.132	0.000000
281.501	0.000000
281.869	0.000000
282.238	0.000000
282.607	1.384753
282.976	0.000000
283.344	0.000000
283.713	0.000000
284.081	0.000000
284.450	0.000000
284.819	0.000000
285.187	0.000000
285.556	0.000000
285.924	0.000000
286.292	0.000000
286.661	0.000000
287.029	0.000000
287.398	0.000000
287.766	0.000000
288.134	0.000000
288.502	0.764565
288.871	0.000000
289.239	0.000000
289.607	0.000000
289.975	0.000000
290.343	0.000000
290.711	0.000000
291.079	0.000000
291.447	0.560267
291.815	1.240326
292.183	0.000000
292.551	0.000000
292.919	1.614436
293.287	0.000000
293.655	0.000000
294.022	0.000000
294.390	0.000000
294.758	0.000000
295.126	0.000000
295.493	1.643681
295.861	0.000000
296.229	0.000000
296.596	0.000000
296.964	1.158195
297.331	0.000000
297.699	0.000000
298.066	1.360483
298.434	0.000000
298.801	0.000000
299.168	0.000000
299.536	0.000000
299.903	0.000000
300.270	0.000000
300.638	0.000000
301.005	0.000000
301.372	1.028120
301.739	0.000000
302.106	0.000000
302.473	2.350554
302.840	0.000000
303.207	0.000000
303.574	0.000000
303.941	1.364066
304.308	0.000000
304.675	0.000000
305.042	0.000000
305.409	0.000000
305.776	0.000000
306.143	0.000000
306.509	0.000000
306.876	0.000000
307.243	0.000000
307.610	0.000000
307.976	0.000000
308.343	0.000000
308.709	0.991859
309.076	0.000000
309.442	1.576006
309.809	0.000000
310.175	0.000000
310.542	0.000000
310.908	0.000000
311.275	1.720579
311.641	0.000000
312.007	0.000000
312.373	0.000000
312.740	2.398738
313.106	2.829317
313.472	0.000000
313.838	0.000000
314.204	0.000000
314.570	0.000000
314.936	0.000000
315.302	0.000000
315.668	0.000000
316.034	0.000000
316.400	0.000000
316.766	0.000000
317.132	0.000000
317.498	0.000000
317.864	0.000000
318.230	0.000000
318.595	0.000000
318.961	0.000000
319.327	1.761573
319.692	0.000000
320.058	0.000000
320.424	0.000000
320.789	0.000000
321.155	0.000000
321.520	0.000000
321.886	2.361817
322.251	0.000000
322.616	0.000000
322.982	3.691220
323.347	0.000000
323.712	0.000000
324.078	0.000000
324.443	0.000000
324.808	0.000000
325.173	0.000000
325.539	2.686679
325.904	3.107057
326.269	0.000000
326.634	0.000000
326.999	0.000000
327.364	0.000000
327.729	0.000000
328.094	0.000000
328.459	0.000000
328.823	0.000000
329.188	0.000000
329.553	0.000000
329.918	0.000000
330.283	0.000000
330.647	2.986182
331.012	0.000000
331.377	0.000000
331.741	2.779634
332.106	0.000000
332.470	3.233539
332.835	2.603514
333.199	0.000000
333.564	0.000000
333.928	0.000000
334.293	0.000000
334.657	0.000000
335.021	0.000000
335.386	0.000000
335.750	0.000000
336.114	0.000000
336.478	0.000000
336.843	0.000000
337.207	2.697412
337.571	0.000000
337.935	0.000000
338.299	2.622666
338.663	0.000000
339.027	2.886025
339.391	0.000000
339.755	0.000000
340.119	0.000000
340.483	0.000000
340.846	0.000000
341.210	3.704359
341.574	0.000000
341.938	2.943514
342.301	2.356962
342.665	2.775120
343.029	0.000000
343.392	2.579021
343.756	0.000000
344.119	0.000000
344.483	0.000000
344.846	2.813728
345.210	0.000000
345.573	0.000000
345.937	0.000000
346.300	0.000000
346.663	0.000000
347.027	0.000000
347.390	2.954638
347.753	0.000000
348.116	0.000000
348.479	2.668753
348.843	3.311390
349.206	0.000000
349.569	0.000000
349.932	2.479569
350.295	0.000000
350.658	0.000000
351.021	0.000000
351.383	0.000000
351.746	0.000000
352.109	0.000000
352.472	2.484402
352.835	0.000000
353.197	0.000000
353.560	2.705522
353.923	2.972961
354.285	2.229119
354.648	0.000000
355.011	0.000000
355.373	3.187592
355.736	2.711453
356.098	3.183608
356.461	3.485427
356.823	2.943245
357.185	2.554572
357.548	4.104123
357.910	2.616713
358.272	2.809411
358.635	2.547225
358.997	3.540896
359.359	2.538274
359.721	2.785488
360.083	2.400297
360.445	2.576396
360.807	3.172829
361.169	0.000000
361.531	3.470795
361.893	2.623449
362.255	0.000000
362.617	2.549749
362.979	2.509481
363.341	0.000000
363.703	2.934359
364.064	2.432217
364.426	2.642241
364.788	0.000000
365.149	0.000000
365.511	2.774202
365.873	3.140187
366.234	2.843435
366.596	2.448089
366.957	2.735660
367.319	2.909436
367.680	0.000000
368.042	3.819483
368.403	2.609975
368.764	2.506275
369.126	2.569121
369.487	2.448860
369.848	0.000000
370.209	2.741256
370.570	0.000000
370.931	2.485020
371.293	2.858622
371.654	2.521888
372.015	0.000000
372.376	2.707840
372.737	0.000000
373.098	2.747062
373.458	2.401187
373.819	2.461471
374.180	0.000000
374.541	3.556819
374.902	0.000000
375.263	0.000000
375.623	2.809213
375.984	2.683269
376.345	2.735978
376.705	2.353966
377.066	3.005946
377.426	2.239485
377.787	0.000000
378.147	0.000000
378.508	0.000000
378.868	2.763382
379.228	0.000000
379.589	3.502212
379.949	2.861405
380.309	0.000000
380.670	2.454585
381.030	2.777657
381.390	0.000000
381.750	2.317915
382.110	2.714878
382.470	0.000000
382.830	2.894995
383.190	0.000000
383.550	3.073468
383.910	0.000000
384.270	0.000000
384.630	2.690633
384.990	2.546626
385.350	3.548472
385.709	0.000000
386.069	0.000000
386.429	2.515902
386.788	2.599664
387.148	0.000000
387.508	2.910532
387.867	0.000000
388.227	2.933084
388.586	0.000000
388.946	2.896996
389.305	2.919440
389.665	3.042390
390.024	2.792470
390.383	2.481581
390.743	2.714947
391.102	0.000000
391.461	0.000000
391.820	2.682514
392.179	2.681502
392.539	0.000000
392.898	2.973279
393.257	2.583927
393.616	2.938349
393.975	2.574854
394.334	2.874467
394.693	2.753319
395.051	3.260393
395.410	2.943929
395.769	2.486234
396.128	0.000000
396.487	2.887277
396.845	0.000000
397.204	2.569637
397.563	2.763721
397.921	3.225895
398.280	0.000000
398.638	2.692489
398.997	0.000000
399.355	0.000000
399.714	2.825436
400.072	0.000000
400.431	0.000000
400.789	2.267299
401.147	2.569705
401.506	2.428791
401.864	3.031546
402.222	0.000000
402.580	0.000000
402.938	2.753284
403.297	2.434598
403.655	4.432888
404.013	2.534902
404.371	2.662442
404.729	2.898683
405.087	2.939472
405.444	2.484452
405.802	2.437204
406.160	2.997362
406.518	2.531302
406.876	3.741175
407.233	5.289061
407.591	2.811815
407.949	2.762596
408.306	0.000000
408.664	3.082320
409.022	3.020271
409.379	3.505787
409.737	2.246587
410.094	2.506337
410.451	2.764105
410.809	0.000000
411.166	2.514319
411.523	2.646027
411.881	2.464502
412.238	2.448733
412.595	2.448812
412.952	2.286341
413.310	2.595454
413.667	2.298923
414.024	2.469049
414.381	2.430014
414.738	2.482388
415.095	0.000000
415.452	2.497334
415.809	0.000000
416.165	2.936323
416.522	2.511135
416.879	4.086041
417.236	2.085922
417.593	2.339021
417.949	2.235391
418.306	2.383489
418.663	2.337227
419.019	2.344585
419.376	2.952983
419.732	2.652725
420.089	2.827859
420.445	2.252463
420.802	2.627661
421.158	0.000000
421.514	2.430233
421.871	2.559592
422.227	2.286218
422.583	2.463117
422.939	2.749987
423.295	2.591367
423.652	2.653592
424.008	2.578173
424.364	2.416538
424.720	2.793509
425.076	2.284503
425.432	2.273223
425.788	2.221127
426.143	3.158602
426.499	2.321613
426.855	2.576852
427.211	2.275263
427.567	2.254979
427.922	2.400287
428.278	2.574762
428.634	2.607902
428.989	2.289992
429.345	2.310847
429.700	2.298311
430.056	2.139191
430.411	2.805273
430.767	2.154928
431.122	2.379473
431.478	2.912514
431.833	2.269957
432.188	2.300011
432.543	2.648133
432.899	2.191081
433.254	2.383438
433.609	2.309120
433.964	2.303928
434.319	2.235431
434.674	2.155317
435.029	2.436806
435.384	2.460043
435.739	2.157910
436.094	2.211113
436.449	2.501568
436.804	2.267774
437.158	2.038881
437.513	2.417254
437.868	2.401058
438.223	2.518425
438.577	2.215392
438.932	2.280440
439.287	2.111265
439.641	2.302737
439.996	2.210863
440.350	2.111155
440.704	2.285384
441.059	2.104595
441.413	2.017171
441.768	2.069682
442.122	2.043797
442.476	2.030321
442.830	2.214037
443.185	2.221347
443.539	2.141386
443.893	2.073220
444.247	2.061947
444.601	1.938511
444.955	2.070186
445.309	1.930119
445.663	1.981954
446.017	1.907306
446.371	1.981025
446.724	1.899327
447.078	2.012458
447.432	1.949011
447.786	2.026287
448.139	2.090057
448.493	1.957807
448.847	1.937317
449.200	1.957080
449.554	2.031717
449.907	1.858214
450.261	2.092040
450.614	1.928076
450.968	1.916198
451.321	1.900151
451.674	1.966510
452.027	1.893111
452.381	1.854974
452.734	1.906696
453.087	1.916348
453.440	1.859457
453.793	1.800700
454.146	1.840542
454.499	1.812445
454.852	1.808367
455.205	1.852021
455.558	1.819806
455.911	1.807518
456.264	1.864439
456.617	1.785165
456.970	1.865075
457.322	1.876567
457.675	1.918274
458.028	1.831060
458.380	1.813831
458.733	1.788626
459.086	1.749629
459.438	1.873096
459.791	1.867981
460.143	1.779274
460.496	1.782191
460.848	1.832999
461.200	1.702923
461.553	1.697173
461.905	1.712279
462.257	1.862441
462.609	1.704944
462.961	1.716365
463.314	1.747664
463.666	1.729931
464.018	1.678139
464.370	1.722055
464.722	1.672767
465.074	1.687117
465.426	1.695740
465.777	1.676156
466.129	1.656606
466.481	1.680678
466.833	1.636024
467.184	1.677181
467.536	1.660264
467.888	1.643656
468.239	1.663188
468.591	1.685867
468.943	1.653254
469.294	1.735557
469.646	1.593282
469.997	1.654303
470.348	1.693494
470.700	1.675683
471.051	1.647448
471.402	1.593444
471.754	1.698090
472.105	1.663636
472.456	1.608151
472.807	1.552746
473.158	1.606014
473.509	1.503158
473.860	1.597159
474.211	1.585543
474.562	1.575541
474.913	1.567913
475.264	1.540875
475.615	1.586021
475.966	1.548846
476.316	1.577169
476.667	1.566671
477.018	1.550707
477.368	1.554878
477.719	1.538847
478.070	1.531499
478.420	1.497517
478.771	1.556488
479.121	1.569062
479.472	1.475031
479.822	1.517986
480.172	1.514812
480.523	1.510803
480.873	1.488877
481.223	1.496529
481.573	1.508876
481.924	1.498287
482.274	1.482322
482.624	1.501250
482.974	1.484151
483.324	1.496418
483.674	1.477566
484.024	1.497684
484.374	1.481221
484.724	1.460569
485.073	1.446219
485.423	1.450280
485.773	1.427311
486.123	1.429586
486.472	1.416943
486.822	1.438520
487.172	1.423543
487.521	1.414379
487.871	1.427307
488.220	1.432386
488.570	1.427011
488.919	1.415123
489.268	1.404499
489.618	1.411231
489.967	1.413939
490.316	1.402591
490.666	1.409073
491.015	1.404936
491.364	1.412731
491.713	1.396651
492.062	1.416800
492.411	1.385532
492.760	1.385296
493.109	1.377978
493.458	1.406758
493.807	1.363375
494.156	1.372706
494.505	1.376048
494.853	1.365251
495.202	1.367515
495.551	1.354351
495.900	1.359230
496.248	1.353432
496.597	1.342278
496.945	1.366738
497.294	1.343892
497.642	1.341248
497.991	1.350277
498.339	1.344091
498.688	1.325812
499.036	1.344018
499.384	1.322370
499.732	1.325213
500.081	1.337329
500.429	1.343333
500.777	1.334673
501.125	1.313984
501.473	1.313620
501.821	1.335591
502.169	1.305750
502.517	1.286090
502.865	1.303729
503.213	1.319245
503.561	1.302452
503.908	1.289342
504.256	1.274224
504.604	1.282957
504.952	1.276395
505.299	1.295600
505.647	1.286319
505.994	1.258389
506.342	1.285651
506.689	1.256539
507.037	1.268252
507.384	1.262180
507.732	1.268690
508.079	1.246590
508.426	1.250277
508.774	1.244368
509.121	1.261932
509.468	1.243002
509.815	1.247057
510.162	1.252645
510.509	1.249390
510.856	1.248507
511.203	1.228355
511.550	1.238046
511.897	1.246306
512.244	1.245965
512.591	1.217532
512.938	1.219319
513.284	1.209454
513.631	1.236522
513.978	1.211037
514.324	1.230749
514.671	1.221172
515.018	1.217913
515.364	1.213388
515.711	1.194709
516.057	1.212338
516.403	1.206295
516.750	1.199844
517.096	1.201020
517.443	1.183177
517.789	1.194914
518.135	1.185141
518.481	1.198210
518.827	1.186590
519.173	1.172237
519.519	1.172728
519.865	1.167380
520.211	1.159652
520.557	1.151800
520.903	1.183665
521.249	1.184484
521.595	1.197475
521.941	1.170125
522.287	1.179487
522.632	1.161552
522.978	1.170981
523.324	1.140553
523.669	1.156991
524.015	1.149540
524.360	1.142693
524.706	1.129023
525.051	1.132519
525.397	1.150730
525.742	1.146881
526.087	1.126197
526.433	1.155046
526.778	1.136631
527.123	1.136003
527.468	1.135313
527.813	1.110645
528.158	1.136686
528.504	1.131315
528.849	1.104326
529.193	1.115984
529.538	1.125260
529.883	1.114478
530.228	1.110394
530.573	1.103078
530.918	1.104101
531.263	1.109010
531.607	1.084465
531.952	1.094650
532.296	1.097167
532.641	1.109039
532.986	1.066224
533.330	1.071358
533.675	1.068985
534.019	1.067483
534.363	1.073366
534.708	1.064798
535.052	1.062641
535.396	1.066974
535.741	1.057198
536.085	1.063864
536.429	1.050502
536.773	1.062266
537.117	1.049454
537.461	1.060807
537.805	1.027731
538.149	1.037651
538.493	1.024716
538.837	1.037913
539.181	1.046518
539.524	1.032806
539.868	1.015684
540.212	1.025690
540.556	1.020485
540.899	1.027591
541.243	1.007645
541.586	1.010718
541.930	1.011864
542.273	1.011587
542.617	1.006030
542.960	0.999294
543.304	0.993959
543.647	0.992547
543.990	0.982744
544.333	0.986445
544.677	0.978451
545.020	0.991176
545.363	0.985553
545.706	0.982161
546.049	0.968260
546.392	0.960780
546.735	0.952220
547.078	0.964511
547.421	0.951379
547.764	0.947579
548.106	0.931406
548.449	0.933715
548.792	0.936386
549.135	0.925159
549.477	0.929739
549.820	0.929672
550.162	0.922614
550.505	0.921512
550.847	0.922060
551.190	0.913952
551.532	0.910373
551.875	0.890821
552.217	0.894820
552.559	0.881652
552.901	0.887290
553.244	0.887707
553.586	0.890693
553.928	0.878692
554.270	0.875229
554.612	0.867341
554.954	0.860672
555.296	0.862901
555.638	0.854003
555.980	0.863310
556.322	0.838974
556.663	0.845993
557.005	0.851048
557.347	0.840053
557.689	0.827901
558.030	0.832083
558.372	0.826289
558.713	0.819414
559.055	0.831466
559.396	0.810048
559.738	0.806572
560.079	0.804911
560.421	0.803668
560.762	0.798382
561.103	0.787926
561.444	0.778108
561.786	0.784272
562.127	0.781706
562.468	0.779215
562.809	0.777400
563.150	0.767567
563.491	0.763669
563.832	0.758074
564.173	0.748540
564.514	0.739776
564.855	0.741979
565.195	0.744734
565.536	0.737320
565.877	0.737423
566.218	0.735955
566.558	0.727830
566.899	0.722291
567.239	0.727006
567.580	0.721324
567.920	0.715083
568.261	0.703299
568.601	0.705980
568.941	0.705511
569.282	0.699796
569.622	0.693899
569.962	0.691732
570.302	0.684693
570.643	0.684254
570.983	0.674778
571.323	0.670649
571.663	0.672151
572.003	0.662664
572.343	0.662676
572.683	0.654417
573.022	0.642304
573.362	0.625843
573.702	0.599267
574.042	0.576397
574.381	0.561374
574.721	0.559281
575.061	0.554950
575.400	0.554402
575.740	0.553490
576.079	0.552122
576.419	0.536715
576.758	0.509317
577.097	0.481327
577.437	0.463017
577.776	0.455076
578.115	0.454007
578.454	0.450536
578.794	0.461748
579.133	0.476377
579.472	0.487666
579.811	0.488003
580.150	0.463947
580.489	0.424982
580.828	0.391810
581.167	0.367259
581.505	0.350727
581.844	0.345594
582.183	0.353088
582.522	0.388372
582.860	0.432185
583.199	0.474979
583.538	0.505258
583.876	0.514387
584.215	0.503461
584.553	0.483738
584.891	0.464342
585.230	0.456839
585.568	0.456515
585.906	0.462963
586.245	0.474013
586.583	0.485352
586.921	0.494470
587.259	0.498308
587.597	0.497206
587.935	0.504708
588.273	0.520445
588.611	0.540876
588.949	0.553151
589.287	0.555417
589.625	0.555323
589.963	0.553409
590.300	0.555386
590.638	0.553139
590.976	0.553302
591.313	0.549538
591.651	0.548137
591.989	0.546291
592.326	0.541752
592.664	0.537820
593.001	0.536618
593.338	0.535349
593.676	0.532076
594.013	0.533173
594.350	0.534378
594.687	0.530948
595.025	0.528433
595.362	0.533743
595.699	0.529432
596.036	0.529443
596.373	0.528839
596.710	0.530835
597.047	0.532117
597.384	0.523305
597.720	0.526162
598.057	0.524902
598.394	0.523424
598.731	0.523621
599.067	0.521084
599.404	0.518276
599.741	0.519998
600.077	0.514968
600.414	0.515849
600.750	0.515917
601.087	0.514817
601.423	0.515458
601.759	0.510106
602.096	0.508022
602.432	0.507852
602.768	0.509230
603.104	0.505282
603.440	0.505747
603.776	0.507435
604.112	0.506661
604.448	0.509343
604.784	0.503008
605.120	0.504330
605.456	0.502885
605.792	0.502832
606.128	0.502193
606.463	0.499382
606.799	0.497304
607.135	0.498662
607.470	0.499156
607.806	0.491642
608.142	0.491495
608.477	0.497649
608.812	0.497013
609.148	0.495350
609.483	0.493677
609.819	0.491979
610.154	0.492388
610.489	0.489583
610.824	0.490858
611.159	0.489565
611.494	0.489155
611.830	0.486012
612.165	0.487806
612.500	0.485179
612.834	0.485879
613.169	0.486015
613.504	0.481837
613.839	0.487246
614.174	0.482872
614.509	0.485311
614.843	0.481609
615.178	0.482757
615.512	0.481403
615.847	0.474707
616.182	0.479124
616.516	0.478138
616.850	0.475802
617.185	0.477393
617.519	0.475516
617.853	0.473691
618.188	0.475311
618.522	0.473428
618.856	0.474844
619.190	0.470553
619.524	0.473227
619.858	0.468360
620.192	0.470871
620.526	0.473198
620.860	0.472004
621.194	0.465113
621.528	0.460542
621.862	0.465865
622.195	0.459701
622.529	0.464406
622.863	0.466007
623.196	0.464508
623.530	0.462281
623.864	0.457109
624.197	0.459483
624.530	0.459298
624.864	0.458321
625.197	0.457355
625.531	0.458243
625.864	0.457803
626.197	0.455054
626.530	0.458309
626.863	0.455789
627.196	0.457756
627.529	0.454978
627.862	0.455130
628.195	0.449504
628.528	0.457964
628.861	0.454185
629.194	0.459607
629.527	0.456388
629.860	0.449187
630.192	0.458833
630.525	0.448935
630.858	0.453663
631.190	0.451469
631.523	0.452586
631.855	0.439738
632.188	0.445503
632.520	0.449983
632.852	0.443725
633.185	0.443418
633.517	0.437845
633.849	0.448498
634.182	0.445846
634.514	0.452001
634.846	0.444631
635.178	0.438775
635.510	0.444551
635.842	0.439759
636.174	0.439808
636.506	0.435806
636.837	0.446081
637.169	0.435401
637.501	0.431331
637.833	0.442463
638.164	0.450729
638.496	0.438799
638.828	0.432480
639.159	0.431153
639.491	0.436391
639.822	0.444499
640.154	0.430857
640.485	0.450503
640.816	0.431718
641.147	0.428191
641.479	0.433837
641.810	0.440778
642.141	0.428981
642.472	0.444174
642.803	0.443283
643.134	0.438334
643.465	0.436036
643.796	0.437136
644.127	0.421172
644.458	0.420819
644.789	0.440589
645.119	0.435750
645.450	0.431868
645.781	0.419871
646.111	0.438592
646.442	0.420172
646.773	0.434368
647.103	0.420790
647.433	0.437213
647.764	0.423697
648.094	0.420710
648.425	0.420661
648.755	0.423924
649.085	0.424470
649.415	0.421530
649.745	0.417492
650.075	0.417821
650.405	0.429673
650.735	0.412466
651.065	0.416186
651.395	0.424568
651.725	0.414871
652.055	0.411040
652.385	0.420299
652.715	0.417789
653.044	0.422078
653.374	0.403267
653.704	0.421177
654.033	0.423758
654.363	0.426446
654.692	0.264962
655.022	0.003123
655.351	-0.000000
655.680	-0.000000
656.010	-0.000000
656.339	-0.000000
656.668	-0.000000
656.997	-0.000000
657.326	-0.000000
657.655	0.150527
657.984	0.322243
658.313	0.426776
658.642	0.419204
658.971	0.418687
659.300	0.410950
659.629	0.402596
659.958	0.409541
660.286	0.424910
660.615	0.419772
660.944	0.398632
661.272	0.415444
661.601	0.418209
661.929	0.400963
662.258	0.398700
662.586	0.405196
662.915	0.406006
663.243	0.399724
663.571	0.402977
663.899	0.411255
664.228	0.388052
664.556	0.409977
664.884	0.392034
665.212	0.392724
665.540	0.401574
665.868	0.399937
666.196	0.416187
666.524	0.411676
666.852	0.401863
667.179	0.384660
667.507	0.386066
667.835	0.392109
668.162	0.395019
668.490	0.399908
668.818	0.394544
669.145	0.400619
669.473	0.408306
669.800	0.396842
670.127	0.402653
670.455	0.396769
670.782	0.397663
671.109	0.397490
671.436	0.396839
671.764	0.394146
672.091	0.383933
672.418	0.395041
672.745	0.398619
673.072	0.387208
673.399	0.381888
673.726	0.392117
674.053	0.403547
674.379	0.395351
674.706	0.394901
675.033	0.393553
675.359	0.393028
675.686	0.393877
676.013	0.391319
676.339	0.395987
676.666	0.397354
676.992	0.390599
677.318	0.384711
677.645	0.365649
677.971	0.379322
678.297	0.382623
678.624	0.385554
678.950	0.389287
679.276	0.384843
679.602	0.382867
679.928	0.387226
680.254	0.384621
680.580	0.374041
680.906	0.376933
681.232	0.378147
681.558	0.375541
681.883	0.374850
682.209	0.381867
682.535	0.375062
682.860	0.387551
683.186	0.378794
683.511	0.379203
683.837	0.384713
684.162	0.381466
684.488	0.370007
684.813	0.367615
685.138	0.378961
685.464	0.362504
685.789	0.368591
686.114	0.377769
686.439	0.367022
686.764	0.369377
687.089	0.368538
687.414	0.369949
687.739	0.373564
688.064	0.366308
688.389	0.374268
688.714	0.362093
689.039	0.363391
689.363	0.379200
689.688	0.377639
690.013	0.365027
690.337	0.384071
690.662	0.362786
690.986	0.360159
691.311	0.358954
691.635	0.366148
691.959	0.358358
692.284	0.371459
692.608	0.361202
692.932	0.370066
693.256	0.366499
693.580	0.362692
693.904	0.371226
694.228	0.360574
694.552	0.367535
694.876	0.363793
695.200	0.358715
695.524	0.359763
695.848	0.367322
696.172	0.364510
696.495	0.367790
696.819	0.355226
697.143	0.377333
697.466	0.355662
697.790	0.355128
698.113	0.353556
698.437	0.363183
698.760	0.366608
699.083	0.359251
699.407	0.352745
699.730	0.351963
700.053	0.360951
700.376	0.362025
700.699	0.371620
701.022	0.361324
701.345	0.358690
701.668	0.350743
701.991	0.366268
702.314	0.368510
702.637	0.364864
702.960	0.354211
703.283	0.358392
703.605	0.365198
703.928	0.358429
704.251	0.360433
704.573	0.357233
704.896	0.346412
705.218	0.351222
705.540	0.353842
705.863	0.344697
706.185	0.345348
706.507	0.350164
706.830	0.352964
707.152	0.352784
707.474	0.353865
707.796	0.344438
708.118	0.341224
708.440	0.336966
708.762	0.347181
709.084	0.353978
709.406	0.351821
709.728	0.353844
710.049	0.337802
710.371	0.339736
710.693	0.367861
711.014	0.354559
711.336	0.348921
711.658	0.349531
711.979	0.343214
712.301	0.347077
712.622	0.343593
712.943	0.345510
713.265	0.336904
713.586	0.340492
713.907	0.340637
714.228	0.347672
714.549	0.332636
714.870	0.342190
715.191	0.331759
715.512	0.351935
715.833	0.342524
716.154	0.354697
716.475	0.345405
716.796	0.345593
717.117	0.344006
717.437	0.340039
717.758	0.357286
718.078	0.357733
718.399	0.327188
718.719	0.339579
719.040	0.353853
719.360	0.358310
719.681	0.339238
720.001	0.332120
720.321	0.337124
720.642	0.331774
720.962	0.337216
721.282	0.336002
721.602	0.327492
721.922	0.348089
722.242	0.340445
722.562	0.340203
722.882	0.333911
723.202	0.327766
723.521	0.339865
723.841	0.328630
724.161	0.325220
724.481	0.339712
724.800	0.336532
725.120	0.339090
725.439	0.326430
725.759	0.338142
726.078	0.334120
726.398	0.327334
726.717	0.329499
727.036	0.338818
727.355	0.349335
727.675	0.328349
727.994	0.312476
728.313	0.330411
728.632	0.326298
728.951	0.330964
729.270	0.343457
729.589	0.321339
729.908	0.334442
730.226	0.313804
730.545	0.327447
730.864	0.318015
731.182	0.320574
731.501	0.324280
731.820	0.337546
732.138	0.327875
732.457	0.325089
732.775	0.325258
733.093	0.324003
733.412	0.314837
733.730	0.328554
734.048	0.313926
734.367	0.327327
734.685	0.320299
735.003	0.314247
735.321	0.315792
735.639	0.327007
735.957	0.323157
736.275	0.332989
736.593	0.319784
736.910	0.332348
737.228	0.325186
737.546	0.332857
737.863	0.311108
738.181	0.312214
738.499	0.318559
738.816	0.327493
739.134	0.327928
739.451	0.313246
739.768	0.315459
740.086	0.326202
740.403	0.313647
740.720	0.325307
741.038	0.334251
741.355	0.318552
741.672	0.315185
741.989	0.317019
742.306	0.319734
742.623	0.316275
742.940	0.306551
743.257	0.310359
743.573	0.318758
743.890	0.321860
744.207	0.307329
744.523	0.307920
744.840	0.324764
745.157	0.327284
745.473	0.322870
745.790	0.305301
746.106	0.306890
746.422	0.334230
746.739	0.322359
747.055	0.309618
747.371	0.328919
747.687	0.326723
748.004	0.314808
748.320	0.324645
748.636	0.325315
748.952	0.320412
749.268	0.302059
749.584	0.321918
749.899	0.312983
750.215	0.302612
750.531	0.312384
750.847	0.318614
751.162	0.314270
751.478	0.311257
751.793	0.313234
752.109	0.310110
752.424	0.301689
752.740	0.302221
753.055	0.308020
753.370	0.310342
753.686	0.309677
754.001	0.323282
754.316	0.306367
754.631	0.305315
754.946	0.299897
755.261	0.303126
755.576	0.292865
755.891	0.304047
756.206	0.311065
756.521	0.290313
756.836	0.303884
757.150	0.299535
757.465	0.297287
757.780	0.301809
758.094	0.303447
758.409	0.308872
758.723	0.298391
759.038	0.303282
759.352	0.306263
759.667	0.307023
759.981	0.302563
760.295	0.298193
760.609	0.306068
760.923	0.290652
761.238	0.293208
761.552	0.301497
761.866	0.293381
762.180	0.294277
762.493	0.303353
762.807	0.297392
763.121	0.296056
763.435	0.296984
763.749	0.299209
764.062	0.298986
764.376	0.298939
764.689	0.300492
765.003	0.289698
765.316	0.302189
765.630	0.301157
765.943	0.290944
766.257	0.297483
766.570	0.295006
766.883	0.291058
767.196	0.289031
767.509	0.296780
767.822	0.295786
768.135	0.302710
768.448	0.296513
768.761	0.297747
769.074	0.295526
769.387	0.286382
769.700	0.288852
770.013	0.287622
770.325	0.288619
770.638	0.284529
770.950	0.284859
771.263	0.287993
771.575	0.287356
771.888	0.282777
772.200	0.292347
772.513	0.284921
772.825	0.289627
773.137	0.278353
773.449	0.282385
773.761	0.301385
774.074	0.277536
774.386	0.281997
774.698	0.286281
775.010	0.277848
775.321	0.287018
775.633	0.289702
775.945	0.295797
776.257	0.279305
776.568	0.287346
776.880	0.300634
777.192	0.296076
777.503	0.276341
777.815	0.287902
778.126	0.292902
778.438	0.271837
778.749	0.286658
779.060	0.286853
779.372	0.279520
779.683	0.273224
779.994	0.295530
780.305	0.280693
780.616	0.293119
780.927	0.291572
781.238	0.289528
781.549	0.284965
781.860	0.280093
782.171	0.279168
782.481	0.278220
782.792	0.270204
783.103	0.284768
783.413	0.282338
783.724	0.278435
784.034	0.295304
784.345	0.282834
784.655	0.280894
784.966	0.283382
785.276	0.279201
785.586	0.277326
785.896	0.283861
786.207	0.282207
786.517	0.288943
786.827	0.272907
787.137	0.280526
787.447	0.273835
787.757	0.285757
788.066	0.293624
788.376	0.285560
788.686	0.275412
788.996	0.269212
789.305	0.285611
789.615	0.269822
789.925	0.284421
790.234	0.289547
790.544	0.277880
790.853	0.283031
791.162	0.292812
791.472	0.276576
791.781	0.267534
792.090	0.275313
792.399	0.271440
792.708	0.283846
793.017	0.266464
793.326	0.288074
793.635	0.279192
793.944	0.279333
794.253	0.281883
794.562	0.286517
794.871	0.263490
795.179	0.270156
795.488	0.294203
795.797	0.284759
796.105	0.281690
796.414	0.273602
796.722	0.296896
797.031	0.266952
797.339	0.278242
797.647	0.265195
797.956	0.261663
798.264	0.281691
798.572	0.280164
798.880	0.284463
799.188	0.297285
799.496	0.280288
799.804	0.288746
800.112	0.269434
800.420	0.282140
800.728	0.290008
801.035	0.288077
801.343	0.260372
801.651	0.269437
801.958	0.266601
802.266	0.281906
802.573	0.256973
802.881	0.272829
803.188	0.291505
803.496	0.279624
803.803	0.284591
804.110	0.279017
804.417	0.272936
804.724	0.281983
805.032	0.264137
805.339	0.258258
805.646	0.291939
805.953	0.280155
806.259	0.286714
806.566	0.277454
806.873	0.263620
807.180	0.275499
807.486	0.271714
807.793	0.266064
808.100	0.253901
808.406	0.266316
808.713	0.258031
809.019	0.276662
809.326	0.303304
809.632	0.287755
809.938	0.265533
810.244	0.247351
810.551	0.279746
810.857	0.282487
811.163	0.281494
811.469	0.305435
811.775	0.240446
812.081	0.296369
812.387	0.284026
812.692	0.276020
812.998	0.277403
813.304	0.266857
813.610	0.251588
813.915	0.266417
814.221	0.261256
814.526	0.280852
814.832	0.258669
815.137	0.267340
815.443	0.342741
815.748	0.258787
816.053	0.289514
816.358	0.242282
816.664	0.280906
816.969	0.269526
817.274	0.277221
817.579	0.279307
817.884	0.277887
818.189	0.284905
818.493	0.273290
818.798	0.298507
819.103	0.272385
819.408	0.284456
819.712	0.274284
820.017	0.296730
820.321	0.297502
820.626	0.292042
820.930	0.279626
821.235	0.284020
821.539	0.291279
821.843	0.275279
822.148	0.271384
822.452	0.320763
822.756	0.270043
823.060	0.257183
823.364	0.292333
823.668	0.265347
823.972	0.284460
824.276	0.264707
824.580	0.292928
824.883	0.261538
825.187	0.301869
825.491	0.296698
825.795	0.262464
826.098	0.296260
826.402	0.297462
826.705	0.254111
827.008	0.257712
827.312	0.265908
827.615	0.295334
827.918	0.302223
828.222	0.267784
828.525	0.291756
828.828	0.278582
829.131	0.282530
829.434	0.281039
829.737	0.267396
830.040	0.296194
830.343	0.339812
830.645	0.285367
830.948	0.252574
831.251	0.356710
831.553	0.315603
831.856	0.327136
832.159	0.291782
832.461	0.317467
832.764	0.265689
833.066	0.263726
833.368	0.250937
833.671	0.241906
833.973	0.269290
834.275	0.281355
834.577	0.249983
834.879	0.255821
835.181	0.287029
835.483	0.250965
835.785	0.316614
836.087	0.322702
836.389	0.229146
836.690	0.297015
836.992	0.309675
837.294	0.295701
837.595	0.324400
837.897	0.309039
838.198	0.362725
838.500	0.333768
838.801	0.284968
839.103	0.278460
839.404	0.308361
839.705	0.319901
840.006	0.299725
840.307	0.335076
840.608	0.284205
840.910	0.150077
841.210	0.276146
841.511	0.260262
841.812	0.165533
842.113	0.256374
842.414	0.272768
842.715	0.269903
843.015	0.381790
843.316	0.194080
843.616	0.365149
843.917	0.322106
844.217	0.305876
844.518	0.324574
844.818	0.300627
845.118	0.329675
845.419	0.376093
845.719	0.320516
846.019	0.354222
846.319	0.271293
846.619	0.326747
846.919	0.343423
847.219	0.276457
847.519	0.242909
847.819	0.325334
848.118	0.316018
848.418	0.271275
848.718	0.231203
849.017	0.317075
849.317	0.338948
849.616	0.321478
849.916	0.284866
850.215	0.320087
850.515	0.388702
850.814	0.344750
851.113	0.264141
851.412	0.297170
851.712	0.284970
852.011	0.221584
852.310	0.320778
852.609	0.279826
852.908	0.210837
853.206	0.251382
853.505	0.242049
853.804	0.242891
854.103	0.256980
854.401	0.281334
854.700	0.270676
854.999	0.297110
855.297	0.271634
855.595	0.256121
855.894	0.255811
856.192	0.292850
856.491	0.279263
856.789	0.279994
857.087	0.260028
857.385	0.352055
857.683	0.273747
857.981	0.335173
858.279	0.259258
858.577	0.263357
858.875	0.232564
859.173	0.290446
859.471	0.317692
859.768	0.363562
860.066	0.362456
860.363	0.326476
860.661	0.261433
860.959	0.257880
861.256	0.162010
861.553	0.264488
861.851	0.204571
862.148	0.281085
862.445	0.282470
862.742	0.292175
863.039	0.313761
863.337	0.306928
863.634	0.197565
863.931	0.256926
864.227	0.327623
864.524	0.305423
864.821	0.288666
865.118	0.358876
865.415	0.272636
865.711	0.150221
866.008	0.317610
866.304	0.299467
866.601	0.287151
866.897	0.346607
867.194	0.331307
867.490	0.218921
867.786	0.393098
868.082	0.353614
868.379	0.600822
868.675	0.471146
868.971	0.312696
869.267	0.369620
869.563	0.232792
869.859	0.410031
870.154	0.248236
870.450	0.290025
870.746	0.350868
871.042	0.333207
871.337	0.246241
871.633	0.322210
871.928	0.308075
872.224	0.358463
872.519	0.237019
872.815	0.265885
873.110	0.463709
873.405	0.342898
873.700	0.219918
873.995	0.285279
874.291	0.311873
874.586	0.369709
874.881	0.280997
875.175	0.365730
875.470	0.210353
875.765	0.346234
876.060	0.281455
876.355	0.374650
876.649	0.293174
876.944	0.227310
877.238	0.338449
877.533	0.289424
877.827	0.299935
878.122	0.323387
878.416	0.213249
878.710	0.293484
879.005	0.311919
879.299	0.277884
879.593	0.303488
879.887	0.315181
880.181	0.239007
880.475	0.318590
880.769	0.290896
881.063	0.366186
881.356	0.315010
881.650	0.438561
881.944	0.471648
882.238	0.275446
882.531	0.255048
882.825	0.333957
883.118	0.278404
883.412	0.247528
883.705	0.257141
883.998	0.371542
884.291	0.215667
884.585	0.285868
884.878	0.340689
>>>>>>>>>> END of Data <<<<<<<<<<
