Date	2021年06月15日火曜日 04時29分08秒
Spectrometers	USB2+H05879
ダーク	使用
リファレンス	使用
積分時間[msec]	10
平均回数	280
ｽﾑｰｼﾞﾝｸﾞ	10
Electrical Dark	USE
ピクセル数	2048
計測モード	吸光度
保存開始波長[nm]	190.664
保存終了波長[nm]	884.878
保存ﾋﾟｯﾁ波長[nm]	全波長

>>>>>>>>>> Data Start <<<<<<<<<<<<
190.664	0.000000
191.040	0.000000
191.415	0.000000
191.791	-2.425039
192.166	-0.376611
192.542	-0.797106
192.917	0.000000
193.293	-0.489989
193.668	-0.584804
194.044	-0.944592
194.419	0.000000
194.794	-1.347760
195.170	-1.270918
195.545	-1.176893
195.920	-1.040371
196.296	-0.926930
196.671	-0.772666
197.046	-0.629883
197.421	-0.577285
197.796	-0.566365
198.171	-0.522091
198.546	-0.472955
198.922	-0.422072
199.297	-0.406004
199.672	-0.392624
200.047	-0.371576
200.422	-0.339812
200.796	-0.333069
201.171	-0.316448
201.546	-0.311181
201.921	-0.304009
202.296	-0.291387
202.671	-0.264826
203.045	-0.239591
203.420	-0.235979
203.795	-0.225933
204.170	-0.224701
204.544	-0.218803
204.919	-0.216252
205.294	-0.207944
205.668	-0.194137
206.043	-0.192934
206.417	-0.200153
206.792	-0.201748
207.166	-0.190997
207.541	-0.184566
207.915	-0.192109
208.289	-0.183689
208.664	-0.186249
209.038	-0.186341
209.412	-0.171651
209.787	-0.156072
210.161	-0.152298
210.535	-0.151136
210.909	-0.141698
211.284	-0.138586
211.658	-0.144672
212.032	-0.147628
212.406	-0.157155
212.780	-0.154347
213.154	-0.160506
213.528	-0.158847
213.902	-0.153011
214.276	-0.143969
214.650	-0.137925
215.024	-0.136781
215.398	-0.130742
215.772	-0.120275
216.145	-0.122309
216.519	-0.111643
216.893	-0.107741
217.267	-0.112619
217.640	-0.116553
218.014	-0.105673
218.388	-0.097238
218.761	-0.100426
219.135	-0.083412
219.508	-0.086133
219.882	-0.084380
220.256	-0.070065
220.629	-0.063952
221.003	-0.066280
221.376	-0.073458
221.749	-0.083037
222.123	-0.089186
222.496	-0.094582
222.869	-0.090119
223.243	-0.093433
223.616	-0.095350
223.989	-0.091794
224.362	-0.089280
224.736	-0.090064
225.109	-0.084919
225.482	-0.080527
225.855	-0.078467
226.228	-0.082759
226.601	-0.087540
226.974	-0.091035
227.347	-0.082651
227.720	-0.080922
228.093	-0.089933
228.466	-0.098789
228.839	-0.099160
229.212	-0.096627
229.585	-0.098636
229.957	-0.093918
230.330	-0.087913
230.703	-0.088435
231.076	-0.084418
231.448	-0.086377
231.821	-0.091981
232.194	-0.091681
232.566	-0.097531
232.939	-0.098699
233.311	-0.104478
233.684	-0.104110
234.056	-0.105899
234.429	-0.102554
234.801	-0.101621
235.174	-0.096739
235.546	-0.095531
235.918	-0.091616
236.291	-0.089147
236.663	-0.079138
237.035	-0.080188
237.408	-0.069900
237.780	-0.056652
238.152	-0.063522
238.524	-0.067528
238.896	-0.060950
239.268	-0.057255
239.641	-0.055242
240.013	-0.051318
240.385	-0.040223
240.757	-0.036742
241.129	-0.040344
241.500	-0.042232
241.872	-0.037126
242.244	-0.032025
242.616	-0.039417
242.988	-0.039391
243.360	-0.031872
243.731	-0.025578
244.103	-0.024183
244.475	-0.022981
244.847	-0.017892
245.218	-0.016755
245.590	-0.028994
245.961	-0.021344
246.333	-0.024886
246.705	-0.032210
247.076	-0.025440
247.448	-0.018878
247.819	-0.017742
248.190	-0.007184
248.562	-0.012867
248.933	-0.004729
249.305	-0.006924
249.676	-0.005702
250.047	-0.010055
250.418	-0.007912
250.790	-0.006200
251.161	-0.007285
251.532	-0.012721
251.903	-0.010849
252.274	-0.008129
252.645	-0.009327
253.016	-0.013826
253.387	-0.013339
253.758	-0.011791
254.129	-0.004412
254.500	0.004407
254.871	-0.001723
255.242	-0.011782
255.613	-0.013817
255.984	-0.021339
256.355	-0.016954
256.725	-0.014007
257.096	-0.010479
257.467	-0.010433
257.838	-0.010987
258.208	-0.007407
258.579	-0.011177
258.949	-0.015507
259.320	-0.013360
259.690	-0.012734
260.061	-0.014231
260.431	-0.005520
260.802	-0.004772
261.172	0.001055
261.543	0.000668
261.913	-0.002544
262.283	-0.008096
262.654	-0.010937
263.024	-0.002885
263.394	-0.002698
263.764	-0.000544
264.135	-0.004625
264.505	-0.008390
264.875	-0.008216
265.245	-0.012500
265.615	-0.010871
265.985	-0.013965
266.355	-0.010335
266.725	-0.006215
267.095	-0.010390
267.465	-0.004440
267.835	-0.009185
268.205	-0.017409
268.575	-0.011650
268.944	-0.010195
269.314	-0.011678
269.684	-0.005432
270.054	-0.008492
270.423	-0.000978
270.793	-0.004074
271.163	-0.005204
271.532	-0.000690
271.902	0.002732
272.271	0.003642
272.641	0.002432
273.010	0.007318
273.380	0.001999
273.749	0.003115
274.119	0.005564
274.488	0.006070
274.857	0.013458
275.227	0.008295
275.596	0.015810
275.965	0.025727
276.335	0.022255
276.704	0.019991
277.073	0.020855
277.442	0.020582
277.811	0.021935
278.180	0.023343
278.549	0.027489
278.918	0.031147
279.287	0.021548
279.656	0.024653
280.025	0.023104
280.394	0.022114
280.763	0.023698
281.132	0.029567
281.501	0.029022
281.869	0.023373
282.238	0.022322
282.607	0.020231
282.976	0.019414
283.344	0.020583
283.713	0.011986
284.081	0.012826
284.450	0.016406
284.819	0.014925
285.187	0.012616
285.556	0.009463
285.924	0.005379
286.292	0.001841
286.661	-0.000889
287.029	0.006373
287.398	0.010221
287.766	0.011769
288.134	0.015993
288.502	0.014012
288.871	0.016136
289.239	0.023848
289.607	0.027574
289.975	0.030206
290.343	0.034550
290.711	0.034288
291.079	0.026928
291.447	0.036326
291.815	0.042285
292.183	0.044290
292.551	0.049608
292.919	0.056626
293.287	0.061313
293.655	0.067617
294.022	0.069793
294.390	0.071670
294.758	0.070565
295.126	0.060609
295.493	0.061726
295.861	0.067996
296.229	0.068047
296.596	0.065637
296.964	0.062207
297.331	0.058594
297.699	0.061368
298.066	0.060108
298.434	0.065634
298.801	0.068903
299.168	0.061486
299.536	0.057346
299.903	0.054134
300.270	0.051773
300.638	0.060314
301.005	0.070938
301.372	0.072160
301.739	0.078488
302.106	0.087628
302.473	0.096317
302.840	0.111474
303.207	0.129748
303.574	0.138037
303.941	0.151046
304.308	0.166259
304.675	0.180209
305.042	0.197750
305.409	0.218424
305.776	0.235248
306.143	0.253459
306.509	0.277514
306.876	0.304597
307.243	0.325709
307.610	0.350687
307.976	0.376118
308.343	0.397814
308.709	0.420376
309.076	0.455912
309.442	0.477194
309.809	0.498245
310.175	0.527586
310.542	0.550695
310.908	0.573046
311.275	0.597420
311.641	0.621582
312.007	0.646775
312.373	0.672659
312.740	0.698518
313.106	0.713264
313.472	0.737508
313.838	0.760540
314.204	0.777825
314.570	0.789942
314.936	0.813737
315.302	0.830574
315.668	0.847209
316.034	0.863728
316.400	0.883304
316.766	0.892972
317.132	0.911355
317.498	0.925382
317.864	0.934114
318.230	0.945460
318.595	0.954561
318.961	0.959411
319.327	0.971070
319.692	0.976859
320.058	0.980795
320.424	0.984120
320.789	0.993198
321.155	1.001046
321.520	1.007217
321.886	1.014123
322.251	1.021405
322.616	1.025753
322.982	1.031120
323.347	1.036071
323.712	1.040822
324.078	1.042629
324.443	1.044733
324.808	1.045827
325.173	1.049401
325.539	1.052492
325.904	1.053947
326.269	1.055718
326.634	1.059979
326.999	1.061701
327.364	1.063185
327.729	1.065357
328.094	1.067548
328.459	1.068452
328.823	1.067431
329.188	1.068252
329.553	1.068032
329.918	1.069798
330.283	1.069821
330.647	1.070489
331.012	1.070563
331.377	1.069475
331.741	1.069971
332.106	1.070466
332.470	1.071222
332.835	1.070997
333.199	1.070109
333.564	1.070387
333.928	1.070741
334.293	1.070840
334.657	1.069770
335.021	1.070333
335.386	1.069542
335.750	1.069584
336.114	1.069506
336.478	1.070359
336.843	1.069882
337.207	1.070131
337.571	1.069446
337.935	1.069503
338.299	1.068951
338.663	1.068390
339.027	1.068796
339.391	1.068490
339.755	1.068257
340.119	1.067717
340.483	1.066913
340.846	1.067862
341.210	1.068355
341.574	1.068591
341.938	1.068002
342.301	1.068284
342.665	1.067983
343.029	1.068620
343.392	1.068612
343.756	1.068237
344.119	1.068331
344.483	1.068838
344.846	1.068989
345.210	1.069739
345.573	1.069710
345.937	1.069991
346.300	1.070622
346.663	1.070970
347.027	1.071398
347.390	1.072028
347.753	1.072497
348.116	1.073318
348.479	1.073222
348.843	1.073069
349.206	1.072988
349.569	1.073465
349.932	1.074121
350.295	1.074663
350.658	1.075092
351.021	1.075971
351.383	1.076672
351.746	1.077060
352.109	1.077308
352.472	1.077562
352.835	1.077965
353.197	1.078865
353.560	1.079709
353.923	1.079540
354.285	1.079494
354.648	1.079864
355.011	1.080041
355.373	1.080747
355.736	1.081037
356.098	1.081619
356.461	1.082365
356.823	1.082893
357.185	1.083827
357.548	1.084225
357.910	1.084548
358.272	1.084989
358.635	1.084887
358.997	1.085126
359.359	1.085838
359.721	1.086142
360.083	1.086858
360.445	1.087330
360.807	1.087650
361.169	1.087691
361.531	1.088401
361.893	1.089202
362.255	1.089996
362.617	1.090770
362.979	1.090993
363.341	1.091291
363.703	1.091645
364.064	1.092045
364.426	1.092769
364.788	1.092732
365.149	1.093308
365.511	1.093941
365.873	1.094288
366.234	1.095014
366.596	1.095961
366.957	1.096239
367.319	1.096786
367.680	1.097169
368.042	1.096974
368.403	1.097216
368.764	1.098026
369.126	1.098498
369.487	1.098940
369.848	1.098882
370.209	1.099043
370.570	1.099556
370.931	1.100410
371.293	1.100817
371.654	1.101248
372.015	1.101768
372.376	1.102419
372.737	1.102894
373.098	1.103098
373.458	1.103698
373.819	1.104445
374.180	1.104878
374.541	1.105550
374.902	1.106056
375.263	1.106683
375.623	1.107620
375.984	1.108278
376.345	1.108520
376.705	1.109232
377.066	1.109904
377.426	1.110424
377.787	1.110929
378.147	1.111257
378.508	1.111547
378.868	1.112213
379.228	1.112441
379.589	1.112517
379.949	1.112692
380.309	1.112842
380.670	1.113303
381.030	1.113352
381.390	1.113366
381.750	1.113420
382.110	1.113374
382.470	1.113769
382.830	1.113928
383.190	1.114277
383.550	1.114261
383.910	1.114453
384.270	1.114541
384.630	1.114552
384.990	1.115101
385.350	1.115027
385.709	1.115018
386.069	1.115075
386.429	1.114506
386.788	1.114708
387.148	1.114940
387.508	1.115120
387.867	1.114876
388.227	1.114843
388.586	1.114772
388.946	1.114951
389.305	1.114849
389.665	1.114833
390.024	1.114562
390.383	1.114438
390.743	1.114121
391.102	1.113997
391.461	1.113396
391.820	1.113170
392.179	1.112632
392.539	1.112141
392.898	1.112065
393.257	1.112070
393.616	1.111950
393.975	1.111853
394.334	1.111519
394.693	1.111193
395.051	1.110715
395.410	1.110501
395.769	1.110282
396.128	1.110015
396.487	1.109301
396.845	1.108725
397.204	1.108065
397.563	1.107280
397.921	1.106379
398.280	1.105516
398.638	1.104298
398.997	1.103850
399.355	1.102838
399.714	1.101976
400.072	1.100805
400.431	1.099572
400.789	1.098334
401.147	1.097269
401.506	1.096178
401.864	1.095133
402.222	1.093613
402.580	1.092117
402.938	1.090951
403.297	1.089518
403.655	1.088385
404.013	1.087087
404.371	1.085823
404.729	1.084097
405.087	1.082999
405.444	1.081927
405.802	1.080637
406.160	1.079649
406.518	1.078268
406.876	1.076760
407.233	1.075375
407.591	1.074294
407.949	1.073083
408.306	1.071635
408.664	1.070132
409.022	1.068866
409.379	1.067207
409.737	1.065896
410.094	1.064566
410.451	1.063038
410.809	1.061581
411.166	1.059887
411.523	1.058541
411.881	1.057200
412.238	1.055948
412.595	1.054183
412.952	1.052665
413.310	1.051039
413.667	1.049816
414.024	1.048326
414.381	1.046990
414.738	1.045478
415.095	1.043540
415.452	1.041971
415.809	1.040476
416.165	1.038770
416.522	1.037023
416.879	1.035277
417.236	1.033356
417.593	1.031569
417.949	1.029517
418.306	1.027505
418.663	1.026034
419.019	1.024280
419.376	1.022493
419.732	1.020817
420.089	1.019533
420.445	1.017819
420.802	1.016202
421.158	1.014190
421.514	1.012489
421.871	1.010862
422.227	1.009068
422.583	1.007510
422.939	1.005453
423.295	1.003655
423.652	1.001798
424.008	0.999784
424.364	0.997905
424.720	0.996044
425.076	0.994234
425.432	0.992413
425.788	0.990375
426.143	0.987984
426.499	0.985595
426.855	0.983572
427.211	0.981441
427.567	0.979248
427.922	0.977226
428.278	0.974839
428.634	0.973022
428.989	0.970919
429.345	0.968774
429.700	0.966796
430.056	0.964874
430.411	0.962993
430.767	0.960994
431.122	0.958713
431.478	0.956555
431.833	0.954414
432.188	0.952200
432.543	0.949888
432.899	0.947532
433.254	0.945196
433.609	0.943080
433.964	0.940730
434.319	0.937892
434.674	0.935352
435.029	0.932782
435.384	0.930187
435.739	0.927888
436.094	0.925408
436.449	0.923035
436.804	0.920543
437.158	0.918002
437.513	0.915298
437.868	0.912894
438.223	0.910214
438.577	0.907810
438.932	0.905437
439.287	0.903001
439.641	0.900516
439.996	0.897963
440.350	0.895567
440.704	0.893196
441.059	0.890618
441.413	0.888146
441.768	0.885741
442.122	0.883365
442.476	0.880866
442.830	0.878388
443.185	0.876057
443.539	0.873597
443.893	0.871146
444.247	0.868754
444.601	0.866483
444.955	0.863971
445.309	0.861307
445.663	0.858618
446.017	0.856071
446.371	0.853279
446.724	0.850370
447.078	0.847777
447.432	0.845203
447.786	0.842438
448.139	0.839644
448.493	0.836856
448.847	0.834094
449.200	0.831351
449.554	0.828619
449.907	0.825816
450.261	0.823016
450.614	0.820339
450.968	0.817550
451.321	0.814665
451.674	0.811910
452.027	0.808956
452.381	0.806316
452.734	0.803472
453.087	0.800789
453.440	0.797904
453.793	0.795204
454.146	0.792582
454.499	0.789808
454.852	0.786852
455.205	0.784165
455.558	0.781568
455.911	0.779026
456.264	0.776456
456.617	0.773888
456.970	0.771415
457.322	0.769058
457.675	0.766834
458.028	0.764379
458.380	0.762143
458.733	0.759907
459.086	0.757690
459.438	0.755579
459.791	0.753086
460.143	0.750915
460.496	0.748628
460.848	0.746229
461.200	0.743841
461.553	0.741435
461.905	0.739100
462.257	0.736959
462.609	0.734807
462.961	0.732664
463.314	0.730456
463.666	0.728332
464.018	0.726225
464.370	0.724171
464.722	0.722179
465.074	0.719995
465.426	0.718086
465.777	0.716183
466.129	0.714297
466.481	0.712346
466.833	0.710329
467.184	0.708674
467.536	0.706644
467.888	0.704701
468.239	0.702804
468.591	0.700582
468.943	0.698355
469.294	0.696057
469.646	0.693729
469.997	0.691359
470.348	0.689073
470.700	0.686802
471.051	0.684614
471.402	0.682514
471.754	0.680528
472.105	0.678439
472.456	0.676650
472.807	0.674798
473.158	0.672909
473.509	0.671175
473.860	0.669447
474.211	0.667860
474.562	0.666132
474.913	0.664451
475.264	0.662743
475.615	0.661009
475.966	0.659528
476.316	0.657848
476.667	0.656167
477.018	0.654542
477.368	0.652916
477.719	0.651294
478.070	0.649751
478.420	0.648143
478.771	0.646552
479.121	0.644856
479.472	0.643236
479.822	0.641606
480.172	0.639957
480.523	0.638300
480.873	0.636395
481.223	0.634117
481.573	0.631786
481.924	0.629534
482.274	0.627483
482.624	0.625556
482.974	0.623920
483.324	0.622535
483.674	0.621451
484.024	0.620382
484.374	0.619308
484.724	0.618283
485.073	0.617254
485.423	0.616279
485.773	0.615222
486.123	0.614237
486.472	0.613252
486.822	0.612242
487.172	0.611212
487.521	0.610163
487.871	0.609146
488.220	0.608196
488.570	0.607220
488.919	0.606017
489.268	0.604550
489.618	0.602928
489.967	0.601134
490.316	0.598997
490.666	0.596692
491.015	0.594410
491.364	0.592338
491.713	0.590355
492.062	0.588588
492.411	0.586875
492.760	0.585156
493.109	0.583569
493.458	0.581967
493.807	0.580347
494.156	0.578758
494.505	0.577119
494.853	0.575516
495.202	0.573873
495.551	0.572236
495.900	0.570552
496.248	0.568905
496.597	0.567332
496.945	0.565771
497.294	0.564175
497.642	0.562643
497.991	0.561025
498.339	0.559461
498.688	0.557964
499.036	0.556610
499.384	0.555143
499.732	0.553725
500.081	0.552256
500.429	0.550766
500.777	0.549238
501.125	0.547808
501.473	0.546405
501.821	0.545043
502.169	0.543725
502.517	0.542379
502.865	0.540975
503.213	0.539651
503.561	0.538363
503.908	0.537103
504.256	0.535769
504.604	0.534447
504.952	0.533079
505.299	0.531781
505.647	0.530444
505.994	0.529052
506.342	0.527723
506.689	0.526312
507.037	0.524952
507.384	0.523603
507.732	0.522411
508.079	0.521178
508.426	0.519903
508.774	0.518604
509.121	0.517353
509.468	0.516108
509.815	0.514948
510.162	0.513796
510.509	0.512662
510.856	0.511487
511.203	0.510289
511.550	0.509107
511.897	0.507976
512.244	0.506894
512.591	0.505718
512.938	0.504543
513.284	0.503455
513.631	0.502228
513.978	0.501127
514.324	0.499995
514.671	0.498821
515.018	0.497550
515.364	0.496377
515.711	0.495236
516.057	0.494120
516.403	0.493001
516.750	0.491856
517.096	0.490677
517.443	0.489558
517.789	0.488440
518.135	0.487362
518.481	0.486276
518.827	0.485209
519.173	0.484091
519.519	0.482987
519.865	0.481944
520.211	0.480937
520.557	0.479830
520.903	0.478748
521.249	0.477652
521.595	0.476525
521.941	0.475499
522.287	0.474309
522.632	0.473108
522.978	0.471947
523.324	0.470773
523.669	0.469542
524.015	0.468288
524.360	0.467043
524.706	0.465828
525.051	0.464563
525.397	0.463295
525.742	0.462147
526.087	0.460939
526.433	0.459798
526.778	0.458667
527.123	0.457495
527.468	0.456269
527.813	0.455111
528.158	0.453931
528.504	0.452675
528.849	0.451376
529.193	0.450088
529.538	0.448876
529.883	0.447571
530.228	0.446174
530.573	0.444899
530.918	0.443631
531.263	0.442395
531.607	0.441204
531.952	0.439921
532.296	0.438745
532.641	0.437534
532.986	0.436186
533.330	0.434847
533.675	0.433551
534.019	0.432220
534.363	0.430856
534.708	0.429515
535.052	0.428170
535.396	0.426938
535.741	0.425757
536.085	0.424492
536.429	0.423231
536.773	0.421969
537.117	0.420595
537.461	0.419215
537.805	0.417692
538.149	0.416168
538.493	0.414697
538.837	0.413209
539.181	0.411725
539.524	0.410138
539.868	0.408552
540.212	0.406989
540.556	0.405429
540.899	0.403853
541.243	0.402302
541.586	0.400773
541.930	0.399246
542.273	0.397714
542.617	0.396019
542.960	0.394222
543.304	0.392475
543.647	0.390619
543.990	0.388783
544.333	0.387020
544.677	0.385295
545.020	0.383605
545.363	0.381884
545.706	0.380162
546.049	0.378406
546.392	0.376647
546.735	0.374896
547.078	0.373137
547.421	0.371340
547.764	0.369515
548.106	0.367613
548.449	0.365627
548.792	0.363667
549.135	0.361681
549.477	0.359731
549.820	0.357880
550.162	0.356067
550.505	0.354169
550.847	0.352268
551.190	0.350299
551.532	0.348249
551.875	0.346100
552.217	0.343896
552.559	0.341787
552.901	0.339607
553.244	0.337506
553.586	0.335467
553.928	0.333515
554.270	0.331633
554.612	0.329761
554.954	0.327908
555.296	0.325938
555.638	0.323949
555.980	0.321863
556.322	0.319680
556.663	0.317365
557.005	0.314949
557.347	0.312655
557.689	0.310406
558.030	0.308243
558.372	0.306013
558.713	0.303865
559.055	0.301738
559.396	0.299606
559.738	0.297374
560.079	0.295179
560.421	0.293003
560.762	0.290861
561.103	0.288668
561.444	0.286552
561.786	0.284451
562.127	0.282342
562.468	0.280288
562.809	0.278161
563.150	0.275902
563.491	0.273637
563.832	0.271318
564.173	0.268969
564.514	0.266502
564.855	0.263968
565.195	0.261346
565.536	0.258772
565.877	0.256172
566.218	0.253637
566.558	0.251152
566.899	0.248828
567.239	0.246663
567.580	0.244707
567.920	0.242920
568.261	0.241310
568.601	0.239746
568.941	0.238276
569.282	0.236881
569.622	0.235523
569.962	0.234151
570.302	0.232841
570.643	0.231592
570.983	0.230474
571.323	0.229366
571.663	0.228286
572.003	0.227236
572.343	0.226185
572.683	0.225020
573.022	0.223801
573.362	0.222519
573.702	0.221259
574.042	0.220010
574.381	0.218808
574.721	0.217613
575.061	0.216487
575.400	0.215458
575.740	0.214422
576.079	0.213394
576.419	0.212268
576.758	0.211064
577.097	0.209823
577.437	0.208515
577.776	0.207134
578.115	0.205756
578.454	0.204478
578.794	0.203355
579.133	0.202375
579.472	0.201484
579.811	0.200687
580.150	0.199897
580.489	0.199103
580.828	0.198207
581.167	0.197295
581.505	0.196368
581.844	0.195438
582.183	0.194477
582.522	0.193513
582.860	0.192604
583.199	0.191727
583.538	0.190929
583.876	0.190155
584.215	0.189426
584.553	0.188707
584.891	0.188050
585.230	0.187345
585.568	0.186586
585.906	0.185762
586.245	0.184887
586.583	0.184018
586.921	0.183229
587.259	0.182542
587.597	0.181876
587.935	0.181207
588.273	0.180455
588.611	0.179581
588.949	0.178643
589.287	0.177703
589.625	0.176746
589.963	0.175848
590.300	0.174998
590.638	0.174245
590.976	0.173506
591.313	0.172727
591.651	0.171924
591.989	0.171109
592.326	0.170363
592.664	0.169702
593.001	0.169044
593.338	0.168444
593.676	0.167922
594.013	0.167404
594.350	0.166874
594.687	0.166384
595.025	0.165987
595.362	0.165539
595.699	0.165036
596.036	0.164575
596.373	0.164109
596.710	0.163614
597.047	0.163074
597.384	0.162542
597.720	0.161974
598.057	0.161416
598.394	0.160864
598.731	0.160346
599.067	0.159807
599.404	0.159240
599.741	0.158666
600.077	0.158119
600.414	0.157662
600.750	0.157234
601.087	0.156836
601.423	0.156431
601.759	0.156023
602.096	0.155559
602.432	0.155141
602.768	0.154757
603.104	0.154346
603.440	0.153904
603.776	0.153511
604.112	0.153115
604.448	0.152772
604.784	0.152414
605.120	0.152088
605.456	0.151751
605.792	0.151418
606.128	0.151097
606.463	0.150804
606.799	0.150490
607.135	0.150191
607.470	0.149844
607.806	0.149484
608.142	0.149120
608.477	0.148775
608.812	0.148422
609.148	0.148099
609.483	0.147807
609.819	0.147507
610.154	0.147146
610.489	0.146803
610.824	0.146446
611.159	0.146129
611.494	0.145755
611.830	0.145467
612.165	0.145232
612.500	0.145036
612.834	0.144822
613.169	0.144602
613.504	0.144331
613.839	0.144043
614.174	0.143757
614.509	0.143461
614.843	0.143161
615.178	0.142867
615.512	0.142650
615.847	0.142423
616.182	0.142247
616.516	0.142035
616.850	0.141832
617.185	0.141676
617.519	0.141470
617.853	0.141236
618.188	0.140929
618.522	0.140623
618.856	0.140282
619.190	0.139915
619.524	0.139530
619.858	0.139203
620.192	0.138908
620.526	0.138622
620.860	0.138444
621.194	0.138193
621.528	0.137954
621.862	0.137715
622.195	0.137509
622.529	0.137184
622.863	0.136917
623.196	0.136590
623.530	0.136349
623.864	0.136117
624.197	0.135876
624.530	0.135596
624.864	0.135374
625.197	0.135219
625.531	0.135009
625.864	0.134807
626.197	0.134582
626.530	0.134388
626.863	0.134153
627.196	0.133908
627.529	0.133649
627.862	0.133332
628.195	0.133084
628.528	0.132768
628.861	0.132446
629.194	0.132148
629.527	0.131871
629.860	0.131609
630.192	0.131287
630.525	0.130883
630.858	0.130531
631.190	0.130135
631.523	0.129840
631.855	0.129438
632.188	0.129026
632.520	0.128717
632.852	0.128367
633.185	0.128054
633.517	0.127767
633.849	0.127473
634.182	0.127221
634.514	0.127044
634.846	0.126854
635.178	0.126645
635.510	0.126510
635.842	0.126382
636.174	0.126201
636.506	0.126068
636.837	0.125819
637.169	0.125680
637.501	0.125512
637.833	0.125362
638.164	0.125253
638.496	0.125061
638.828	0.124830
639.159	0.124617
639.491	0.124334
639.822	0.123990
640.154	0.123561
640.485	0.123093
640.816	0.122646
641.147	0.122244
641.479	0.121755
641.810	0.121348
642.141	0.120911
642.472	0.120447
642.803	0.120048
643.134	0.119652
643.465	0.119251
643.796	0.118891
644.127	0.118582
644.458	0.118392
644.789	0.118167
645.119	0.118011
645.450	0.117981
645.781	0.118157
646.111	0.118378
646.442	0.118512
646.773	0.118664
647.103	0.118749
647.433	0.118789
647.764	0.118834
648.094	0.118726
648.425	0.118757
648.755	0.118787
649.085	0.118795
649.415	0.118757
649.745	0.118835
650.075	0.118904
650.405	0.118902
650.735	0.117566
651.065	0.109172
651.395	0.101946
651.725	0.090037
652.055	0.061655
652.385	0.045578
652.715	0.035208
653.044	0.027969
653.374	0.022661
653.704	0.018608
654.033	0.025051
654.363	0.030591
654.692	0.033780
655.022	0.035662
655.351	0.036803
655.680	0.037476
656.010	0.037838
656.339	0.037998
656.668	0.038029
656.997	0.037992
657.326	0.037913
657.655	0.037826
657.984	0.037330
658.313	0.034471
658.642	0.031077
658.971	0.036063
659.300	0.042424
659.629	0.050836
659.958	0.062467
660.286	0.079618
660.615	0.107451
660.944	0.114992
661.272	0.113550
661.601	0.112816
661.929	0.112630
662.258	0.112817
662.586	0.113020
662.915	0.113068
663.243	0.112918
663.571	0.112619
663.899	0.112363
664.228	0.112175
664.556	0.111981
664.884	0.111772
665.212	0.111636
665.540	0.111581
665.868	0.111485
666.196	0.111437
666.524	0.111314
666.852	0.111267
667.179	0.111150
667.507	0.111004
667.835	0.111039
668.162	0.111072
668.490	0.111117
668.818	0.111206
669.145	0.111347
669.473	0.111504
669.800	0.111693
670.127	0.111867
670.455	0.112034
670.782	0.112154
671.109	0.112183
671.436	0.112290
671.764	0.112432
672.091	0.112487
672.418	0.112520
672.745	0.112602
673.072	0.112700
673.399	0.112766
673.726	0.112703
674.053	0.112726
674.379	0.112799
674.706	0.112790
675.033	0.112696
675.359	0.112608
675.686	0.112553
676.013	0.112405
676.339	0.112302
676.666	0.112132
676.992	0.112054
677.318	0.111971
677.645	0.111980
677.971	0.111944
678.297	0.111900
678.624	0.111866
678.950	0.111813
679.276	0.111773
679.602	0.111730
679.928	0.111576
680.254	0.111433
680.580	0.111320
680.906	0.111220
681.232	0.111135
681.558	0.111238
681.883	0.111400
682.209	0.111621
682.535	0.111744
682.860	0.111929
683.186	0.112007
683.511	0.112013
683.837	0.111963
684.162	0.111913
684.488	0.111845
684.813	0.111817
685.138	0.111798
685.464	0.111718
685.789	0.111701
686.114	0.111623
686.439	0.111565
686.764	0.111626
687.089	0.111671
687.414	0.111757
687.739	0.111899
688.064	0.111968
688.389	0.111928
688.714	0.111902
689.039	0.111773
689.363	0.111677
689.688	0.111571
690.013	0.111493
690.337	0.111481
690.662	0.111482
690.986	0.111536
691.311	0.111605
691.635	0.111642
691.959	0.111627
692.284	0.111545
692.608	0.111394
692.932	0.111407
693.256	0.111472
693.580	0.111531
693.904	0.111581
694.228	0.111656
694.552	0.111693
694.876	0.111790
695.200	0.111820
695.524	0.111770
695.848	0.111634
696.172	0.111469
696.495	0.111248
696.819	0.111112
697.143	0.110917
697.466	0.110772
697.790	0.110508
698.113	0.110251
698.437	0.110000
698.760	0.109753
699.083	0.109731
699.407	0.109769
699.730	0.109766
700.053	0.109705
700.376	0.109574
700.699	0.109437
701.022	0.109192
701.345	0.108806
701.668	0.108283
701.991	0.107825
702.314	0.107174
702.637	0.106743
702.960	0.106377
703.283	0.106109
703.605	0.105730
703.928	0.105635
704.251	0.105544
704.573	0.105553
704.896	0.105547
705.218	0.105572
705.540	0.105506
705.863	0.105299
706.185	0.104978
706.507	0.104587
706.830	0.104148
707.152	0.103686
707.474	0.103281
707.796	0.102912
708.118	0.102593
708.440	0.102381
708.762	0.102237
709.084	0.102177
709.406	0.102073
709.728	0.101977
710.049	0.101831
710.371	0.101721
710.693	0.101485
711.014	0.101225
711.336	0.101052
711.658	0.100830
711.979	0.100680
712.301	0.100574
712.622	0.100519
712.943	0.100445
713.265	0.100365
713.586	0.100269
713.907	0.100276
714.228	0.100342
714.549	0.100358
714.870	0.100409
715.191	0.100417
715.512	0.100415
715.833	0.100489
716.154	0.100494
716.475	0.100398
716.796	0.100258
717.117	0.100104
717.437	0.099868
717.758	0.099623
718.078	0.099284
718.399	0.098957
718.719	0.098638
719.040	0.098252
719.360	0.097985
719.681	0.097773
720.001	0.097610
720.321	0.097538
720.642	0.097378
720.962	0.097162
721.282	0.097098
721.602	0.096978
721.922	0.096907
722.242	0.096726
722.562	0.096553
722.882	0.096460
723.202	0.096458
723.521	0.096431
723.841	0.096401
724.161	0.096366
724.481	0.096320
724.800	0.096304
725.120	0.096330
725.439	0.096275
725.759	0.096245
726.078	0.096222
726.398	0.096192
726.717	0.096228
727.036	0.096251
727.355	0.096397
727.675	0.096553
727.994	0.096653
728.313	0.096783
728.632	0.096875
728.951	0.096943
729.270	0.096934
729.589	0.096824
729.908	0.096635
730.226	0.096488
730.545	0.096329
730.864	0.096130
731.182	0.096013
731.501	0.095878
731.820	0.095795
732.138	0.095669
732.457	0.095564
732.775	0.095423
733.093	0.095362
733.412	0.095256
733.730	0.095186
734.048	0.095023
734.367	0.094741
734.685	0.094482
735.003	0.094149
735.321	0.093841
735.639	0.093580
735.957	0.093378
736.275	0.093202
736.593	0.093090
736.910	0.092951
737.228	0.092895
737.546	0.092840
737.863	0.092706
738.181	0.092514
738.499	0.092201
738.816	0.092032
739.134	0.091826
739.451	0.091705
739.768	0.091491
740.086	0.091218
740.403	0.090875
740.720	0.090542
741.038	0.090250
741.355	0.089902
741.672	0.089566
741.989	0.089278
742.306	0.088909
742.623	0.088453
742.940	0.087984
743.257	0.087409
743.573	0.086881
743.890	0.086322
744.207	0.085793
744.523	0.085327
744.840	0.084947
745.157	0.084685
745.473	0.084267
745.790	0.083983
746.106	0.083584
746.422	0.083198
746.739	0.082973
747.055	0.082763
747.371	0.082594
747.687	0.082550
748.004	0.082552
748.320	0.082543
748.636	0.082472
748.952	0.082374
749.268	0.082453
749.584	0.082517
749.899	0.082559
750.215	0.082568
750.531	0.082577
750.847	0.082662
751.162	0.082748
751.478	0.082774
751.793	0.082724
752.109	0.082669
752.424	0.082591
752.740	0.082513
753.055	0.082515
753.370	0.082497
753.686	0.082644
754.001	0.082847
754.316	0.083044
754.631	0.083229
754.946	0.083333
755.261	0.083431
755.576	0.083569
755.891	0.083479
756.206	0.083370
756.521	0.083273
756.836	0.083195
757.150	0.083130
757.465	0.083080
757.780	0.083000
758.094	0.082975
758.409	0.083012
758.723	0.083044
759.038	0.083020
759.352	0.083013
759.667	0.082948
759.981	0.082844
760.295	0.082573
760.609	0.082251
760.923	0.081943
761.238	0.081593
761.552	0.081306
761.866	0.081010
762.180	0.080782
762.493	0.080689
762.807	0.080589
763.121	0.080470
763.435	0.080328
763.749	0.080059
764.062	0.079775
764.376	0.079498
764.689	0.079202
765.003	0.078842
765.316	0.078614
765.630	0.078501
765.943	0.078302
766.257	0.078152
766.570	0.077912
766.883	0.077703
767.196	0.077381
767.509	0.077007
767.822	0.076665
768.135	0.076339
768.448	0.076051
768.761	0.075632
769.074	0.075238
769.387	0.074909
769.700	0.074586
770.013	0.074305
770.325	0.074125
770.638	0.073983
770.950	0.073780
771.263	0.073552
771.575	0.073341
771.888	0.072996
772.200	0.072613
772.513	0.072176
772.825	0.071744
773.137	0.071365
773.449	0.071017
773.761	0.070723
774.074	0.070412
774.386	0.070064
774.698	0.069734
775.010	0.069320
775.321	0.069023
775.633	0.068612
775.945	0.068326
776.257	0.068223
776.568	0.068046
776.880	0.067919
777.192	0.067745
777.503	0.067591
777.815	0.067539
778.126	0.067540
778.438	0.067617
778.749	0.067696
779.060	0.067799
779.372	0.067866
779.683	0.067901
779.994	0.067937
780.305	0.068007
780.616	0.068111
780.927	0.068187
781.238	0.068116
781.549	0.068127
781.860	0.068153
782.171	0.068202
782.481	0.068166
782.792	0.068041
783.103	0.068063
783.413	0.068003
783.724	0.067828
784.034	0.067645
784.345	0.067466
784.655	0.067246
784.966	0.066983
785.276	0.066829
785.586	0.066579
785.896	0.066410
786.207	0.066292
786.517	0.066218
786.827	0.066196
787.137	0.066041
787.447	0.065903
787.757	0.065965
788.066	0.065912
788.376	0.065866
788.686	0.065752
788.996	0.065693
789.305	0.065543
789.615	0.065357
789.925	0.065166
790.234	0.065110
790.544	0.065169
790.853	0.065196
791.162	0.065183
791.472	0.065202
791.781	0.065196
792.090	0.065400
792.399	0.065378
792.708	0.065285
793.017	0.065170
793.326	0.064873
793.635	0.064713
793.944	0.064491
794.253	0.064183
794.562	0.063901
794.871	0.063695
795.179	0.063606
795.488	0.063381
795.797	0.063423
796.105	0.063246
796.414	0.063166
796.722	0.063069
797.031	0.062950
797.339	0.062633
797.647	0.062283
797.956	0.061873
798.264	0.061339
798.572	0.060702
798.880	0.060291
799.188	0.059991
799.496	0.059650
799.804	0.059563
800.112	0.059238
800.420	0.059153
800.728	0.058997
801.035	0.058864
801.343	0.058527
801.651	0.058108
801.958	0.057867
802.266	0.057612
802.573	0.057634
802.881	0.057628
803.188	0.057524
803.496	0.057646
803.803	0.057845
804.110	0.057953
804.417	0.058004
804.724	0.057949
805.032	0.057987
805.339	0.057808
805.646	0.057634
805.953	0.057409
806.259	0.057179
806.566	0.057104
806.873	0.057068
807.180	0.056943
807.486	0.056993
807.793	0.057114
808.100	0.057233
808.406	0.057306
808.713	0.057290
809.019	0.056899
809.326	0.056586
809.632	0.056362
809.938	0.055633
810.244	0.055008
810.551	0.054584
810.857	0.054163
811.163	0.053761
811.469	0.053460
811.775	0.053322
812.081	0.053269
812.387	0.053147
812.692	0.053124
812.998	0.053262
813.304	0.053026
813.610	0.053314
813.915	0.053230
814.221	0.052931
814.526	0.052957
814.832	0.052972
815.137	0.052813
815.443	0.052879
815.748	0.052778
816.053	0.052603
816.358	0.052647
816.664	0.052623
816.969	0.052438
817.274	0.052376
817.579	0.052564
817.884	0.052381
818.189	0.052340
818.493	0.052148
818.798	0.052254
819.103	0.052101
819.408	0.051784
819.712	0.051594
820.017	0.051148
820.321	0.050879
820.626	0.050721
820.930	0.050259
821.235	0.049853
821.539	0.049626
821.843	0.049437
822.148	0.049302
822.452	0.049351
822.756	0.049482
823.060	0.049341
823.364	0.049689
823.668	0.049841
823.972	0.049824
824.276	0.049871
824.580	0.049909
824.883	0.050036
825.187	0.050129
825.491	0.050241
825.795	0.050338
826.098	0.050447
826.402	0.050461
826.705	0.050574
827.008	0.050630
827.312	0.050528
827.615	0.050281
827.918	0.050127
828.222	0.049927
828.525	0.049833
828.828	0.049801
829.131	0.049624
829.434	0.049748
829.737	0.049040
830.040	0.048287
830.343	0.047741
830.645	0.047466
830.948	0.046902
831.251	0.046493
831.553	0.045756
831.856	0.045402
832.159	0.045444
832.461	0.045283
832.764	0.045004
833.066	0.044683
833.368	0.044562
833.671	0.044656
833.973	0.044657
834.275	0.044380
834.577	0.044405
834.879	0.044212
835.181	0.043887
835.483	0.043470
835.785	0.042986
836.087	0.042850
836.389	0.042905
836.690	0.042441
836.992	0.041757
837.294	0.041050
837.595	0.040285
837.897	0.039944
838.198	0.039416
838.500	0.038277
838.801	0.037826
839.103	0.037410
839.404	0.036740
839.705	0.036201
840.006	0.035561
840.307	0.035712
840.608	0.035759
840.910	0.035734
841.210	0.035855
841.511	0.035729
841.812	0.035528
842.113	0.035423
842.414	0.035243
842.715	0.034656
843.015	0.033894
843.316	0.033733
843.616	0.033751
843.917	0.033314
844.217	0.032888
844.518	0.032373
844.818	0.032497
845.118	0.032317
845.419	0.032518
845.719	0.033030
846.019	0.032081
846.319	0.032495
846.619	0.031639
846.919	0.031920
847.219	0.032201
847.519	0.031748
847.819	0.032072
848.118	0.031740
848.418	0.031674
848.718	0.031300
849.017	0.031321
849.317	0.032070
849.616	0.032061
849.916	0.032877
850.215	0.033552
850.515	0.034327
850.814	0.034738
851.113	0.034778
851.412	0.035040
851.712	0.035022
852.011	0.034813
852.310	0.035629
852.609	0.035688
852.908	0.036233
853.206	0.036311
853.505	0.036515
853.804	0.036707
854.103	0.036699
854.401	0.036896
854.700	0.037045
854.999	0.037022
855.297	0.037275
855.595	0.037386
855.894	0.037484
856.192	0.037316
856.491	0.037424
856.789	0.037096
857.087	0.036685
857.385	0.036550
857.683	0.036171
857.981	0.035937
858.279	0.035887
858.577	0.035038
858.875	0.034780
859.173	0.034077
859.471	0.033675
859.768	0.033118
860.066	0.032926
860.363	0.032360
860.661	0.031886
860.959	0.031552
861.256	0.032025
861.553	0.031865
861.851	0.031116
862.148	0.030772
862.445	0.030255
862.742	0.029382
863.039	0.028588
863.337	0.028479
863.634	0.028000
863.931	0.027780
864.227	0.027635
864.524	0.027241
864.821	0.027899
865.118	0.027108
865.415	0.026761
865.711	0.026481
866.008	0.025811
866.304	0.025618
866.601	0.025716
866.897	0.026050
867.194	0.025836
867.490	0.025803
867.786	0.025435
868.082	0.025486
868.379	0.025442
868.675	0.025379
868.971	0.025623
869.267	0.026241
869.563	0.026736
869.859	0.026855
870.154	0.026504
870.450	0.026636
870.746	0.026530
871.042	0.025984
871.337	0.026748
871.633	0.027341
871.928	0.026993
872.224	0.026697
872.519	0.025833
872.815	0.025669
873.110	0.025301
873.405	0.024992
873.700	0.024556
873.995	0.024336
874.291	0.024201
874.586	0.024821
874.881	0.024517
875.175	0.024100
875.470	0.024286
875.765	0.024223
876.060	0.024339
876.355	0.024736
876.649	0.024439
876.944	0.024725
877.238	0.025113
877.533	0.025383
877.827	0.025372
878.122	0.025763
878.416	0.026526
878.710	0.027604
879.005	0.027525
879.299	0.027550
879.593	0.027824
879.887	0.027634
880.181	0.027367
880.475	0.027512
880.769	0.027023
881.063	0.027254
881.356	0.027447
881.650	0.027073
881.944	0.026979
882.238	0.020041
882.531	0.029228
882.825	0.019919
883.118	0.013551
883.412	0.022408
883.705	0.022633
883.998	0.022414
884.291	0.023580
884.585	0.022498
884.878	0.026536
>>>>>>>>>> END of Data <<<<<<<<<<
>>>>>>>>>> Raw Data Start <<<<<<<<
190.664	-396
191.040	5
191.415	5
191.791	5
192.166	5
192.542	8
192.917	4
193.293	9
193.668	8
194.044	7
194.419	-11
194.794	9
195.170	9
195.545	9
195.920	9
196.296	10
196.671	10
197.046	11
197.421	12
197.796	12
198.171	12
198.546	12
198.922	13
199.297	13
199.672	14
200.047	14
200.422	14
200.796	14
201.171	15
201.546	15
201.921	15
202.296	15
202.671	15
203.045	15
203.420	16
203.795	16
204.170	16
204.544	16
204.919	16
205.294	15
205.668	15
206.043	16
206.417	15
206.792	16
207.166	15
207.541	15
207.915	15
208.289	15
208.664	15
209.038	15
209.412	15
209.787	15
210.161	15
210.535	15
210.909	16
211.284	15
211.658	15
212.032	15
212.406	15
212.780	15
213.154	15
213.528	15
213.902	15
214.276	15
214.650	15
215.024	15
215.398	15
215.772	15
216.145	15
216.519	15
216.893	15
217.267	15
217.640	15
218.014	15
218.388	15
218.761	15
219.135	15
219.508	15
219.882	15
220.256	15
220.629	15
221.003	15
221.376	15
221.749	16
222.123	16
222.496	16
222.869	16
223.243	16
223.616	16
223.989	16
224.362	16
224.736	16
225.109	16
225.482	16
225.855	16
226.228	16
226.601	16
226.974	16
227.347	16
227.720	16
228.093	16
228.466	16
228.839	16
229.212	16
229.585	16
229.957	15
230.330	16
230.703	16
231.076	16
231.448	16
231.821	16
232.194	16
232.566	16
232.939	16
233.311	15
233.684	16
234.056	16
234.429	16
234.801	16
235.174	16
235.546	16
235.918	16
236.291	16
236.663	16
237.035	16
237.408	16
237.780	16
238.152	16
238.524	17
238.896	16
239.268	16
239.641	17
240.013	17
240.385	16
240.757	16
241.129	17
241.500	17
241.872	17
242.244	17
242.616	17
242.988	16
243.360	17
243.731	17
244.103	17
244.475	16
244.847	17
245.218	16
245.590	17
245.961	17
246.333	17
246.705	17
247.076	17
247.448	17
247.819	17
248.190	17
248.562	17
248.933	17
249.305	17
249.676	18
250.047	18
250.418	17
250.790	18
251.161	17
251.532	18
251.903	17
252.274	17
252.645	17
253.016	17
253.387	17
253.758	18
254.129	17
254.500	17
254.871	18
255.242	18
255.613	18
255.984	18
256.355	18
256.725	17
257.096	17
257.467	17
257.838	17
258.208	17
258.579	18
258.949	18
259.320	18
259.690	18
260.061	19
260.431	18
260.802	18
261.172	18
261.543	18
261.913	18
262.283	19
262.654	19
263.024	18
263.394	18
263.764	18
264.135	19
264.505	19
264.875	19
265.245	19
265.615	19
265.985	19
266.355	19
266.725	19
267.095	19
267.465	19
267.835	19
268.205	19
268.575	19
268.944	19
269.314	19
269.684	19
270.054	18
270.423	18
270.793	18
271.163	18
271.532	18
271.902	18
272.271	18
272.641	18
273.010	18
273.380	18
273.749	18
274.119	18
274.488	19
274.857	18
275.227	19
275.596	19
275.965	18
276.335	19
276.704	19
277.073	19
277.442	19
277.811	19
278.180	19
278.549	19
278.918	19
279.287	20
279.656	20
280.025	20
280.394	20
280.763	20
281.132	20
281.501	20
281.869	20
282.238	20
282.607	20
282.976	19
283.344	19
283.713	20
284.081	20
284.450	19
284.819	20
285.187	20
285.556	20
285.924	20
286.292	21
286.661	20
287.029	20
287.398	20
287.766	20
288.134	20
288.502	20
288.871	20
289.239	20
289.607	20
289.975	20
290.343	20
290.711	20
291.079	20
291.447	20
291.815	20
292.183	20
292.551	19
292.919	19
293.287	19
293.655	19
294.022	19
294.390	19
294.758	19
295.126	19
295.493	19
295.861	19
296.229	19
296.596	19
296.964	19
297.331	19
297.699	19
298.066	20
298.434	20
298.801	20
299.168	20
299.536	20
299.903	20
300.270	20
300.638	21
301.005	20
301.372	21
301.739	21
302.106	21
302.473	21
302.840	21
303.207	21
303.574	21
303.941	21
304.308	21
304.675	21
305.042	21
305.409	21
305.776	21
306.143	21
306.509	21
306.876	21
307.243	21
307.610	22
307.976	22
308.343	22
308.709	22
309.076	22
309.442	22
309.809	23
310.175	23
310.542	23
310.908	23
311.275	24
311.641	24
312.007	24
312.373	25
312.740	25
313.106	26
313.472	26
313.838	27
314.204	27
314.570	29
314.936	29
315.302	30
315.668	30
316.034	31
316.400	32
316.766	33
317.132	33
317.498	34
317.864	35
318.230	36
318.595	37
318.961	39
319.327	40
319.692	41
320.058	43
320.424	45
320.789	47
321.155	48
321.520	50
321.886	52
322.251	53
322.616	55
322.982	58
323.347	60
323.712	62
324.078	65
324.443	68
324.808	71
325.173	73
325.539	76
325.904	79
326.269	81
326.634	84
326.999	87
327.364	90
327.729	92
328.094	95
328.459	98
328.823	102
329.188	105
329.553	108
329.918	111
330.283	114
330.647	117
331.012	120
331.377	123
331.741	127
332.106	130
332.470	132
332.835	136
333.199	139
333.564	143
333.928	146
334.293	150
334.657	153
335.021	157
335.386	160
335.750	164
336.114	168
336.478	171
336.843	175
337.207	178
337.571	182
337.935	185
338.299	189
338.663	193
339.027	196
339.391	200
339.755	204
340.119	208
340.483	211
340.846	214
341.210	218
341.574	221
341.938	225
342.301	228
342.665	232
343.029	235
343.392	238
343.756	242
344.119	245
344.483	248
344.846	251
345.210	254
345.573	257
345.937	260
346.300	262
346.663	265
347.027	268
347.390	270
347.753	273
348.116	276
348.479	278
348.843	281
349.206	284
349.569	287
349.932	289
350.295	291
350.658	293
351.021	295
351.383	297
351.746	299
352.109	301
352.472	303
352.835	305
353.197	307
353.560	308
353.923	311
354.285	313
354.648	315
355.011	317
355.373	318
355.736	320
356.098	322
356.461	323
356.823	325
357.185	326
357.548	327
357.910	329
358.272	331
358.635	333
358.997	334
359.359	336
359.721	337
360.083	339
360.445	340
360.807	341
361.169	343
361.531	344
361.893	345
362.255	347
362.617	348
362.979	349
363.341	351
363.703	353
364.064	354
364.426	356
364.788	358
365.149	359
365.511	360
365.873	361
366.234	362
366.596	363
366.957	364
367.319	365
367.680	365
368.042	367
368.403	367
368.764	368
369.126	368
369.487	369
369.848	369
370.209	370
370.570	370
370.931	370
371.293	370
371.654	370
372.015	370
372.376	370
372.737	370
373.098	371
373.458	371
373.819	372
374.180	373
374.541	373
374.902	374
375.263	375
375.623	377
375.984	378
376.345	379
376.705	380
377.066	381
377.426	382
377.787	383
378.147	385
378.508	386
378.868	386
379.228	388
379.589	389
379.949	390
380.309	391
380.670	392
381.030	393
381.390	394
381.750	395
382.110	396
382.470	396
382.830	396
383.190	397
383.550	398
383.910	398
384.270	400
384.630	401
384.990	403
385.350	404
385.709	406
386.069	407
386.429	409
386.788	410
387.148	410
387.508	411
387.867	413
388.227	414
388.586	416
388.946	418
389.305	421
389.665	424
390.024	427
390.383	430
390.743	432
391.102	434
391.461	436
391.820	437
392.179	439
392.539	440
392.898	441
393.257	442
393.616	444
393.975	446
394.334	450
394.693	453
395.051	457
395.410	461
395.769	464
396.128	466
396.487	468
396.845	469
397.204	470
397.563	471
397.921	472
398.280	473
398.638	475
398.997	475
399.355	477
399.714	478
400.072	480
400.431	482
400.789	484
401.147	487
401.506	488
401.864	490
402.222	491
402.580	492
402.938	492
403.297	492
403.655	492
404.013	493
404.371	493
404.729	494
405.087	495
405.444	497
405.802	499
406.160	500
406.518	502
406.876	504
407.233	505
407.591	507
407.949	508
408.306	509
408.664	511
409.022	512
409.379	514
409.737	515
410.094	517
410.451	519
410.809	522
411.166	524
411.523	527
411.881	529
412.238	531
412.595	534
412.952	536
413.310	538
413.667	539
414.024	541
414.381	543
414.738	545
415.095	548
415.452	550
415.809	552
416.165	554
416.522	557
416.879	560
417.236	564
417.593	569
417.949	575
418.306	582
418.663	589
419.019	596
419.376	604
419.732	611
420.089	617
420.445	623
420.802	630
421.158	636
421.514	641
421.871	646
422.227	651
422.583	655
422.939	660
423.295	664
423.652	668
424.008	672
424.364	675
424.720	678
425.076	680
425.432	682
425.788	684
426.143	688
426.499	692
426.855	696
427.211	700
427.567	705
427.922	709
428.278	712
428.634	714
428.989	717
429.345	720
429.700	724
430.056	729
430.411	733
430.767	739
431.122	745
431.478	749
431.833	754
432.188	758
432.543	761
432.899	765
433.254	768
433.609	769
433.964	769
434.319	771
434.674	772
435.029	775
435.384	778
435.739	782
436.094	788
436.449	794
436.804	802
437.158	810
437.513	819
437.868	830
438.223	840
438.577	851
438.932	863
439.287	875
439.641	888
439.996	900
440.350	912
440.704	925
441.059	937
441.413	950
441.768	962
442.122	974
442.476	985
442.830	996
443.185	1008
443.539	1018
443.893	1029
444.247	1038
444.601	1045
444.955	1051
445.309	1056
445.663	1059
446.017	1062
446.371	1065
446.724	1068
447.078	1069
447.432	1070
447.786	1071
448.139	1071
448.493	1070
448.847	1069
449.200	1068
449.554	1067
449.907	1066
450.261	1065
450.614	1063
450.968	1063
451.321	1062
451.674	1062
452.027	1061
452.381	1061
452.734	1063
453.087	1063
453.440	1065
453.793	1068
454.146	1071
454.499	1078
454.852	1086
455.205	1095
455.558	1103
455.911	1113
456.264	1122
456.617	1131
456.970	1139
457.322	1147
457.675	1154
458.028	1161
458.380	1166
458.733	1171
459.086	1176
459.438	1183
459.791	1190
460.143	1198
460.496	1210
460.848	1222
461.200	1236
461.553	1250
461.905	1264
462.257	1275
462.609	1286
462.961	1295
463.314	1304
463.666	1311
464.018	1317
464.370	1324
464.722	1331
465.074	1339
465.426	1345
465.777	1352
466.129	1357
466.481	1360
466.833	1363
467.184	1363
467.536	1362
467.888	1358
468.239	1354
468.591	1351
468.943	1348
469.294	1347
469.646	1348
469.997	1351
470.348	1357
470.700	1365
471.051	1377
471.402	1391
471.754	1407
472.105	1425
472.456	1443
472.807	1465
473.158	1489
473.509	1515
473.860	1543
474.211	1571
474.562	1602
474.913	1633
475.264	1666
475.615	1699
475.966	1731
476.316	1763
476.667	1795
477.018	1827
477.368	1860
477.719	1893
478.070	1925
478.420	1955
478.771	1985
479.121	2014
479.472	2043
479.822	2073
480.172	2107
480.523	2145
480.873	2198
481.223	2288
481.573	2423
481.924	2592
482.274	2782
482.624	2982
482.974	3182
483.324	3357
483.674	3489
484.024	3579
484.374	3639
484.724	3676
485.073	3702
485.423	3724
485.773	3744
486.123	3763
486.472	3781
486.822	3798
487.172	3813
487.521	3823
487.871	3827
488.220	3814
488.570	3762
488.919	3667
489.268	3537
489.618	3385
489.967	3221
490.316	3056
490.666	2912
491.015	2809
491.364	2746
491.713	2714
492.062	2702
492.411	2702
492.760	2708
493.109	2715
493.458	2722
493.807	2729
494.156	2733
494.505	2738
494.853	2744
495.202	2752
495.551	2764
495.900	2776
496.248	2790
496.597	2803
496.945	2815
497.294	2828
497.642	2841
497.991	2857
498.339	2876
498.688	2896
499.036	2915
499.384	2933
499.732	2948
500.081	2959
500.429	2970
500.777	2980
501.125	2988
501.473	2997
501.821	3006
502.169	3015
502.517	3022
502.865	3025
503.213	3026
503.561	3026
503.908	3025
504.256	3022
504.604	3018
504.952	3013
505.299	3007
505.647	2998
505.994	2987
506.342	2975
506.689	2963
507.037	2952
507.384	2944
507.732	2937
508.079	2930
508.426	2925
508.774	2920
509.121	2913
509.468	2907
509.815	2898
510.162	2891
510.509	2883
510.856	2874
511.203	2865
511.550	2857
511.897	2849
512.244	2840
512.591	2832
512.938	2824
513.284	2816
513.631	2808
513.978	2798
514.324	2788
514.671	2777
515.018	2766
515.364	2757
515.711	2748
516.057	2738
516.403	2729
516.750	2719
517.096	2708
517.443	2695
517.789	2683
518.135	2671
518.481	2661
518.827	2651
519.173	2640
519.519	2630
519.865	2620
520.211	2612
520.557	2603
520.903	2596
521.249	2590
521.595	2584
521.941	2576
522.287	2571
522.632	2565
522.978	2559
523.324	2555
523.669	2552
524.015	2551
524.360	2554
524.706	2560
525.051	2569
525.397	2580
525.742	2592
526.087	2605
526.433	2617
526.778	2627
527.123	2635
527.468	2641
527.813	2647
528.158	2652
528.504	2660
528.849	2672
529.193	2689
529.538	2707
529.883	2732
530.228	2760
530.573	2791
530.918	2824
531.263	2856
531.607	2886
531.952	2913
532.296	2934
532.641	2952
532.986	2965
533.330	2978
533.675	2991
534.019	3009
534.363	3033
534.708	3061
535.052	3095
535.396	3130
535.741	3163
536.085	3192
536.429	3218
536.773	3240
537.117	3256
537.461	3269
537.805	3281
538.149	3295
538.493	3308
538.837	3324
539.181	3343
539.524	3369
539.868	3399
540.212	3434
540.556	3470
540.899	3509
541.243	3543
541.586	3570
541.930	3591
542.273	3605
542.617	3615
542.960	3626
543.304	3642
543.647	3664
543.990	3694
544.333	3727
544.677	3761
545.020	3794
545.363	3820
545.706	3839
546.049	3852
546.392	3858
546.735	3856
547.078	3852
547.421	3849
547.764	3847
548.106	3847
548.449	3851
548.792	3863
549.135	3882
549.477	3907
549.820	3931
550.162	3950
550.505	3965
550.847	3973
551.190	3975
551.532	3975
551.875	3975
552.217	3978
552.559	3983
552.901	3996
553.244	4012
553.586	4031
553.928	4052
554.270	4069
554.612	4082
554.954	4090
555.296	4096
555.638	4102
555.980	4108
556.322	4117
556.663	4134
557.005	4161
557.347	4196
557.689	4235
558.030	4273
558.372	4308
558.713	4338
559.055	4367
559.396	4394
559.738	4423
560.079	4455
560.421	4494
560.762	4539
561.103	4590
561.444	4648
561.786	4708
562.127	4773
562.468	4843
562.809	4921
563.150	5008
563.491	5103
563.832	5207
564.173	5326
564.514	5465
564.855	5634
565.195	5842
565.536	6093
565.877	6386
566.218	6721
566.558	7101
566.899	7517
567.239	7965
567.580	8434
567.920	8917
568.261	9403
568.601	9900
568.941	10414
569.282	10942
569.622	11488
569.962	12057
570.302	12662
570.643	13285
570.983	13911
571.323	14514
571.663	15094
572.003	15641
572.343	16150
572.683	16624
573.022	17104
573.362	17608
573.702	18127
574.042	18645
574.381	19138
574.721	19606
575.061	20051
575.400	20452
575.740	20805
576.079	21113
576.419	21419
576.758	21769
577.097	22186
577.437	22644
577.776	23134
578.115	23649
578.454	24170
578.794	24646
579.133	25007
579.472	25247
579.811	25373
580.150	25392
580.489	25329
580.828	25229
581.167	25131
581.505	25055
581.844	24989
582.183	24925
582.522	24881
582.860	24850
583.199	24821
583.538	24757
583.876	24617
584.215	24374
584.553	24015
584.891	23548
585.230	22985
585.568	22368
585.906	21743
586.245	21180
586.583	20695
586.921	20293
587.259	19927
587.597	19562
587.935	19183
588.273	18796
588.611	18433
588.949	18109
589.287	17834
589.625	17613
589.963	17436
590.300	17290
590.638	17155
590.976	17008
591.313	16839
591.651	16678
591.989	16538
592.326	16421
592.664	16319
593.001	16234
593.338	16178
593.676	16143
594.013	16139
594.350	16187
594.687	16276
595.025	16376
595.362	16467
595.699	16529
596.036	16561
596.373	16557
596.710	16511
597.047	16437
597.384	16349
597.720	16253
598.057	16173
598.394	16112
598.731	16071
599.067	16058
599.404	16074
599.741	16129
600.077	16211
600.414	16302
600.750	16400
601.087	16473
601.423	16502
601.759	16495
602.096	16458
602.432	16400
602.768	16316
603.104	16205
603.440	16070
603.776	15927
604.112	15774
604.448	15618
604.784	15454
605.120	15280
605.456	15113
605.792	14938
606.128	14754
606.463	14566
606.799	14376
607.135	14202
607.470	14032
607.806	13862
608.142	13698
608.477	13540
608.812	13388
609.148	13235
609.483	13073
609.819	12908
610.154	12752
610.489	12607
610.824	12480
611.159	12372
611.494	12265
611.830	12169
612.165	12074
612.500	11969
612.834	11848
613.169	11712
613.504	11563
613.839	11399
614.174	11213
614.509	11026
614.843	10840
615.178	10664
615.512	10487
615.847	10316
616.182	10144
616.516	9972
616.850	9791
617.185	9602
617.519	9411
617.853	9207
618.188	8996
618.522	8802
618.856	8637
619.190	8493
619.524	8367
619.858	8265
620.192	8185
620.526	8114
620.860	8042
621.194	7974
621.528	7907
621.862	7841
622.195	7761
622.529	7676
622.863	7589
623.196	7502
623.530	7413
623.864	7324
624.197	7234
624.530	7148
624.864	7069
625.197	6987
625.531	6895
625.864	6784
626.197	6666
626.530	6539
626.863	6395
627.196	6239
627.529	6082
627.862	5928
628.195	5774
628.528	5622
628.861	5477
629.194	5347
629.527	5223
629.860	5100
630.192	4980
630.525	4868
630.858	4763
631.190	4664
631.523	4567
631.855	4476
632.188	4398
632.520	4324
632.852	4255
633.185	4184
633.517	4115
633.849	4053
634.182	3997
634.514	3942
634.846	3894
635.178	3851
635.510	3813
635.842	3778
636.174	3744
636.506	3710
636.837	3677
637.169	3644
637.501	3609
637.833	3571
638.164	3528
638.496	3480
638.828	3427
639.159	3367
639.491	3303
639.822	3236
640.154	3169
640.485	3103
640.816	3038
641.147	2972
641.479	2910
641.810	2849
642.141	2790
642.472	2733
642.803	2675
643.134	2621
643.465	2574
643.796	2537
644.127	2510
644.458	2496
644.789	2495
645.119	2508
645.450	2531
645.781	2557
646.111	2582
646.442	2604
646.773	2621
647.103	2634
647.433	2646
647.764	2658
648.094	2675
648.425	2696
648.755	2721
649.085	2751
649.415	2782
649.745	2815
650.075	2848
650.405	2885
650.735	2967
651.065	3561
651.395	5404
651.725	8438
652.055	12075
652.385	15707
652.715	19339
653.044	22972
653.374	26611
653.704	30255
654.033	33162
654.363	35028
654.692	36267
655.022	37073
655.351	37602
655.680	37930
656.010	38108
656.339	38188
656.668	38210
656.997	38200
657.326	38167
657.655	38077
657.984	37463
658.313	35590
658.642	32517
658.971	28830
659.300	25143
659.629	21456
659.958	17770
660.286	14083
660.615	10398
660.944	7459
661.272	5564
661.601	4299
661.929	3462
662.258	2899
662.586	2531
662.915	2306
663.243	2176
663.571	2102
663.899	2057
664.228	2029
664.556	2009
664.884	1997
665.212	1987
665.540	1980
665.868	1977
666.196	1975
666.524	1973
666.852	1975
667.179	1982
667.507	1998
667.835	2019
668.162	2048
668.490	2084
668.818	2126
669.145	2171
669.473	2215
669.800	2256
670.127	2292
670.455	2322
670.782	2347
671.109	2369
671.436	2388
671.764	2403
672.091	2415
672.418	2426
672.745	2434
673.072	2443
673.399	2453
673.726	2464
674.053	2473
674.379	2475
674.706	2474
675.033	2472
675.359	2468
675.686	2462
676.013	2460
676.339	2461
676.666	2468
676.992	2486
677.318	2511
677.645	2539
677.971	2566
678.297	2590
678.624	2614
678.950	2636
679.276	2657
679.602	2677
679.928	2698
680.254	2724
680.580	2758
680.906	2801
681.232	2855
681.558	2910
681.883	2965
682.209	3015
682.535	3062
682.860	3104
683.186	3141
683.511	3169
683.837	3187
684.162	3201
684.488	3212
684.813	3223
685.138	3234
685.464	3243
685.789	3250
686.114	3258
686.439	3269
686.764	3280
687.089	3287
687.414	3287
687.739	3276
688.064	3255
688.389	3230
688.714	3199
689.039	3166
689.363	3132
689.688	3095
690.013	3058
690.337	3025
690.662	2998
690.986	2973
691.311	2948
691.635	2923
691.959	2900
692.284	2884
692.608	2880
692.932	2884
693.256	2893
693.580	2905
693.904	2920
694.228	2938
694.552	2954
694.876	2961
695.200	2958
695.524	2945
695.848	2926
696.172	2902
696.495	2877
696.819	2851
697.143	2823
697.466	2795
697.790	2771
698.113	2755
698.437	2747
698.760	2746
699.083	2744
699.407	2735
699.730	2720
700.053	2698
700.376	2667
700.699	2623
701.022	2568
701.345	2509
701.668	2454
701.991	2407
702.314	2376
702.637	2360
702.960	2365
703.283	2388
703.605	2431
703.928	2489
704.251	2555
704.573	2621
704.896	2681
705.218	2728
705.540	2767
705.863	2797
706.185	2822
706.507	2844
706.830	2864
707.152	2886
707.474	2909
707.796	2934
708.118	2961
708.440	2988
708.762	3010
709.084	3028
709.406	3038
709.728	3040
710.049	3033
710.371	3020
710.693	3000
711.014	2977
711.336	2954
711.658	2935
711.979	2917
712.301	2900
712.622	2883
712.943	2862
713.265	2837
713.586	2812
713.907	2787
714.228	2765
714.549	2748
714.870	2736
715.191	2730
715.512	2729
715.833	2724
716.154	2717
716.475	2704
716.796	2687
717.117	2661
717.437	2631
717.758	2597
718.078	2563
718.399	2529
718.719	2499
719.040	2473
719.360	2453
719.681	2439
720.001	2429
720.321	2424
720.642	2421
720.962	2423
721.282	2428
721.602	2435
721.922	2444
722.242	2455
722.562	2471
722.882	2490
723.202	2507
723.521	2522
723.841	2539
724.161	2556
724.481	2573
724.800	2590
725.120	2612
725.439	2640
725.759	2671
726.078	2706
726.398	2749
726.717	2801
727.036	2861
727.355	2923
727.675	2985
727.994	3044
728.313	3100
728.632	3148
728.951	3188
729.270	3223
729.589	3255
729.908	3295
730.226	3340
730.545	3390
730.864	3444
731.182	3501
731.501	3561
731.820	3617
732.138	3666
732.457	3708
732.775	3748
733.093	3779
733.412	3798
733.730	3802
734.048	3794
734.367	3777
734.685	3754
735.003	3727
735.321	3704
735.639	3684
735.957	3669
736.275	3655
736.593	3635
736.910	3605
737.228	3561
737.546	3506
737.863	3442
738.181	3371
738.499	3296
738.816	3222
739.134	3150
739.451	3076
739.768	3002
740.086	2931
740.403	2866
740.720	2805
741.038	2748
741.355	2693
741.672	2638
741.989	2582
742.306	2524
742.623	2464
742.940	2406
743.257	2352
743.573	2305
743.890	2266
744.207	2238
744.523	2218
744.840	2205
745.157	2196
745.473	2195
745.790	2203
746.106	2220
746.422	2247
746.739	2279
747.055	2317
747.371	2361
747.687	2407
748.004	2451
748.320	2489
748.636	2524
748.952	2558
749.268	2593
749.584	2626
749.899	2655
750.215	2686
750.531	2721
750.847	2759
751.162	2798
751.478	2835
751.793	2875
752.109	2917
752.424	2962
752.740	3008
753.055	3060
753.370	3123
753.686	3195
754.001	3274
754.316	3356
754.631	3442
754.946	3535
755.261	3633
755.576	3726
755.891	3818
756.206	3908
756.521	4003
756.836	4100
757.150	4194
757.465	4276
757.780	4347
758.094	4407
758.409	4453
758.723	4482
759.038	4495
759.352	4495
759.667	4483
759.981	4461
760.295	4439
760.609	4422
760.923	4412
761.238	4407
761.552	4403
761.866	4398
762.180	4390
762.493	4367
762.807	4322
763.121	4252
763.435	4165
763.749	4069
764.062	3980
764.376	3904
764.689	3853
765.003	3826
765.316	3822
765.630	3835
765.943	3857
766.257	3884
766.570	3906
766.883	3912
767.196	3904
767.509	3879
767.822	3843
768.135	3795
768.448	3744
768.761	3690
769.074	3643
769.387	3607
769.700	3585
770.013	3572
770.325	3561
770.638	3545
770.950	3516
771.263	3470
771.575	3405
771.888	3321
772.200	3224
772.513	3119
772.825	3008
773.137	2894
773.449	2783
773.761	2674
774.074	2574
774.386	2484
774.698	2410
775.010	2348
775.321	2304
775.633	2276
775.945	2260
776.257	2250
776.568	2247
776.880	2254
777.192	2271
777.503	2296
777.815	2328
778.126	2367
778.438	2415
778.749	2467
779.060	2517
779.372	2564
779.683	2610
779.994	2651
780.305	2684
780.616	2706
780.927	2720
781.238	2725
781.549	2720
781.860	2702
782.171	2677
782.481	2650
782.792	2623
783.103	2595
783.413	2565
783.724	2534
784.034	2504
784.345	2476
784.655	2451
784.966	2425
785.276	2398
785.586	2371
785.896	2345
786.207	2317
786.517	2287
786.827	2257
787.137	2230
787.447	2203
787.757	2177
788.066	2153
788.376	2130
788.686	2107
788.996	2082
789.305	2059
789.615	2041
789.925	2031
790.234	2028
790.544	2033
790.853	2043
791.162	2054
791.472	2064
791.781	2068
792.090	2064
792.399	2051
792.708	2032
793.017	2010
793.326	1990
793.635	1970
793.944	1952
794.253	1937
794.562	1926
794.871	1920
795.179	1914
795.488	1908
795.797	1898
796.105	1881
796.414	1853
796.722	1815
797.031	1766
797.339	1708
797.647	1643
797.956	1574
798.264	1510
798.572	1458
798.880	1417
799.188	1386
799.496	1365
799.804	1348
800.112	1336
800.420	1325
800.728	1315
801.035	1301
801.343	1286
801.651	1274
801.958	1270
802.266	1275
802.573	1286
802.881	1300
803.188	1317
803.496	1336
803.803	1355
804.110	1373
804.417	1388
804.724	1402
805.032	1415
805.339	1426
805.646	1433
805.953	1438
806.259	1439
806.566	1437
806.873	1431
807.180	1424
807.486	1416
807.793	1407
808.100	1393
808.406	1369
808.713	1338
809.019	1302
809.326	1265
809.632	1229
809.938	1197
810.244	1167
810.551	1142
810.857	1121
811.163	1103
811.469	1083
811.775	1062
812.081	1040
812.387	1021
812.692	1005
812.998	993
813.304	983
813.610	975
813.915	969
814.221	964
814.526	960
814.832	956
815.137	952
815.443	946
815.748	936
816.053	924
816.358	911
816.664	899
816.969	889
817.274	880
817.579	872
817.884	867
818.189	866
818.493	866
818.798	863
819.103	858
819.408	850
819.712	840
820.017	829
820.321	818
820.626	807
820.930	797
821.235	790
821.539	787
821.843	787
822.148	789
822.452	790
822.756	790
823.060	787
823.364	782
823.668	775
823.972	767
824.276	758
824.580	752
824.883	748
825.187	747
825.491	746
825.795	746
826.098	746
826.402	745
826.705	742
827.008	737
827.312	729
827.615	717
827.918	702
828.222	685
828.525	668
828.828	652
829.131	635
829.434	619
829.737	604
830.040	592
830.343	582
830.645	573
830.948	565
831.251	556
831.553	549
831.856	543
832.159	537
832.461	530
832.764	523
833.066	516
833.368	510
833.671	505
833.973	501
834.275	498
834.577	494
834.879	490
835.181	485
835.483	480
835.785	473
836.087	465
836.389	455
836.690	443
836.992	431
837.294	418
837.595	405
837.897	390
838.198	376
838.500	363
838.801	351
839.103	341
839.404	333
839.705	325
840.006	319
840.307	314
840.608	310
840.910	307
841.210	306
841.511	303
841.812	301
842.113	297
842.414	293
842.715	288
843.015	282
843.316	276
843.616	270
843.917	264
844.217	260
844.518	256
844.818	253
845.118	251
845.419	250
845.719	248
846.019	247
846.319	245
846.619	245
846.919	243
847.219	242
847.519	241
847.819	239
848.118	239
848.418	242
848.718	249
849.017	261
849.317	278
849.616	299
849.916	322
850.215	349
850.515	377
850.814	405
851.113	431
851.412	454
851.712	474
852.011	494
852.310	512
852.609	528
852.908	542
853.206	554
853.505	566
853.804	576
854.103	585
854.401	591
854.700	594
854.999	592
855.297	584
855.595	572
855.894	555
856.192	535
856.491	512
856.789	486
857.087	460
857.385	436
857.683	414
857.981	394
858.279	376
858.577	358
858.875	343
859.173	331
859.471	321
859.768	312
860.066	305
860.363	299
860.661	294
860.959	290
861.256	286
861.553	281
861.851	276
862.148	271
862.445	265
862.742	260
863.039	256
863.337	252
863.634	250
863.931	247
864.227	246
864.524	245
864.821	245
865.118	245
865.415	243
865.711	239
866.008	235
866.304	231
866.601	226
866.897	222
867.194	218
867.490	216
867.786	215
868.082	215
868.379	215
868.675	216
868.971	216
869.267	216
869.563	216
869.859	215
870.154	214
870.450	213
870.746	212
871.042	211
871.337	211
871.633	211
871.928	212
872.224	213
872.519	215
872.815	217
873.110	218
873.405	217
873.700	217
873.995	217
874.291	217
874.586	217
874.881	219
875.175	221
875.470	224
875.765	228
876.060	232
876.355	237
876.649	242
876.944	246
877.238	250
877.533	254
877.827	257
878.122	259
878.416	260
878.710	259
879.005	259
879.299	257
879.593	256
879.887	255
880.181	254
880.475	252
880.769	250
881.063	248
881.356	245
881.650	242
881.944	238
882.238	198
882.531	187
882.825	187
883.118	193
883.412	192
883.705	189
883.998	196
884.291	201
884.585	202
884.878	209
>>>>>>>>>> END of Data <<<<<<<<<<