Date	2021年06月15日火曜日 12時10分31秒
Spectrometers	USB2+H05879
ダーク	使用
リファレンス	使用
積分時間[msec]	10
平均回数	280
ｽﾑｰｼﾞﾝｸﾞ	10
Electrical Dark	USE
ピクセル数	2048
計測モード	吸光度
保存開始波長[nm]	190.664
保存終了波長[nm]	884.878
保存ﾋﾟｯﾁ波長[nm]	全波長

>>>>>>>>>> Data Start <<<<<<<<<<<<
190.664	0.000000
191.040	0.000000
191.415	0.000000
191.791	-2.523378
192.166	-0.127979
192.542	-0.838698
192.917	0.000000
193.293	-0.251951
193.668	-0.390078
194.044	-0.786216
194.419	0.000000
194.794	-1.235624
195.170	-1.150466
195.545	-1.046028
195.920	-0.911955
196.296	-0.805103
196.671	-0.637471
197.046	-0.492434
197.421	-0.437335
197.796	-0.430786
198.171	-0.402959
198.546	-0.343968
198.922	-0.305039
199.297	-0.275240
199.672	-0.256594
200.047	-0.230909
200.422	-0.209462
200.796	-0.198517
201.171	-0.183422
201.546	-0.184341
201.921	-0.165923
202.296	-0.165572
202.671	-0.151444
203.045	-0.121570
203.420	-0.121858
203.795	-0.105301
204.170	-0.097602
204.544	-0.098240
204.919	-0.092285
205.294	-0.095009
205.668	-0.078991
206.043	-0.067103
206.417	-0.078746
206.792	-0.080037
207.166	-0.074989
207.541	-0.070281
207.915	-0.071506
208.289	-0.060042
208.664	-0.057124
209.038	-0.063038
209.412	-0.050528
209.787	-0.036971
210.161	-0.025019
210.535	-0.028824
210.909	-0.027449
211.284	-0.017797
211.658	-0.030907
212.032	-0.028445
212.406	-0.040747
212.780	-0.043888
213.154	-0.043451
213.528	-0.050095
213.902	-0.047272
214.276	-0.033849
214.650	-0.027139
215.024	-0.033574
215.398	-0.030731
215.772	-0.033709
216.145	-0.032516
216.519	-0.026488
216.893	-0.022042
217.267	-0.025507
217.640	-0.033650
218.014	-0.019429
218.388	-0.010738
218.761	-0.020258
219.135	-0.018725
219.508	-0.013180
219.882	-0.021129
220.256	-0.006310
220.629	0.001992
221.003	-0.000781
221.376	-0.001990
221.749	-0.006699
222.123	-0.013056
222.496	-0.017398
222.869	-0.012693
223.243	-0.013229
223.616	-0.006023
223.989	-0.006511
224.362	-0.008161
224.736	-0.008121
225.109	-0.012789
225.482	-0.013167
225.855	-0.022279
226.228	-0.023282
226.601	-0.017534
226.974	-0.008528
227.347	-0.000615
227.720	0.011238
228.093	0.007257
228.466	0.002972
228.839	0.006693
229.212	0.010490
229.585	0.002541
229.957	0.009427
230.330	0.012704
230.703	0.017708
231.076	0.016173
231.448	0.013222
231.821	0.011907
232.194	0.010893
232.566	0.012128
232.939	0.017651
233.311	0.019251
233.684	0.022836
234.056	0.023340
234.429	0.022287
234.801	0.022016
235.174	0.021497
235.546	0.017759
235.918	0.012385
236.291	0.006775
236.663	0.012528
237.035	0.002602
237.408	0.007856
237.780	0.013534
238.152	0.010570
238.524	0.003896
238.896	0.014395
239.268	0.021280
239.641	0.016242
240.013	0.032107
240.385	0.033643
240.757	0.037642
241.129	0.042264
241.500	0.040901
241.872	0.044766
242.244	0.050671
242.616	0.043376
242.988	0.049104
243.360	0.050601
243.731	0.056260
244.103	0.064253
244.475	0.055722
244.847	0.073830
245.218	0.083217
245.590	0.082306
245.961	0.085712
246.333	0.088610
246.705	0.085948
247.076	0.083621
247.448	0.090848
247.819	0.086584
248.190	0.087712
248.562	0.083999
248.933	0.078125
249.305	0.080368
249.676	0.076736
250.047	0.069005
250.418	0.073821
250.790	0.068169
251.161	0.059369
251.532	0.063697
251.903	0.059604
252.274	0.068061
252.645	0.068034
253.016	0.059426
253.387	0.052294
253.758	0.053120
254.129	0.058983
254.500	0.058575
254.871	0.063762
255.242	0.062463
255.613	0.056890
255.984	0.060721
256.355	0.064597
256.725	0.074821
257.096	0.071876
257.467	0.077353
257.838	0.079825
258.208	0.076093
258.579	0.077774
258.949	0.079062
259.320	0.081585
259.690	0.087878
260.061	0.089141
260.431	0.093553
260.802	0.102790
261.172	0.111596
261.543	0.114520
261.913	0.108805
262.283	0.097657
262.654	0.091644
263.024	0.085097
263.394	0.087033
263.764	0.086994
264.135	0.087471
264.505	0.083521
264.875	0.089712
265.245	0.091082
265.615	0.093053
265.985	0.091136
266.355	0.098793
266.725	0.104248
267.095	0.102766
267.465	0.100906
267.835	0.099061
268.205	0.088721
268.575	0.096599
268.944	0.094984
269.314	0.087465
269.684	0.093075
270.054	0.098136
270.423	0.098334
270.793	0.103926
271.163	0.106682
271.532	0.105049
271.902	0.106934
272.271	0.112475
272.641	0.117276
273.010	0.113442
273.380	0.104911
273.749	0.108936
274.119	0.103996
274.488	0.106708
274.857	0.108732
275.227	0.105162
275.596	0.102401
275.965	0.108345
276.335	0.097351
276.704	0.094119
277.073	0.102455
277.442	0.102730
277.811	0.104888
278.180	0.117418
278.549	0.122363
278.918	0.120586
279.287	0.120746
279.656	0.122977
280.025	0.118372
280.394	0.111493
280.763	0.112305
281.132	0.125980
281.501	0.127708
281.869	0.124433
282.238	0.126942
282.607	0.125635
282.976	0.129431
283.344	0.137081
283.713	0.134427
284.081	0.139291
284.450	0.148145
284.819	0.148522
285.187	0.151155
285.556	0.157056
285.924	0.149382
286.292	0.145481
286.661	0.144209
287.029	0.143741
287.398	0.142946
287.766	0.140456
288.134	0.140355
288.502	0.143789
288.871	0.143143
289.239	0.147124
289.607	0.155858
289.975	0.153932
290.343	0.158366
290.711	0.161321
291.079	0.154801
291.447	0.153999
291.815	0.153834
292.183	0.153524
292.551	0.156605
292.919	0.153357
293.287	0.151244
293.655	0.161250
294.022	0.160512
294.390	0.166232
294.758	0.168962
295.126	0.168265
295.493	0.179756
295.861	0.190004
296.229	0.188739
296.596	0.188668
296.964	0.186011
297.331	0.173810
297.699	0.171873
298.066	0.169244
298.434	0.169382
298.801	0.176723
299.168	0.177533
299.536	0.185833
299.903	0.184375
300.270	0.187765
300.638	0.197198
301.005	0.202607
301.372	0.200158
301.739	0.206290
302.106	0.210492
302.473	0.222450
302.840	0.231235
303.207	0.248456
303.574	0.265675
303.941	0.279526
304.308	0.284999
304.675	0.302059
305.042	0.327133
305.409	0.349742
305.776	0.363056
306.143	0.383869
306.509	0.399955
306.876	0.433477
307.243	0.455818
307.610	0.485992
307.976	0.509067
308.343	0.538529
308.709	0.569945
309.076	0.598223
309.442	0.630145
309.809	0.660275
310.175	0.690642
310.542	0.718021
310.908	0.734173
311.275	0.752507
311.641	0.783935
312.007	0.819821
312.373	0.848447
312.740	0.874761
313.106	0.908116
313.472	0.952210
313.838	0.989487
314.204	1.016566
314.570	1.027060
314.936	1.049176
315.302	1.070932
315.668	1.087933
316.034	1.114416
316.400	1.145916
316.766	1.169389
317.132	1.198715
317.498	1.214903
317.864	1.232694
318.230	1.250208
318.595	1.275216
318.961	1.291988
319.327	1.311678
319.692	1.322976
320.058	1.331712
320.424	1.341783
320.789	1.355740
321.155	1.363817
321.520	1.374173
321.886	1.394725
322.251	1.414002
322.616	1.425478
322.982	1.438188
323.347	1.452285
323.712	1.460415
324.078	1.464312
324.443	1.471968
324.808	1.476238
325.173	1.486763
325.539	1.497022
325.904	1.503101
326.269	1.508836
326.634	1.519874
326.999	1.522329
327.364	1.529673
327.729	1.537167
328.094	1.548631
328.459	1.550289
328.823	1.552388
329.188	1.557006
329.553	1.553609
329.918	1.558712
330.283	1.562796
330.647	1.569082
331.012	1.572576
331.377	1.575777
331.741	1.578366
332.106	1.583731
332.470	1.584861
332.835	1.589359
333.199	1.588351
333.564	1.595188
333.928	1.596402
334.293	1.595787
334.657	1.596757
335.021	1.600135
335.386	1.600277
335.750	1.597210
336.114	1.598520
336.478	1.600930
336.843	1.600671
337.207	1.604395
337.571	1.605584
337.935	1.606529
338.299	1.605089
338.663	1.605946
339.027	1.605954
339.391	1.607471
339.755	1.606217
340.119	1.606204
340.483	1.604699
340.846	1.607093
341.210	1.607776
341.574	1.609215
341.938	1.607885
342.301	1.611292
342.665	1.611108
343.029	1.613977
343.392	1.616645
343.756	1.617445
344.119	1.617938
344.483	1.619554
344.846	1.620742
345.210	1.624017
345.573	1.624971
345.937	1.625985
346.300	1.627136
346.663	1.627623
347.027	1.628587
347.390	1.629655
347.753	1.629810
348.116	1.631320
348.479	1.631119
348.843	1.631458
349.206	1.631427
349.569	1.632946
349.932	1.632411
350.295	1.633430
350.658	1.633458
351.021	1.635215
351.383	1.637662
351.746	1.638400
352.109	1.639021
352.472	1.639242
352.835	1.638231
353.197	1.638393
353.560	1.639010
353.923	1.638508
354.285	1.638718
354.648	1.638516
355.011	1.637983
355.373	1.640610
355.736	1.641117
356.098	1.642241
356.461	1.642158
356.823	1.642273
357.185	1.644142
357.548	1.644255
357.910	1.644608
358.272	1.644925
358.635	1.643934
358.997	1.642395
359.359	1.644871
359.721	1.644698
360.083	1.646705
360.445	1.648169
360.807	1.649646
361.169	1.649370
361.531	1.650871
361.893	1.651584
362.255	1.653671
362.617	1.655990
362.979	1.658081
363.341	1.657804
363.703	1.657910
364.064	1.658252
364.426	1.659304
364.788	1.658457
365.149	1.660248
365.511	1.661397
365.873	1.663013
366.234	1.664541
366.596	1.666126
366.957	1.665630
367.319	1.666432
367.680	1.667144
368.042	1.665762
368.403	1.666177
368.764	1.669030
369.126	1.670534
369.487	1.672815
369.848	1.672750
370.209	1.674288
370.570	1.673168
370.931	1.675497
371.293	1.677522
371.654	1.678609
372.015	1.681777
372.376	1.685332
372.737	1.686565
373.098	1.687805
373.458	1.688387
373.819	1.690886
374.180	1.692969
374.541	1.694834
374.902	1.696445
375.263	1.696436
375.623	1.698045
375.984	1.700231
376.345	1.700503
376.705	1.701634
377.066	1.702575
377.426	1.703393
377.787	1.703795
378.147	1.705785
378.508	1.705987
378.868	1.707363
379.228	1.708049
379.589	1.705899
379.949	1.705183
380.309	1.705903
380.670	1.706812
381.030	1.707934
381.390	1.707186
381.750	1.707158
382.110	1.706415
382.470	1.707910
382.830	1.709605
383.190	1.711401
383.550	1.711682
383.910	1.714223
384.270	1.714492
384.630	1.715156
384.990	1.716519
385.350	1.717965
385.709	1.718101
386.069	1.719185
386.429	1.718121
386.788	1.719651
387.148	1.722460
387.508	1.723362
387.867	1.724039
388.227	1.723652
388.586	1.723602
388.946	1.724474
389.305	1.724454
389.665	1.726343
390.024	1.726481
390.383	1.726834
390.743	1.727743
391.102	1.727891
391.461	1.725458
391.820	1.727465
392.179	1.726711
392.539	1.727400
392.898	1.727168
393.257	1.728458
393.616	1.729464
393.975	1.729477
394.334	1.729581
394.693	1.728610
395.051	1.728873
395.410	1.729146
395.769	1.730377
396.128	1.731011
396.487	1.730174
396.845	1.729663
397.204	1.728566
397.563	1.726785
397.921	1.725291
398.280	1.723481
398.638	1.721935
398.997	1.722032
399.355	1.719719
399.714	1.719828
400.072	1.717584
400.431	1.715587
400.789	1.713504
401.147	1.712958
401.506	1.712182
401.864	1.711065
402.222	1.710087
402.580	1.708630
402.938	1.707022
403.297	1.704766
403.655	1.703241
404.013	1.702556
404.371	1.701393
404.729	1.699239
405.087	1.698143
405.444	1.697666
405.802	1.695674
406.160	1.695562
406.518	1.693998
406.876	1.692160
407.233	1.690517
407.591	1.689533
407.949	1.688768
408.306	1.687369
408.664	1.684766
409.022	1.684668
409.379	1.683774
409.737	1.681936
410.094	1.679952
410.451	1.678819
410.809	1.677948
411.166	1.675822
411.523	1.674769
411.881	1.673784
412.238	1.673758
412.595	1.672275
412.952	1.670866
413.310	1.669350
413.667	1.667685
414.024	1.667148
414.381	1.665848
414.738	1.663223
415.095	1.661323
415.452	1.659216
415.809	1.657546
416.165	1.655853
416.522	1.653109
416.879	1.650276
417.236	1.648184
417.593	1.646651
417.949	1.643641
418.306	1.641264
418.663	1.640956
419.019	1.638539
419.376	1.635494
419.732	1.632236
420.089	1.630947
420.445	1.628478
420.802	1.626827
421.158	1.623873
421.514	1.620641
421.871	1.618092
422.227	1.615784
422.583	1.613957
422.939	1.611463
423.295	1.608834
423.652	1.606232
424.008	1.602976
424.364	1.599874
424.720	1.597786
425.076	1.595182
425.432	1.593205
425.788	1.591100
426.143	1.586635
426.499	1.583413
426.855	1.581155
427.211	1.578690
427.567	1.575204
427.922	1.572377
428.278	1.568351
428.634	1.565819
428.989	1.563330
429.345	1.560097
429.700	1.557466
430.056	1.554777
430.411	1.552048
430.767	1.549402
431.122	1.546409
431.478	1.544022
431.833	1.541030
432.188	1.536805
432.543	1.532956
432.899	1.528598
433.254	1.524085
433.609	1.520900
433.964	1.517358
434.319	1.513187
434.674	1.509046
435.029	1.505288
435.384	1.501040
435.739	1.497736
436.094	1.494424
436.449	1.490760
436.804	1.487634
437.158	1.484062
437.513	1.479745
437.868	1.475526
438.223	1.471164
438.577	1.467033
438.932	1.463550
439.287	1.459584
439.641	1.456033
439.996	1.452208
440.350	1.448710
440.704	1.445083
441.059	1.441117
441.413	1.436682
441.768	1.432198
442.122	1.428664
442.476	1.424563
442.830	1.420233
443.185	1.416376
443.539	1.411808
443.893	1.407347
444.247	1.402786
444.601	1.398972
444.955	1.394555
445.309	1.390099
445.663	1.385437
446.017	1.380849
446.371	1.375558
446.724	1.370618
447.078	1.365799
447.432	1.361366
447.786	1.356418
448.139	1.350891
448.493	1.346271
448.847	1.341590
449.200	1.337063
449.554	1.332000
449.907	1.327708
450.261	1.322962
450.614	1.318437
450.968	1.313702
451.321	1.309039
451.674	1.304708
452.027	1.299178
452.381	1.294705
452.734	1.290443
453.087	1.286074
453.440	1.281191
453.793	1.276794
454.146	1.272488
454.499	1.268137
454.852	1.263208
455.205	1.258699
455.558	1.254720
455.911	1.250161
456.264	1.245767
456.617	1.241748
456.970	1.237524
457.322	1.233008
457.675	1.229234
458.028	1.224961
458.380	1.221104
458.733	1.217267
459.086	1.213422
459.438	1.209892
459.791	1.205647
460.143	1.201549
460.496	1.197401
460.848	1.193438
461.200	1.189206
461.553	1.185106
461.905	1.181423
462.257	1.177215
462.609	1.173154
462.961	1.169145
463.314	1.165167
463.666	1.161359
464.018	1.157351
464.370	1.153595
464.722	1.149976
465.074	1.146084
465.426	1.142762
465.777	1.139308
466.129	1.135766
466.481	1.132271
466.833	1.128850
467.184	1.125661
467.536	1.122033
467.888	1.118676
468.239	1.115132
468.591	1.111563
468.943	1.107709
469.294	1.103275
469.646	1.099572
469.997	1.095515
470.348	1.091887
470.700	1.088355
471.051	1.084962
471.402	1.081494
471.754	1.078145
472.105	1.074852
472.456	1.071804
472.807	1.068555
473.158	1.065627
473.509	1.062842
473.860	1.059818
474.211	1.056844
474.562	1.053927
474.913	1.050997
475.264	1.048240
475.615	1.045371
475.966	1.042586
476.316	1.039579
476.667	1.036936
477.018	1.034297
477.368	1.031675
477.719	1.028686
478.070	1.025737
478.420	1.022866
478.771	1.020015
479.121	1.017315
479.472	1.014614
479.822	1.011895
480.172	1.009176
480.523	1.006343
480.873	1.003798
481.223	1.001205
481.573	0.998453
481.924	0.995194
482.274	0.991993
482.624	0.988729
482.974	0.985903
483.324	0.982841
483.674	0.980251
484.024	0.977833
484.374	0.975729
484.724	0.973837
485.073	0.972034
485.423	0.970341
485.773	0.968471
486.123	0.966762
486.472	0.964915
486.822	0.963068
487.172	0.961319
487.521	0.959424
487.871	0.957529
488.220	0.955348
488.570	0.952781
488.919	0.949811
489.268	0.946722
489.618	0.943453
489.967	0.939772
490.316	0.935781
490.666	0.932113
491.015	0.928857
491.364	0.925778
491.713	0.922622
492.062	0.919706
492.411	0.917021
492.760	0.914058
493.109	0.911335
493.458	0.908598
493.807	0.905914
494.156	0.903076
494.505	0.900190
494.853	0.897604
495.202	0.894907
495.551	0.892122
495.900	0.889409
496.248	0.886657
496.597	0.883901
496.945	0.881129
497.294	0.878527
497.642	0.875859
497.991	0.873239
498.339	0.870481
498.688	0.867851
499.036	0.865397
499.384	0.862814
499.732	0.860128
500.081	0.857616
500.429	0.855028
500.777	0.852439
501.125	0.849868
501.473	0.847490
501.821	0.845050
502.169	0.842603
502.517	0.840188
502.865	0.837774
503.213	0.835391
503.561	0.833107
503.908	0.830814
504.256	0.828456
504.604	0.825994
504.952	0.823602
505.299	0.821222
505.647	0.818916
505.994	0.816544
506.342	0.814191
506.689	0.811787
507.037	0.809451
507.384	0.807103
507.732	0.804884
508.079	0.802556
508.426	0.800401
508.774	0.798130
509.121	0.795987
509.468	0.793838
509.815	0.791669
510.162	0.789554
510.509	0.787476
510.856	0.785394
511.203	0.783321
511.550	0.781227
511.897	0.779246
512.244	0.777224
512.591	0.775193
512.938	0.773191
513.284	0.771152
513.631	0.769135
513.978	0.767089
514.324	0.765183
514.671	0.763287
515.018	0.761325
515.364	0.759418
515.711	0.757459
516.057	0.755504
516.403	0.753628
516.750	0.751670
517.096	0.749758
517.443	0.747859
517.789	0.746073
518.135	0.744291
518.481	0.742580
518.827	0.740756
519.173	0.738937
519.519	0.737067
519.865	0.735173
520.211	0.733262
520.557	0.731442
520.903	0.729424
521.249	0.727631
521.595	0.725709
521.941	0.723666
522.287	0.721612
522.632	0.719600
522.978	0.717667
523.324	0.715702
523.669	0.713713
524.015	0.711770
524.360	0.709827
524.706	0.707900
525.051	0.705883
525.397	0.703759
525.742	0.701663
526.087	0.699728
526.433	0.697732
526.778	0.695834
527.123	0.693976
527.468	0.692041
527.813	0.690171
528.158	0.688364
528.504	0.686392
528.849	0.684291
529.193	0.682385
529.538	0.680390
529.883	0.678233
530.228	0.675953
530.573	0.673812
530.918	0.671624
531.263	0.669363
531.607	0.667241
531.952	0.665088
532.296	0.662788
532.641	0.660712
532.986	0.658455
533.330	0.656258
533.675	0.654207
534.019	0.651980
534.363	0.649720
534.708	0.647514
535.052	0.645281
535.396	0.642910
535.741	0.640636
536.085	0.638271
536.429	0.635840
536.773	0.633423
537.117	0.631013
537.461	0.628544
537.805	0.626032
538.149	0.623400
538.493	0.620762
538.837	0.618081
539.181	0.615342
539.524	0.612738
539.868	0.610067
540.212	0.607477
540.556	0.604738
540.899	0.602032
541.243	0.599305
541.586	0.596525
541.930	0.593724
542.273	0.590893
542.617	0.588207
542.960	0.585403
543.304	0.582625
543.647	0.579716
543.990	0.576767
544.333	0.573735
544.677	0.570749
545.020	0.567653
545.363	0.564576
545.706	0.561555
546.049	0.558514
546.392	0.555543
546.735	0.552649
547.078	0.549607
547.421	0.546515
547.764	0.543438
548.106	0.540223
548.449	0.536881
548.792	0.533679
549.135	0.530435
549.477	0.527117
549.820	0.523760
550.162	0.520437
550.505	0.517098
550.847	0.513759
551.190	0.510262
551.532	0.506735
551.875	0.503001
552.217	0.499312
552.559	0.495679
552.901	0.492107
553.244	0.488563
553.586	0.485058
553.928	0.481539
554.270	0.478271
554.612	0.474986
554.954	0.471653
555.296	0.468218
555.638	0.464931
555.980	0.461391
556.322	0.457681
556.663	0.453880
557.005	0.450059
557.347	0.446296
557.689	0.442449
558.030	0.438703
558.372	0.434930
558.713	0.431249
559.055	0.427638
559.396	0.423995
559.738	0.420283
560.079	0.416571
560.421	0.412962
560.762	0.409387
561.103	0.405837
561.444	0.402326
561.786	0.398849
562.127	0.395464
562.468	0.392137
562.809	0.388706
563.150	0.385193
563.491	0.381644
563.832	0.377992
564.173	0.374263
564.514	0.370457
564.855	0.366649
565.195	0.362777
565.536	0.358936
565.877	0.355066
566.218	0.351327
566.558	0.347638
566.899	0.344050
567.239	0.340523
567.580	0.337160
567.920	0.333972
568.261	0.331034
568.601	0.328270
568.941	0.325650
569.282	0.323125
569.622	0.320654
569.962	0.318256
570.302	0.315897
570.643	0.313504
570.983	0.311164
571.323	0.308892
571.663	0.306628
572.003	0.304432
572.343	0.302237
572.683	0.300045
573.022	0.297894
573.362	0.295647
573.702	0.293281
574.042	0.290882
574.381	0.288550
574.721	0.286277
575.061	0.284066
575.400	0.281929
575.740	0.279859
576.079	0.277854
576.419	0.275957
576.758	0.274035
577.097	0.272026
577.437	0.269849
577.776	0.267568
578.115	0.265299
578.454	0.263073
578.794	0.260906
579.133	0.258921
579.472	0.257102
579.811	0.255409
580.150	0.253789
580.489	0.252188
580.828	0.250598
581.167	0.248996
581.505	0.247329
581.844	0.245635
582.183	0.243951
582.522	0.242328
582.860	0.240721
583.199	0.239162
583.538	0.237555
583.876	0.235933
584.215	0.234277
584.553	0.232607
584.891	0.230999
585.230	0.229398
585.568	0.227802
585.906	0.226319
586.245	0.224871
586.583	0.223536
586.921	0.222302
587.259	0.221013
587.597	0.219746
587.935	0.218475
588.273	0.217144
588.611	0.215755
588.949	0.214300
589.287	0.212811
589.625	0.211303
589.963	0.209834
590.300	0.208369
590.638	0.206911
590.976	0.205480
591.313	0.204007
591.651	0.202647
591.989	0.201363
592.326	0.200122
592.664	0.198994
593.001	0.197925
593.338	0.196943
593.676	0.196012
594.013	0.195158
594.350	0.194369
594.687	0.193519
595.025	0.192598
595.362	0.191680
595.699	0.190709
596.036	0.189723
596.373	0.188686
596.710	0.187645
597.047	0.186641
597.384	0.185641
597.720	0.184703
598.057	0.183789
598.394	0.182948
598.731	0.182112
599.067	0.181273
599.404	0.180386
599.741	0.179536
600.077	0.178696
600.414	0.177912
600.750	0.177119
601.087	0.176290
601.423	0.175440
601.759	0.174633
602.096	0.173854
602.432	0.173099
602.768	0.172310
603.104	0.171521
603.440	0.170781
603.776	0.170103
604.112	0.169389
604.448	0.168726
604.784	0.168042
605.120	0.167388
605.456	0.166745
605.792	0.166081
606.128	0.165408
606.463	0.164821
606.799	0.164228
607.135	0.163647
607.470	0.163007
607.806	0.162382
608.142	0.161754
608.477	0.161171
608.812	0.160573
609.148	0.159977
609.483	0.159334
609.819	0.158746
610.154	0.158133
610.489	0.157572
610.824	0.157002
611.159	0.156415
611.494	0.155817
611.830	0.155274
612.165	0.154754
612.500	0.154223
612.834	0.153692
613.169	0.153193
613.504	0.152647
613.839	0.152046
614.174	0.151484
614.509	0.150969
614.843	0.150502
615.178	0.150032
615.512	0.149568
615.847	0.149094
616.182	0.148629
616.516	0.148127
616.850	0.147651
617.185	0.147250
617.519	0.146756
617.853	0.146271
618.188	0.145820
618.522	0.145441
618.856	0.145098
619.190	0.144622
619.524	0.144151
619.858	0.143736
620.192	0.143264
620.526	0.142777
620.860	0.142375
621.194	0.141965
621.528	0.141574
621.862	0.141121
622.195	0.140696
622.529	0.140272
622.863	0.139897
623.196	0.139491
623.530	0.139139
623.864	0.138743
624.197	0.138363
624.530	0.138077
624.864	0.137702
625.197	0.137337
625.531	0.136936
625.864	0.136509
626.197	0.136094
626.530	0.135668
626.863	0.135154
627.196	0.134775
627.529	0.134444
627.862	0.134035
628.195	0.133603
628.528	0.133233
628.861	0.132900
629.194	0.132596
629.527	0.132228
629.860	0.131894
630.192	0.131532
630.525	0.131231
630.858	0.130948
631.190	0.130676
631.523	0.130332
631.855	0.129983
632.188	0.129669
632.520	0.129319
632.852	0.128901
633.185	0.128548
633.517	0.128264
633.849	0.128055
634.182	0.127750
634.514	0.127519
634.846	0.127406
635.178	0.127244
635.510	0.127021
635.842	0.126738
636.174	0.126442
636.506	0.126204
636.837	0.125896
637.169	0.125660
637.501	0.125330
637.833	0.125057
638.164	0.124726
638.496	0.124371
638.828	0.124033
639.159	0.123622
639.491	0.123258
639.822	0.122952
640.154	0.122619
640.485	0.122216
640.816	0.121793
641.147	0.121425
641.479	0.121015
641.810	0.120580
642.141	0.120191
642.472	0.119791
642.803	0.119491
643.134	0.119173
643.465	0.118933
643.796	0.118747
644.127	0.118592
644.458	0.118457
644.789	0.118328
645.119	0.118163
645.450	0.117982
645.781	0.117877
646.111	0.117805
646.442	0.117730
646.773	0.117550
647.103	0.117395
647.433	0.117307
647.764	0.117280
648.094	0.117280
648.425	0.117268
648.755	0.117261
649.085	0.117200
649.415	0.117060
649.745	0.116959
650.075	0.117002
650.405	0.117070
650.735	0.118403
651.065	0.127052
651.395	0.129876
651.725	0.115786
652.055	0.080191
652.385	0.060311
652.715	0.047597
653.044	0.038773
653.374	0.032303
653.704	0.027371
654.033	0.031355
654.363	0.036118
654.692	0.038829
655.022	0.040566
655.351	0.041753
655.680	0.042527
656.010	0.042982
656.339	0.043199
656.668	0.043266
656.997	0.043243
657.326	0.043165
657.655	0.042873
657.984	0.040839
658.313	0.035794
658.642	0.030521
658.971	0.035152
659.300	0.041064
659.629	0.048863
659.958	0.059631
660.286	0.075443
660.615	0.101014
660.944	0.113354
661.272	0.114090
661.601	0.115914
661.929	0.116671
662.258	0.116074
662.586	0.114481
662.915	0.112750
663.243	0.111410
663.571	0.110444
663.899	0.109854
664.228	0.109401
664.556	0.109157
664.884	0.108877
665.212	0.108704
665.540	0.108636
665.868	0.108565
666.196	0.108382
666.524	0.108289
666.852	0.108249
667.179	0.108337
667.507	0.108340
667.835	0.108337
668.162	0.108259
668.490	0.108035
668.818	0.107963
669.145	0.107707
669.473	0.107509
669.800	0.107331
670.127	0.107152
670.455	0.107028
670.782	0.106933
671.109	0.106845
671.436	0.106725
671.764	0.106626
672.091	0.106529
672.418	0.106436
672.745	0.106360
673.072	0.106348
673.399	0.106266
673.726	0.106045
674.053	0.105802
674.379	0.105580
674.706	0.105511
675.033	0.105291
675.359	0.105222
675.686	0.105066
676.013	0.104976
676.339	0.104919
676.666	0.104825
676.992	0.104749
677.318	0.104582
677.645	0.104393
677.971	0.104117
678.297	0.103898
678.624	0.103783
678.950	0.103582
679.276	0.103394
679.602	0.103193
679.928	0.103041
680.254	0.102956
680.580	0.102964
680.906	0.102916
681.232	0.102854
681.558	0.102642
681.883	0.102537
682.209	0.102392
682.535	0.102214
682.860	0.102134
683.186	0.101977
683.511	0.101670
683.837	0.101379
684.162	0.101304
684.488	0.101228
684.813	0.101213
685.138	0.101071
685.464	0.100920
685.789	0.100792
686.114	0.100654
686.439	0.100586
686.764	0.100440
687.089	0.100234
687.414	0.099982
687.739	0.099744
688.064	0.099553
688.389	0.099449
688.714	0.099241
689.039	0.098914
689.363	0.098687
689.688	0.098396
690.013	0.098142
690.337	0.098103
690.662	0.098120
690.986	0.097978
691.311	0.097778
691.635	0.097552
691.959	0.097450
692.284	0.097394
692.608	0.097302
692.932	0.097196
693.256	0.097087
693.580	0.097019
693.904	0.096926
694.228	0.096851
694.552	0.096694
694.876	0.096450
695.200	0.096090
695.524	0.095800
695.848	0.095642
696.172	0.095456
696.495	0.095275
696.819	0.095115
697.143	0.094836
697.466	0.094619
697.790	0.094411
698.113	0.094276
698.437	0.094125
698.760	0.093933
699.083	0.093682
699.407	0.093457
699.730	0.093261
700.053	0.092998
700.376	0.092615
700.699	0.092179
701.022	0.091810
701.345	0.091474
701.668	0.091203
701.991	0.091137
702.314	0.091074
702.637	0.091073
702.960	0.091081
703.283	0.091086
703.605	0.090976
703.928	0.090970
704.251	0.090851
704.573	0.090672
704.896	0.090468
705.218	0.090248
705.540	0.090122
705.863	0.089973
706.185	0.089834
706.507	0.089654
706.830	0.089509
707.152	0.089395
707.474	0.089260
707.796	0.089067
708.118	0.088952
708.440	0.088784
708.762	0.088567
709.084	0.088407
709.406	0.088206
709.728	0.087991
710.049	0.087777
710.371	0.087570
710.693	0.087368
711.014	0.087056
711.336	0.086843
711.658	0.086645
711.979	0.086435
712.301	0.086121
712.622	0.085818
712.943	0.085451
713.265	0.085175
713.586	0.084957
713.907	0.084778
714.228	0.084733
714.549	0.084614
714.870	0.084567
715.191	0.084496
715.512	0.084302
715.833	0.084019
716.154	0.083708
716.475	0.083426
716.796	0.083020
717.117	0.082631
717.437	0.082226
717.758	0.081942
718.078	0.081615
718.399	0.081355
718.719	0.081136
719.040	0.080972
719.360	0.080805
719.681	0.080697
720.001	0.080570
720.321	0.080430
720.642	0.080232
720.962	0.079983
721.282	0.079810
721.602	0.079588
721.922	0.079342
722.242	0.079169
722.562	0.078934
722.882	0.078761
723.202	0.078545
723.521	0.078410
723.841	0.078397
724.161	0.078201
724.481	0.078080
724.800	0.077962
725.120	0.077857
725.439	0.077746
725.759	0.077590
726.078	0.077546
726.398	0.077497
726.717	0.077430
727.036	0.077273
727.355	0.077154
727.675	0.077006
727.994	0.076900
728.313	0.076764
728.632	0.076572
728.951	0.076384
729.270	0.076261
729.589	0.076152
729.908	0.076051
730.226	0.075845
730.545	0.075593
730.864	0.075439
731.182	0.075249
731.501	0.075014
731.820	0.074746
732.138	0.074530
732.457	0.074285
732.775	0.074032
733.093	0.073776
733.412	0.073519
733.730	0.073270
734.048	0.073062
734.367	0.072840
734.685	0.072619
735.003	0.072394
735.321	0.072262
735.639	0.072101
735.957	0.071937
736.275	0.071665
736.593	0.071445
736.910	0.071226
737.228	0.071040
737.546	0.070830
737.863	0.070691
738.181	0.070506
738.499	0.070360
738.816	0.070222
739.134	0.070107
739.451	0.069975
739.768	0.069846
740.086	0.069643
740.403	0.069451
740.720	0.069247
741.038	0.069092
741.355	0.068830
741.672	0.068511
741.989	0.068210
742.306	0.067866
742.623	0.067555
742.940	0.067308
743.257	0.066929
743.573	0.066673
743.890	0.066464
744.207	0.066269
744.523	0.066027
744.840	0.065833
745.157	0.065622
745.473	0.065410
745.790	0.065331
746.106	0.065247
746.422	0.065165
746.739	0.065099
747.055	0.064975
747.371	0.064762
747.687	0.064592
748.004	0.064408
748.320	0.064281
748.636	0.064165
748.952	0.064139
749.268	0.064199
749.584	0.064195
749.899	0.064170
750.215	0.064239
750.531	0.064172
750.847	0.064203
751.162	0.064167
751.478	0.064134
751.793	0.064117
752.109	0.064064
752.424	0.063955
752.740	0.063852
753.055	0.063790
753.370	0.063793
753.686	0.063844
754.001	0.063928
754.316	0.063933
754.631	0.063991
754.946	0.064037
755.261	0.063988
755.576	0.063850
755.891	0.063657
756.206	0.063530
756.521	0.063482
756.836	0.063371
757.150	0.063310
757.465	0.063096
757.780	0.062927
758.094	0.062847
758.409	0.062730
758.723	0.062621
759.038	0.062497
759.352	0.062327
759.667	0.062202
759.981	0.062128
760.295	0.062015
760.609	0.061879
760.923	0.061809
761.238	0.061603
761.552	0.061401
761.866	0.061214
762.180	0.061088
762.493	0.060900
762.807	0.060626
763.121	0.060330
763.435	0.060094
763.749	0.059842
764.062	0.059809
764.376	0.059811
764.689	0.059767
765.003	0.059738
765.316	0.059776
765.630	0.059869
765.943	0.059874
766.257	0.059787
766.570	0.059578
766.883	0.059365
767.196	0.059115
767.509	0.058749
767.822	0.058522
768.135	0.058318
768.448	0.058115
768.761	0.057903
769.074	0.057772
769.387	0.057748
769.700	0.057724
770.013	0.057667
770.325	0.057587
770.638	0.057421
770.950	0.057158
771.263	0.056893
771.575	0.056608
771.888	0.056211
772.200	0.055820
772.513	0.055505
772.825	0.055206
773.137	0.054922
773.449	0.054660
773.761	0.054446
774.074	0.054436
774.386	0.054428
774.698	0.054423
775.010	0.054425
775.321	0.054489
775.633	0.054439
775.945	0.054460
776.257	0.054541
776.568	0.054634
776.880	0.054790
777.192	0.054849
777.503	0.054881
777.815	0.054886
778.126	0.054913
778.438	0.055034
778.749	0.055068
779.060	0.055012
779.372	0.054999
779.683	0.054998
779.994	0.054932
780.305	0.054839
780.616	0.054739
780.927	0.054689
781.238	0.054522
781.549	0.054422
781.860	0.054324
782.171	0.054354
782.481	0.054363
782.792	0.054191
783.103	0.054077
783.413	0.053950
783.724	0.053760
784.034	0.053717
784.345	0.053729
784.655	0.053679
784.966	0.053574
785.276	0.053443
785.586	0.053369
785.896	0.053242
786.207	0.053132
786.517	0.053129
786.827	0.053145
787.137	0.053139
787.447	0.053060
787.757	0.053122
788.066	0.053096
788.376	0.053048
788.686	0.052982
788.996	0.052884
789.305	0.053009
789.615	0.053189
789.925	0.053299
790.234	0.053511
790.544	0.053678
790.853	0.053700
791.162	0.053866
791.472	0.053826
791.781	0.053787
792.090	0.053720
792.399	0.053609
792.708	0.053360
793.017	0.053272
793.326	0.053153
793.635	0.053045
793.944	0.052949
794.253	0.052810
794.562	0.052805
794.871	0.052828
795.179	0.052790
795.488	0.052683
795.797	0.052613
796.105	0.052320
796.414	0.052009
796.722	0.051786
797.031	0.051455
797.339	0.051214
797.647	0.050760
797.956	0.050511
798.264	0.050366
798.572	0.050368
798.880	0.050432
799.188	0.050611
799.496	0.050648
799.804	0.050744
800.112	0.050640
800.420	0.050607
800.728	0.050543
801.035	0.050382
801.343	0.050255
801.651	0.050204
801.958	0.050424
802.266	0.050482
802.573	0.050598
802.881	0.050812
803.188	0.050863
803.496	0.050903
803.803	0.050965
804.110	0.050989
804.417	0.050882
804.724	0.050716
805.032	0.050650
805.339	0.050524
805.646	0.050392
805.953	0.050157
806.259	0.050091
806.566	0.050058
806.873	0.049961
807.180	0.049884
807.486	0.049870
807.793	0.049866
808.100	0.049703
808.406	0.049333
808.713	0.048974
809.019	0.048510
809.326	0.048274
809.632	0.048013
809.938	0.047686
810.244	0.047351
810.551	0.047201
810.857	0.047104
811.163	0.047149
811.469	0.046911
811.775	0.046700
812.081	0.046518
812.387	0.046641
812.692	0.046624
812.998	0.046745
813.304	0.046733
813.610	0.046852
813.915	0.046855
814.221	0.046685
814.526	0.046606
814.832	0.046609
815.137	0.046537
815.443	0.046461
815.748	0.046265
816.053	0.046095
816.358	0.046014
816.664	0.045977
816.969	0.046035
817.274	0.046272
817.579	0.046385
817.884	0.046450
818.189	0.046559
818.493	0.046723
818.798	0.046536
819.103	0.046266
819.408	0.045752
819.712	0.045513
820.017	0.045230
820.321	0.045054
820.626	0.045149
820.930	0.045058
821.235	0.045169
821.539	0.045175
821.843	0.045290
822.148	0.045208
822.452	0.045257
822.756	0.045324
823.060	0.045235
823.364	0.045187
823.668	0.045000
823.972	0.044721
824.276	0.044708
824.580	0.044849
824.883	0.045019
825.187	0.044935
825.491	0.045033
825.795	0.045183
826.098	0.045260
826.402	0.045156
826.705	0.045025
827.008	0.044478
827.312	0.044315
827.615	0.043763
827.918	0.043529
828.222	0.043209
828.525	0.042847
828.828	0.042771
829.131	0.042590
829.434	0.042610
829.737	0.042439
830.040	0.042119
830.343	0.041983
830.645	0.041845
830.948	0.041491
831.251	0.041218
831.553	0.041245
831.856	0.041035
832.159	0.040963
832.461	0.040769
832.764	0.040693
833.066	0.040559
833.368	0.041033
833.671	0.041037
833.973	0.040920
834.275	0.040637
834.577	0.040660
834.879	0.041085
835.181	0.040708
835.483	0.040260
835.785	0.039746
836.087	0.039304
836.389	0.039229
836.690	0.038916
836.992	0.038339
837.294	0.037783
837.595	0.037019
837.897	0.036350
838.198	0.035898
838.500	0.035508
838.801	0.035389
839.103	0.034947
839.404	0.034719
839.705	0.033887
840.006	0.033629
840.307	0.034076
840.608	0.034267
840.910	0.034413
841.210	0.034410
841.511	0.034358
841.812	0.034194
842.113	0.033969
842.414	0.033393
842.715	0.032891
843.015	0.032383
843.316	0.031908
843.616	0.031461
843.917	0.031043
844.217	0.030980
844.518	0.030852
844.818	0.030867
845.118	0.030647
845.419	0.031050
845.719	0.030858
846.019	0.030527
846.319	0.030768
846.619	0.030346
846.919	0.030646
847.219	0.030254
847.519	0.029216
847.819	0.029363
848.118	0.029402
848.418	0.030251
848.718	0.031198
849.017	0.032284
849.317	0.033208
849.616	0.034255
849.916	0.035182
850.215	0.036344
850.515	0.036651
850.814	0.036631
851.113	0.036209
851.412	0.036019
851.712	0.035575
852.011	0.035296
852.310	0.035741
852.609	0.035701
852.908	0.035505
853.206	0.035192
853.505	0.035485
853.804	0.035567
854.103	0.035522
854.401	0.035468
854.700	0.034950
854.999	0.034447
855.297	0.033811
855.595	0.033301
855.894	0.032765
856.192	0.032156
856.491	0.031332
856.789	0.030640
857.087	0.029959
857.385	0.029521
857.683	0.029342
857.981	0.029037
858.279	0.029156
858.577	0.028065
858.875	0.027897
859.173	0.028006
859.471	0.028240
859.768	0.027997
860.066	0.027702
860.363	0.027155
860.661	0.026812
860.959	0.027185
861.256	0.027147
861.553	0.027146
861.851	0.026390
862.148	0.025435
862.445	0.025060
862.742	0.024715
863.039	0.024547
863.337	0.024583
863.634	0.024391
863.931	0.023970
864.227	0.024094
864.524	0.023852
864.821	0.024407
865.118	0.023301
865.415	0.022781
865.711	0.022202
866.008	0.020911
866.304	0.020926
866.601	0.020604
866.897	0.020919
867.194	0.021120
867.490	0.020867
867.786	0.020418
868.082	0.021231
868.379	0.021749
868.675	0.021412
868.971	0.021277
869.267	0.021294
869.563	0.022049
869.859	0.022507
870.154	0.022263
870.450	0.022567
870.746	0.022339
871.042	0.022480
871.337	0.022779
871.633	0.022553
871.928	0.022210
872.224	0.022435
872.519	0.021808
872.815	0.021597
873.110	0.021020
873.405	0.019948
873.700	0.020081
873.995	0.020292
874.291	0.020177
874.586	0.020708
874.881	0.021217
875.175	0.021447
875.470	0.021620
875.765	0.021372
876.060	0.020944
876.355	0.021310
876.649	0.020818
876.944	0.020791
877.238	0.020546
877.533	0.020395
877.827	0.020838
878.122	0.021291
878.416	0.021502
878.710	0.021272
879.005	0.021261
879.299	0.021153
879.593	0.020739
879.887	0.020502
880.181	0.019971
880.475	0.020163
880.769	0.019921
881.063	0.019709
881.356	0.019922
881.650	0.019055
881.944	0.018176
882.238	0.012950
882.531	0.007130
882.825	0.012722
883.118	0.005761
883.412	0.030511
883.705	0.021613
883.998	0.017490
884.291	0.028863
884.585	0.006040
884.878	0.011145
>>>>>>>>>> END of Data <<<<<<<<<<
>>>>>>>>>> Raw Data Start <<<<<<<<
190.664	-267
191.040	6
191.415	6
191.791	6
192.166	3
192.542	8
192.917	5
193.293	5
193.668	5
194.044	5
194.419	-6
194.794	7
195.170	7
195.545	7
195.920	7
196.296	7
196.671	8
197.046	8
197.421	8
197.796	9
198.171	9
198.546	9
198.922	10
199.297	10
199.672	10
200.047	10
200.422	11
200.796	11
201.171	11
201.546	11
201.921	11
202.296	11
202.671	11
203.045	11
203.420	12
203.795	12
204.170	12
204.544	12
204.919	12
205.294	12
205.668	12
206.043	12
206.417	12
206.792	12
207.166	12
207.541	11
207.915	11
208.289	11
208.664	11
209.038	11
209.412	12
209.787	12
210.161	12
210.535	12
210.909	12
211.284	12
211.658	12
212.032	12
212.406	12
212.780	12
213.154	12
213.528	12
213.902	12
214.276	12
214.650	12
215.024	12
215.398	12
215.772	12
216.145	12
216.519	12
216.893	12
217.267	12
217.640	12
218.014	12
218.388	13
218.761	13
219.135	13
219.508	13
219.882	13
220.256	13
220.629	13
221.003	13
221.376	13
221.749	13
222.123	13
222.496	13
222.869	13
223.243	13
223.616	13
223.989	13
224.362	13
224.736	13
225.109	14
225.482	14
225.855	14
226.228	14
226.601	14
226.974	13
227.347	13
227.720	13
228.093	13
228.466	13
228.839	13
229.212	13
229.585	12
229.957	12
230.330	12
230.703	12
231.076	13
231.448	13
231.821	12
232.194	12
232.566	12
232.939	12
233.311	12
233.684	12
234.056	12
234.429	12
234.801	12
235.174	12
235.546	12
235.918	13
236.291	13
236.663	13
237.035	13
237.408	14
237.780	14
238.152	14
238.524	14
238.896	14
239.268	14
239.641	14
240.013	14
240.385	14
240.757	14
241.129	14
241.500	14
241.872	14
242.244	14
242.616	14
242.988	13
243.360	14
243.731	14
244.103	14
244.475	14
244.847	13
245.218	13
245.590	13
245.961	13
246.333	13
246.705	13
247.076	13
247.448	13
247.819	13
248.190	14
248.562	14
248.933	14
249.305	14
249.676	15
250.047	15
250.418	14
250.790	15
251.161	15
251.532	15
251.903	15
252.274	14
252.645	15
253.016	15
253.387	15
253.758	15
254.129	15
254.500	15
254.871	15
255.242	15
255.613	15
255.984	15
256.355	15
256.725	14
257.096	14
257.467	14
257.838	14
258.208	14
258.579	14
258.949	14
259.320	14
259.690	14
260.061	15
260.431	15
260.802	14
261.172	14
261.543	14
261.913	14
262.283	15
262.654	15
263.024	15
263.394	15
263.764	15
264.135	15
264.505	16
264.875	15
265.245	15
265.615	15
265.985	15
266.355	15
266.725	15
267.095	15
267.465	15
267.835	15
268.205	15
268.575	15
268.944	15
269.314	15
269.684	15
270.054	14
270.423	14
270.793	14
271.163	14
271.532	14
271.902	14
272.271	14
272.641	14
273.010	14
273.380	14
273.749	14
274.119	15
274.488	15
274.857	15
275.227	15
275.596	15
275.965	15
276.335	16
276.704	16
277.073	15
277.442	16
277.811	16
278.180	16
278.549	15
278.918	16
279.287	16
279.656	16
280.025	16
280.394	16
280.763	16
281.132	16
281.501	16
281.869	16
282.238	15
282.607	15
282.976	15
283.344	15
283.713	15
284.081	15
284.450	14
284.819	15
285.187	15
285.556	14
285.924	15
286.292	15
286.661	15
287.029	14
287.398	15
287.766	15
288.134	15
288.502	15
288.871	15
289.239	15
289.607	15
289.975	15
290.343	15
290.711	15
291.079	15
291.447	15
291.815	15
292.183	15
292.551	15
292.919	15
293.287	15
293.655	15
294.022	15
294.390	15
294.758	15
295.126	15
295.493	14
295.861	14
296.229	14
296.596	14
296.964	14
297.331	15
297.699	15
298.066	15
298.434	16
298.801	15
299.168	15
299.536	15
299.903	15
300.270	15
300.638	15
301.005	15
301.372	15
301.739	16
302.106	16
302.473	16
302.840	16
303.207	16
303.574	16
303.941	16
304.308	16
304.675	16
305.042	16
305.409	16
305.776	16
306.143	16
306.509	16
306.876	16
307.243	16
307.610	16
307.976	16
308.343	16
308.709	16
309.076	16
309.442	16
309.809	16
310.175	16
310.542	16
310.908	16
311.275	17
311.641	17
312.007	16
312.373	17
312.740	17
313.106	17
313.472	16
313.838	16
314.204	16
314.570	17
314.936	17
315.302	17
315.668	18
316.034	18
316.400	17
316.766	17
317.132	17
317.498	18
317.864	18
318.230	18
318.595	18
318.961	18
319.327	18
319.692	19
320.058	19
320.424	20
320.789	20
321.155	21
321.520	21
321.886	21
322.251	22
322.616	22
322.982	23
323.347	23
323.712	24
324.078	25
324.443	25
324.808	26
325.173	27
325.539	27
325.904	28
326.269	29
326.634	29
326.999	30
327.364	31
327.729	31
328.094	31
328.459	32
328.823	33
329.188	34
329.553	35
329.918	36
330.283	37
330.647	37
331.012	38
331.377	38
331.741	39
332.106	40
332.470	41
332.835	41
333.199	42
333.564	43
333.928	44
334.293	45
334.657	46
335.021	46
335.386	47
335.750	49
336.114	50
336.478	50
336.843	51
337.207	52
337.571	53
337.935	54
338.299	55
338.663	56
339.027	57
339.391	58
339.755	59
340.119	60
340.483	61
340.846	62
341.210	63
341.574	64
341.938	65
342.301	65
342.665	66
343.029	67
343.392	67
343.756	68
344.119	69
344.483	70
344.846	70
345.210	71
345.573	72
345.937	72
346.300	73
346.663	74
347.027	74
347.390	75
347.753	76
348.116	76
348.479	77
348.843	78
349.206	79
349.569	79
349.932	80
350.295	80
350.658	81
351.021	81
351.383	82
351.746	82
352.109	83
352.472	83
352.835	84
353.197	85
353.560	85
353.923	86
354.285	86
354.648	87
355.011	88
355.373	88
355.736	88
356.098	88
356.461	89
356.823	90
357.185	90
357.548	90
357.910	91
358.272	91
358.635	92
358.997	93
359.359	93
359.721	93
360.083	93
360.445	93
360.807	94
361.169	94
361.531	94
361.893	95
362.255	95
362.617	95
362.979	95
363.341	95
363.703	96
364.064	96
364.426	96
364.788	97
365.149	97
365.511	98
365.873	98
366.234	98
366.596	98
366.957	98
367.319	98
367.680	98
368.042	99
368.403	99
368.764	99
369.126	99
369.487	98
369.848	99
370.209	98
370.570	99
370.931	98
371.293	98
371.654	98
372.015	97
372.376	97
372.737	97
373.098	97
373.458	97
373.819	96
374.180	96
374.541	96
374.902	96
375.263	97
375.623	97
375.984	97
376.345	97
376.705	97
377.066	97
377.426	98
377.787	98
378.147	98
378.508	98
378.868	98
379.228	98
379.589	99
379.949	100
380.309	100
380.670	100
381.030	100
381.390	100
381.750	101
382.110	101
382.470	101
382.830	101
383.190	100
383.550	100
383.910	100
384.270	100
384.630	101
384.990	101
385.350	101
385.709	101
386.069	101
386.429	102
386.788	102
387.148	101
387.508	101
387.867	101
388.227	102
388.586	102
388.946	103
389.305	104
389.665	104
390.024	104
390.383	105
390.743	105
391.102	106
391.461	107
391.820	106
392.179	107
392.539	107
392.898	107
393.257	107
393.616	107
393.975	108
394.334	108
394.693	109
395.051	110
395.410	111
395.769	111
396.128	112
396.487	112
396.845	112
397.204	113
397.563	113
397.921	114
398.280	114
398.638	115
398.997	115
399.355	115
399.714	115
400.072	116
400.431	117
400.789	117
401.147	118
401.506	118
401.864	119
402.222	119
402.580	119
402.938	119
403.297	119
403.655	120
404.013	119
404.371	120
404.729	120
405.087	120
405.444	120
405.802	121
406.160	121
406.518	122
406.876	122
407.233	123
407.591	123
407.949	123
408.306	123
408.664	124
409.022	124
409.379	124
409.737	125
410.094	125
410.451	126
410.809	126
411.166	127
411.523	127
411.881	128
412.238	128
412.595	129
412.952	129
413.310	129
413.667	130
414.024	130
414.381	131
414.738	131
415.095	132
415.452	133
415.809	133
416.165	134
416.522	135
416.879	136
417.236	137
417.593	138
417.949	140
418.306	142
418.663	143
419.019	145
419.376	147
419.732	149
420.089	151
420.445	153
420.802	154
421.158	156
421.514	158
421.871	160
422.227	161
422.583	162
422.939	163
423.295	165
423.652	166
424.008	168
424.364	169
424.720	170
425.076	170
425.432	171
425.788	172
426.143	173
426.499	175
426.855	176
427.211	177
427.567	179
427.922	180
428.278	182
428.634	182
428.989	183
429.345	185
429.700	186
430.056	187
430.411	189
430.767	191
431.122	192
431.478	194
431.833	195
432.188	197
432.543	199
432.899	201
433.254	202
433.609	203
433.964	204
434.319	205
434.674	206
435.029	207
435.384	209
435.739	210
436.094	213
436.449	215
436.804	217
437.158	220
437.513	223
437.868	227
438.223	231
438.577	235
438.932	239
439.287	243
439.641	247
439.996	251
440.350	255
440.704	259
441.059	264
441.413	269
441.768	273
442.122	277
442.476	282
442.830	286
443.185	290
443.539	295
443.893	299
444.247	303
444.601	307
444.955	310
445.309	312
445.663	315
446.017	317
446.371	320
446.724	322
447.078	324
447.432	326
447.786	328
448.139	330
448.493	331
448.847	332
449.200	333
449.554	335
449.907	336
450.261	337
450.614	338
450.968	339
451.321	340
451.674	341
452.027	343
452.381	345
452.734	346
453.087	348
453.440	350
453.793	352
454.146	355
454.499	358
454.852	363
455.205	367
455.558	371
455.911	376
456.264	381
456.617	385
456.970	390
457.322	394
457.675	398
458.028	402
458.380	405
458.733	408
459.086	412
459.438	416
459.791	420
460.143	425
460.496	430
460.848	436
461.200	443
461.553	450
461.905	456
462.257	463
462.609	469
462.961	474
463.314	479
463.666	484
464.018	488
464.370	492
464.722	497
465.074	502
465.426	506
465.777	510
466.129	514
466.481	517
466.833	520
467.184	522
467.536	523
467.888	524
468.239	524
468.591	524
468.943	525
469.294	527
469.646	529
469.997	533
470.348	537
470.700	542
471.051	548
471.402	555
471.754	563
472.105	572
472.456	581
472.807	592
473.158	603
473.509	615
473.860	628
474.211	642
474.562	656
474.913	671
475.264	686
475.615	701
475.966	717
476.316	732
476.667	747
477.018	762
477.368	778
477.719	794
478.070	810
478.420	825
478.771	840
479.121	854
479.472	869
479.822	884
480.172	900
480.523	919
480.873	943
481.223	983
481.573	1042
481.924	1117
482.274	1202
482.624	1292
482.974	1383
483.324	1464
483.674	1527
484.024	1571
484.374	1602
484.724	1621
485.073	1636
485.423	1648
485.773	1660
486.123	1671
486.472	1683
486.822	1693
487.172	1703
487.521	1711
487.871	1716
488.220	1715
488.570	1698
488.919	1662
489.268	1609
489.618	1545
489.967	1477
490.316	1407
490.666	1345
491.015	1301
491.364	1274
491.713	1263
492.062	1261
492.411	1264
492.760	1270
493.109	1277
493.458	1283
493.807	1289
494.156	1295
494.505	1301
494.853	1307
495.202	1314
495.551	1323
495.900	1332
496.248	1342
496.597	1352
496.945	1362
497.294	1371
497.642	1381
497.991	1392
498.339	1405
498.688	1419
499.036	1432
499.384	1444
499.732	1456
500.081	1465
500.429	1474
500.777	1482
501.125	1490
501.473	1498
501.821	1507
502.169	1515
502.517	1522
502.865	1527
503.213	1532
503.561	1535
503.908	1538
504.256	1540
504.604	1542
504.952	1544
505.299	1544
505.647	1543
505.994	1541
506.342	1538
506.689	1535
507.037	1533
507.384	1533
507.732	1533
508.079	1533
508.426	1533
508.774	1534
509.121	1534
509.468	1533
509.815	1533
510.162	1532
510.509	1531
510.856	1530
511.203	1528
511.550	1527
511.897	1525
512.244	1524
512.591	1523
512.938	1521
513.284	1520
513.631	1519
513.978	1517
514.324	1514
514.671	1510
515.018	1507
515.364	1504
515.711	1502
516.057	1500
516.403	1497
516.750	1495
517.096	1491
517.443	1487
517.789	1483
518.135	1478
518.481	1475
518.827	1472
519.173	1468
519.519	1465
519.865	1463
520.211	1461
520.557	1459
520.903	1458
521.249	1456
521.595	1456
521.941	1455
522.287	1455
522.632	1454
522.978	1453
523.324	1453
523.669	1454
524.015	1456
524.360	1461
524.706	1466
525.051	1474
525.397	1483
525.742	1493
526.087	1503
526.433	1513
526.778	1522
527.123	1528
527.468	1535
527.813	1540
528.158	1546
528.504	1553
528.849	1563
529.193	1575
529.538	1589
529.883	1606
530.228	1626
530.573	1648
530.918	1670
531.263	1694
531.607	1715
531.952	1734
532.296	1752
532.641	1766
532.986	1777
533.330	1789
533.675	1800
534.019	1814
534.363	1832
534.708	1853
535.052	1877
535.396	1903
535.741	1929
536.085	1951
536.429	1973
536.773	1991
537.117	2006
537.461	2019
537.805	2031
538.149	2044
538.493	2058
538.837	2074
539.181	2092
539.524	2113
539.868	2137
540.212	2164
540.556	2193
540.899	2223
541.243	2251
541.586	2275
541.930	2295
542.273	2310
542.617	2322
542.960	2335
543.304	2351
543.647	2371
543.990	2396
544.333	2425
544.677	2454
545.020	2483
545.363	2508
545.706	2528
546.049	2544
546.392	2555
546.735	2561
547.078	2566
547.421	2571
547.764	2577
548.106	2585
548.449	2596
548.792	2612
549.135	2632
549.477	2657
549.820	2683
550.162	2705
550.505	2724
550.847	2739
551.190	2750
551.532	2760
551.875	2770
552.217	2781
552.559	2795
552.901	2812
553.244	2833
553.586	2857
553.928	2881
554.270	2903
554.612	2922
554.954	2938
555.296	2952
555.638	2965
555.980	2979
556.322	2996
556.663	3019
557.005	3048
557.347	3085
557.689	3125
558.030	3164
558.372	3202
558.713	3236
559.055	3268
559.396	3299
559.738	3333
560.079	3369
560.421	3409
560.762	3455
561.103	3505
561.444	3560
561.786	3618
562.127	3679
562.468	3744
562.809	3815
563.150	3894
563.491	3979
563.832	4073
564.173	4180
564.514	4302
564.855	4447
565.195	4625
565.536	4838
565.877	5086
566.218	5368
566.558	5686
566.899	6037
567.239	6417
567.580	6817
567.920	7231
568.261	7648
568.601	8074
568.941	8516
569.282	8971
569.622	9443
569.962	9934
570.302	10458
570.643	11002
570.983	11552
571.323	12085
571.663	12603
572.003	13094
572.343	13555
572.683	13986
573.022	14421
573.362	14879
573.702	15357
574.042	15837
574.381	16299
574.721	16739
575.061	17162
575.400	17550
575.740	17895
576.079	18201
576.419	18497
576.758	18831
577.097	19225
577.437	19661
577.776	20129
578.115	20619
578.454	21119
578.794	21587
579.133	21954
579.472	22213
579.811	22369
580.150	22429
580.489	22414
580.828	22362
581.167	22310
581.505	22281
581.844	22262
582.183	22241
582.522	22235
582.860	22244
583.199	22253
583.538	22237
583.876	22155
584.215	21982
584.553	21706
584.891	21331
585.230	20864
585.568	20343
585.906	19804
586.245	19317
586.583	18895
586.921	18547
587.259	18238
587.597	17928
587.935	17606
588.273	17273
588.611	16960
588.949	16682
589.287	16449
589.625	16266
589.963	16123
590.300	16011
590.638	15912
590.976	15801
591.313	15669
591.651	15539
591.989	15425
592.326	15333
592.664	15254
593.001	15189
593.338	15150
593.676	15132
594.013	15140
594.350	15194
594.687	15291
595.025	15403
595.362	15505
595.699	15580
596.036	15629
596.373	15646
596.710	15622
597.047	15569
597.384	15502
597.720	15424
598.057	15361
598.394	15313
598.731	15286
599.067	15284
599.404	15310
599.741	15372
600.077	15460
600.414	15559
600.750	15666
601.087	15752
601.423	15796
601.759	15803
602.096	15779
602.432	15736
602.768	15670
603.104	15576
603.440	15458
603.776	15330
604.112	15194
604.448	15054
604.784	14908
605.120	14751
605.456	14600
605.792	14442
606.128	14276
606.463	14103
606.799	13928
607.135	13769
607.470	13613
607.806	13457
608.142	13305
608.477	13159
608.812	13018
609.148	12878
609.483	12730
609.819	12579
610.154	12433
610.489	12298
610.824	12181
611.159	12083
611.494	11984
611.830	11897
612.165	11813
612.500	11718
612.834	11609
613.169	11483
613.504	11344
613.839	11191
614.174	11015
614.509	10837
614.843	10658
615.178	10489
615.512	10322
615.847	10158
616.182	9996
616.516	9834
616.850	9661
617.185	9480
617.519	9298
617.853	9101
618.188	8895
618.522	8705
618.856	8541
619.190	8401
619.524	8278
619.858	8180
620.192	8103
620.526	8036
620.860	7970
621.194	7905
621.528	7842
621.862	7780
622.195	7704
622.529	7622
622.863	7537
623.196	7452
623.530	7365
623.864	7280
624.197	7193
624.530	7107
624.864	7031
625.197	6953
625.531	6865
625.864	6758
626.197	6643
626.530	6519
626.863	6380
627.196	6227
627.529	6071
627.862	5918
628.195	5767
628.528	5616
628.861	5472
629.194	5342
629.527	5219
629.860	5097
630.192	4977
630.525	4864
630.858	4758
631.190	4658
631.523	4562
631.855	4470
632.188	4391
632.520	4318
632.852	4249
633.185	4179
633.517	4110
633.849	4048
634.182	3992
634.514	3938
634.846	3889
635.178	3846
635.510	3808
635.842	3775
636.174	3742
636.506	3708
636.837	3676
637.169	3644
637.501	3610
637.833	3573
638.164	3532
638.496	3486
638.828	3434
639.159	3375
639.491	3311
639.822	3244
640.154	3176
640.485	3109
640.816	3044
641.147	2978
641.479	2915
641.810	2854
642.141	2795
642.472	2737
642.803	2679
643.134	2624
643.465	2576
643.796	2538
644.127	2510
644.458	2495
644.789	2494
645.119	2507
645.450	2531
645.781	2558
646.111	2585
646.442	2609
646.773	2628
647.103	2643
647.433	2655
647.764	2667
648.094	2684
648.425	2705
648.755	2731
649.085	2761
649.415	2793
649.745	2827
650.075	2860
650.405	2897
650.735	2962
651.065	3417
651.395	5068
651.725	7952
652.055	11570
652.385	15183
652.715	18795
653.044	22408
653.374	26027
653.704	29651
654.033	32684
654.363	34585
654.692	35848
655.022	36657
655.351	37176
655.680	37491
656.010	37660
656.339	37734
656.668	37752
656.997	37741
657.326	37708
657.655	37637
657.984	37162
658.313	35482
658.642	32559
658.971	28890
659.300	25221
659.629	21553
659.958	17886
660.286	14219
660.615	10553
660.944	7487
661.272	5557
661.601	4268
661.929	3430
662.258	2878
662.586	2523
662.915	2308
663.243	2184
663.571	2113
663.899	2069
664.228	2042
664.556	2023
664.884	2010
665.212	2001
665.540	1993
665.868	1990
666.196	1989
666.524	1987
666.852	1988
667.179	1995
667.507	2010
667.835	2032
668.162	2061
668.490	2099
668.818	2142
669.145	2189
669.473	2235
669.800	2278
670.127	2317
670.455	2349
670.782	2375
671.109	2399
671.436	2419
671.764	2435
672.091	2449
672.418	2460
672.745	2470
673.072	2479
673.399	2490
673.726	2503
674.053	2513
674.379	2517
674.706	2516
675.033	2515
675.359	2511
675.686	2505
676.013	2502
676.339	2503
676.666	2510
676.992	2528
677.318	2554
677.645	2584
677.971	2613
678.297	2638
678.624	2663
678.950	2686
679.276	2709
679.602	2730
679.928	2752
680.254	2778
680.580	2811
680.906	2855
681.232	2910
681.558	2968
681.883	3026
682.209	3080
682.535	3130
682.860	3175
683.186	3214
683.511	3245
683.837	3265
684.162	3280
684.488	3291
684.813	3303
685.138	3315
685.464	3325
685.789	3333
686.114	3341
686.439	3353
686.764	3365
687.089	3375
687.414	3377
687.739	3369
688.064	3350
688.389	3324
688.714	3294
689.039	3261
689.363	3227
689.688	3190
690.013	3153
690.337	3119
690.662	3092
690.986	3068
691.311	3044
691.635	3020
691.959	2997
692.284	2980
692.608	2975
692.932	2980
693.256	2990
693.580	3003
693.904	3020
694.228	3039
694.552	3058
694.876	3068
695.200	3067
695.524	3055
695.848	3036
696.172	3011
696.495	2985
696.819	2958
697.143	2930
697.466	2901
697.790	2876
698.113	2858
698.437	2849
698.760	2848
699.083	2847
699.407	2840
699.730	2826
700.053	2804
700.376	2773
700.699	2729
701.022	2673
701.345	2611
701.668	2552
701.991	2502
702.314	2466
702.637	2447
702.960	2449
703.283	2473
703.605	2515
703.928	2575
704.251	2643
704.573	2713
704.896	2775
705.218	2826
705.540	2866
705.863	2898
706.185	2922
706.507	2944
706.830	2963
707.152	2982
707.474	3004
707.796	3029
708.118	3056
708.440	3083
708.762	3107
709.084	3126
709.406	3137
709.728	3139
710.049	3133
710.371	3120
710.693	3099
711.014	3076
711.336	3053
711.658	3032
711.979	3014
712.301	2998
712.622	2982
712.943	2962
713.265	2938
713.586	2913
713.907	2888
714.228	2866
714.549	2849
714.870	2837
715.191	2832
715.512	2832
715.833	2830
716.154	2824
716.475	2812
716.796	2796
717.117	2770
717.437	2740
717.758	2705
718.078	2669
718.399	2633
718.719	2602
719.040	2574
719.360	2552
719.681	2537
720.001	2527
720.321	2521
720.642	2519
720.962	2521
721.282	2527
721.602	2535
721.922	2545
722.242	2557
722.562	2573
722.882	2593
723.202	2612
723.521	2629
723.841	2646
724.161	2665
724.481	2683
724.800	2702
725.120	2726
725.439	2755
725.759	2788
726.078	2825
726.398	2869
726.717	2925
727.036	2989
727.355	3056
727.675	3122
727.994	3185
728.313	3246
728.632	3299
728.951	3343
729.270	3380
729.589	3414
729.908	3455
730.226	3502
730.545	3556
730.864	3612
731.182	3673
731.501	3736
731.820	3796
732.138	3848
732.457	3895
732.775	3937
733.093	3972
733.412	3993
733.730	3999
734.048	3990
734.367	3972
734.685	3947
735.003	3919
735.321	3892
735.639	3871
735.957	3855
736.275	3841
736.593	3821
736.910	3789
737.228	3745
737.546	3688
737.863	3621
738.181	3546
738.499	3466
738.816	3388
739.134	3311
739.451	3233
739.768	3155
740.086	3081
740.403	3011
740.720	2946
741.038	2885
741.355	2827
741.672	2769
741.989	2710
742.306	2649
742.623	2586
742.940	2523
743.257	2465
743.573	2414
743.890	2372
744.207	2341
744.523	2319
744.840	2304
745.157	2295
745.473	2293
745.790	2300
746.106	2316
746.422	2342
746.739	2375
747.055	2414
747.371	2460
747.687	2509
748.004	2555
748.320	2596
748.636	2632
748.952	2668
749.268	2704
749.584	2739
749.899	2770
750.215	2802
750.531	2839
750.847	2879
751.162	2920
751.478	2960
751.793	3001
752.109	3044
752.424	3091
752.740	3140
753.055	3195
753.370	3260
753.686	3337
754.001	3419
754.316	3507
754.631	3598
754.946	3696
755.261	3799
755.576	3899
755.891	3996
756.206	4091
756.521	4190
756.836	4292
757.150	4390
757.465	4478
757.780	4553
758.094	4616
758.409	4666
758.723	4698
759.038	4712
759.352	4715
759.667	4702
759.981	4679
760.295	4654
760.609	4635
760.923	4622
761.238	4614
761.552	4610
761.866	4603
762.180	4594
762.493	4570
762.807	4525
763.121	4454
763.435	4364
763.749	4263
764.062	4167
764.376	4086
764.689	4029
765.003	3998
765.316	3991
765.630	4003
765.943	4024
766.257	4051
766.570	4074
766.883	4081
767.196	4072
767.509	4046
767.822	4007
768.135	3956
768.448	3901
768.761	3843
769.074	3792
769.387	3752
769.700	3727
770.013	3712
770.325	3700
770.638	3683
770.950	3654
771.263	3605
771.575	3538
771.888	3452
772.200	3351
772.513	3241
772.825	3125
773.137	3006
773.449	2890
773.761	2776
774.074	2670
774.386	2575
774.698	2496
775.010	2430
775.321	2383
775.633	2351
775.945	2333
776.257	2322
776.568	2318
776.880	2324
777.192	2340
777.503	2365
777.815	2396
778.126	2437
778.438	2486
778.749	2540
779.060	2592
779.372	2641
779.683	2689
779.994	2732
780.305	2767
780.616	2790
780.927	2806
781.238	2812
781.549	2807
781.860	2789
782.171	2764
782.481	2736
782.792	2708
783.103	2680
783.413	2650
783.724	2618
784.034	2586
784.345	2556
784.655	2529
784.966	2501
785.276	2473
785.586	2445
785.896	2417
786.207	2388
786.517	2357
786.827	2326
787.137	2297
787.447	2269
787.757	2243
788.066	2217
788.376	2193
788.686	2169
788.996	2145
789.305	2120
789.615	2099
789.925	2087
790.234	2083
790.544	2088
790.853	2098
791.162	2109
791.472	2119
791.781	2124
792.090	2120
792.399	2107
792.708	2088
793.017	2066
793.326	2044
793.635	2024
793.944	2005
794.253	1988
794.562	1976
794.871	1968
795.179	1963
795.488	1956
795.797	1945
796.105	1929
796.414	1901
796.722	1862
797.031	1813
797.339	1753
797.647	1687
797.956	1615
798.264	1549
798.572	1493
798.880	1449
799.188	1417
799.496	1393
799.804	1375
800.112	1362
800.420	1351
800.728	1341
801.035	1327
801.343	1310
801.651	1297
801.958	1292
802.266	1297
802.573	1307
802.881	1320
803.188	1337
803.496	1357
803.803	1377
804.110	1395
804.417	1411
804.724	1426
805.032	1439
805.339	1450
805.646	1457
805.953	1462
806.259	1463
806.566	1460
806.873	1455
807.180	1447
807.486	1440
807.793	1431
808.100	1417
808.406	1395
808.713	1363
809.019	1327
809.326	1289
809.632	1253
809.938	1219
810.244	1188
810.551	1161
810.857	1139
811.163	1120
811.469	1100
811.775	1078
812.081	1057
812.387	1036
812.692	1020
812.998	1008
813.304	998
813.610	990
813.915	983
814.221	978
814.526	974
814.832	970
815.137	965
815.443	960
815.748	950
816.053	938
816.358	925
816.664	913
816.969	902
817.274	893
817.579	884
817.884	879
818.189	878
818.493	877
818.798	875
819.103	869
819.408	862
819.712	852
820.017	841
820.321	829
820.626	817
820.930	806
821.235	799
821.539	795
821.843	795
822.148	797
822.452	798
822.756	797
823.060	795
823.364	790
823.668	783
823.972	776
824.276	768
824.580	760
824.883	757
825.187	756
825.491	755
825.795	755
826.098	755
826.402	754
826.705	752
827.008	747
827.312	740
827.615	728
827.918	713
828.222	696
828.525	679
828.828	663
829.131	646
829.434	629
829.737	613
830.040	600
830.343	590
830.645	581
830.948	572
831.251	563
831.553	555
831.856	549
832.159	543
832.461	536
832.764	528
833.066	520
833.368	514
833.671	509
833.973	505
834.275	502
834.577	499
834.879	494
835.181	489
835.483	483
835.785	477
836.087	469
836.389	459
836.690	447
836.992	434
837.294	422
837.595	408
837.897	393
838.198	379
838.500	366
838.801	353
839.103	343
839.404	334
839.705	327
840.006	320
840.307	315
840.608	311
840.910	308
841.210	307
841.511	304
841.812	302
842.113	298
842.414	294
842.715	289
843.015	283
843.316	277
843.616	271
843.917	266
844.217	261
844.518	257
844.818	254
845.118	252
845.419	251
845.719	249
846.019	248
846.319	246
846.619	245
846.919	244
847.219	243
847.519	242
847.819	241
848.118	241
848.418	243
848.718	249
849.017	261
849.317	277
849.616	297
849.916	320
850.215	346
850.515	375
850.814	403
851.113	429
851.412	452
851.712	474
852.011	494
852.310	512
852.609	528
852.908	543
853.206	556
853.505	567
853.804	578
854.103	587
854.401	593
854.700	597
854.999	595
855.297	589
855.595	577
855.894	561
856.192	541
856.491	519
856.789	494
857.087	468
857.385	443
857.683	420
857.981	400
858.279	381
858.577	364
858.875	348
859.173	335
859.471	325
859.768	316
860.066	309
860.363	302
860.661	297
860.959	293
861.256	289
861.553	285
861.851	279
862.148	274
862.445	268
862.742	263
863.039	259
863.337	255
863.634	252
863.931	250
864.227	248
864.524	247
864.821	247
865.118	247
865.415	245
865.711	242
866.008	238
866.304	233
866.601	229
866.897	224
867.194	221
867.490	218
867.786	217
868.082	217
868.379	217
868.675	218
868.971	218
869.267	218
869.563	218
869.859	217
870.154	216
870.450	215
870.746	214
871.042	213
871.337	212
871.633	213
871.928	214
872.224	215
872.519	217
872.815	219
873.110	220
873.405	220
873.700	219
873.995	219
874.291	219
874.586	219
874.881	220
875.175	222
875.470	226
875.765	230
876.060	234
876.355	239
876.649	244
876.944	248
877.238	253
877.533	257
877.827	260
878.122	262
878.416	263
878.710	263
879.005	262
879.299	261
879.593	260
879.887	259
880.181	258
880.475	257
880.769	255
881.063	253
881.356	250
881.650	247
881.944	243
882.238	202
882.531	197
882.825	190
883.118	196
883.412	189
883.705	190
883.998	198
884.291	199
884.585	210
884.878	216
>>>>>>>>>> END of Data <<<<<<<<<<