Date	2022年12月13日火曜日 03時49分03秒
Spectrometers	USB2+H05879
ダーク	使用
リファレンス	使用
積分時間[msec]	2
平均回数	10000
ｽﾑｰｼﾞﾝｸﾞ	0
Electrical Dark	USE
ピクセル数	2048
計測モード	吸光度
保存開始波長[nm]	190.664
保存終了波長[nm]	884.878
保存ﾋﾟｯﾁ波長[nm]	全波長

>>>>>>>>>> Data Start <<<<<<<<<<<<
190.664	0.000000
191.040	0.000000
191.415	0.000000
191.791	0.000000
192.166	0.385410
192.542	0.148516
192.917	0.000000
193.293	0.000000
193.668	0.173720
194.044	0.593655
194.419	0.000000
194.794	0.000000
195.170	0.953357
195.545	0.823197
195.920	0.000000
196.296	0.000000
196.671	0.000000
197.046	0.000000
197.421	0.000000
197.796	0.000000
198.171	0.000000
198.546	0.000000
198.922	0.000000
199.297	0.000000
199.672	0.000000
200.047	0.000000
200.422	0.540759
200.796	0.000000
201.171	0.000000
201.546	0.000000
201.921	1.648013
202.296	0.375794
202.671	0.000000
203.045	0.000000
203.420	0.381807
203.795	-0.011885
204.170	-0.208043
204.544	0.126497
204.919	1.075248
205.294	0.000000
205.668	0.347659
206.043	0.000000
206.417	0.000000
206.792	0.498344
207.166	0.000000
207.541	0.000000
207.915	0.008279
208.289	0.000000
208.664	0.000000
209.038	0.000000
209.412	0.303893
209.787	0.000000
210.161	1.282197
210.535	0.377541
210.909	0.695667
211.284	0.000000
211.658	-0.633706
212.032	0.147363
212.406	0.000000
212.780	0.526226
213.154	0.000000
213.528	0.426624
213.902	0.488312
214.276	0.000000
214.650	0.000000
215.024	0.000000
215.398	0.000000
215.772	0.000000
216.145	-0.250394
216.519	0.000000
216.893	0.482165
217.267	0.000000
217.640	0.000000
218.014	0.868854
218.388	0.000000
218.761	0.000000
219.135	1.068256
219.508	0.000000
219.882	0.661690
220.256	0.000000
220.629	0.384697
221.003	0.000000
221.376	0.816370
221.749	0.000000
222.123	-0.059959
222.496	0.000000
222.869	0.309083
223.243	0.000000
223.616	-0.010759
223.989	0.000000
224.362	0.000000
224.736	0.082894
225.109	0.000000
225.482	0.000000
225.855	0.162847
226.228	0.969806
226.601	0.377981
226.974	0.000000
227.347	0.000000
227.720	0.000000
228.093	0.345122
228.466	-0.123046
228.839	0.000000
229.212	0.000000
229.585	0.000000
229.957	-0.076663
230.330	0.219266
230.703	0.290548
231.076	0.000000
231.448	0.226775
231.821	0.000000
232.194	0.000000
232.566	0.000000
232.939	0.000000
233.311	0.000000
233.684	0.000000
234.056	0.000000
234.429	0.307942
234.801	0.000000
235.174	0.247126
235.546	0.000000
235.918	0.000000
236.291	0.000000
236.663	-0.089197
237.035	0.000000
237.408	0.327838
237.780	1.227753
238.152	0.000000
238.524	0.000000
238.896	0.000000
239.268	-0.111225
239.641	0.362086
240.013	0.000000
240.385	0.173916
240.757	0.082662
241.129	0.000000
241.500	0.070847
241.872	0.000000
242.244	0.000000
242.616	0.000000
242.988	0.000000
243.360	0.000000
243.731	0.000000
244.103	0.220157
244.475	0.460235
244.847	0.000000
245.218	0.000000
245.590	0.000000
245.961	0.000000
246.333	0.000000
246.705	0.000000
247.076	0.711054
247.448	0.000000
247.819	0.286661
248.190	0.000000
248.562	1.051730
248.933	0.000000
249.305	0.283389
249.676	0.000000
250.047	0.000000
250.418	0.000000
250.790	0.000000
251.161	0.236304
251.532	0.487914
251.903	0.000000
252.274	0.020748
252.645	0.000000
253.016	0.000000
253.387	-0.495088
253.758	0.000000
254.129	0.440522
254.500	0.008312
254.871	0.174213
255.242	0.000000
255.613	0.640105
255.984	-0.231577
256.355	0.000000
256.725	0.000000
257.096	0.000000
257.467	0.000000
257.838	0.000000
258.208	0.472088
258.579	0.559705
258.949	0.000000
259.320	0.000000
259.690	0.696656
260.061	0.409098
260.431	0.116064
260.802	0.000000
261.172	0.000000
261.543	0.185331
261.913	0.228836
262.283	2.949418
262.654	0.000000
263.024	0.000000
263.394	0.180222
263.764	0.297478
264.135	0.650400
264.505	0.000000
264.875	0.000000
265.245	0.297434
265.615	0.696449
265.985	0.337752
266.355	0.742021
266.725	0.000000
267.095	0.144627
267.465	0.000000
267.835	0.000000
268.205	0.000000
268.575	0.327633
268.944	0.076786
269.314	0.381498
269.684	0.733794
270.054	-0.061084
270.423	0.892974
270.793	0.000000
271.163	0.000000
271.532	0.000000
271.902	0.000000
272.271	1.091692
272.641	0.000000
273.010	0.229223
273.380	0.000000
273.749	0.000000
274.119	0.000000
274.488	0.000000
274.857	0.000000
275.227	0.667680
275.596	0.000000
275.965	0.163913
276.335	0.000000
276.704	1.166125
277.073	0.582143
277.442	0.924792
277.811	0.000000
278.180	-0.591613
278.549	0.469345
278.918	0.377844
279.287	0.219001
279.656	0.000000
280.025	0.000000
280.394	0.848561
280.763	0.106542
281.132	0.000000
281.501	0.144467
281.869	0.000000
282.238	0.670436
282.607	0.328125
282.976	-0.000789
283.344	0.752617
283.713	0.341590
284.081	0.000000
284.450	0.319641
284.819	0.000000
285.187	0.000000
285.556	0.000000
285.924	0.000000
286.292	0.000000
286.661	0.000000
287.029	0.000000
287.398	0.000000
287.766	0.121614
288.134	0.000000
288.502	0.432321
288.871	-0.355138
289.239	0.000000
289.607	0.206123
289.975	0.000000
290.343	0.035004
290.711	-0.065400
291.079	0.000000
291.447	0.659677
291.815	0.000000
292.183	0.310292
292.551	0.452441
292.919	0.846742
293.287	0.000000
293.655	0.000000
294.022	0.000000
294.390	0.000000
294.758	0.000000
295.126	0.000000
295.493	0.000000
295.861	0.000000
296.229	0.040658
296.596	1.147177
296.964	0.000000
297.331	0.239066
297.699	0.000000
298.066	0.000000
298.434	0.000000
298.801	0.319214
299.168	0.000000
299.536	0.477282
299.903	0.263470
300.270	0.332483
300.638	0.000000
301.005	-0.046797
301.372	0.000000
301.739	0.000000
302.106	0.437251
302.473	0.272328
302.840	0.000000
303.207	0.240967
303.574	0.000000
303.941	0.000000
304.308	0.000000
304.675	2.374222
305.042	0.000000
305.409	0.000000
305.776	1.590001
306.143	0.608020
306.509	0.000000
306.876	0.000000
307.243	0.000000
307.610	0.000000
307.976	0.000000
308.343	0.869912
308.709	0.595930
309.076	0.000000
309.442	0.000000
309.809	0.000000
310.175	0.000000
310.542	0.859550
310.908	0.695935
311.275	0.000000
311.641	1.807399
312.007	2.040114
312.373	0.000000
312.740	0.000000
313.106	1.020664
313.472	1.199655
313.838	2.068832
314.204	1.506173
314.570	0.000000
314.936	1.283914
315.302	0.000000
315.668	0.000000
316.034	0.000000
316.400	1.195028
316.766	2.071753
317.132	0.000000
317.498	0.000000
317.864	1.999926
318.230	0.000000
318.595	0.000000
318.961	2.563325
319.327	1.202201
319.692	2.041937
320.058	1.604285
320.424	0.000000
320.789	1.529749
321.155	2.093262
321.520	1.469712
321.886	0.000000
322.251	0.000000
322.616	2.243159
322.982	1.747522
323.347	1.437593
323.712	1.913661
324.078	1.531060
324.443	0.000000
324.808	2.070949
325.173	0.000000
325.539	0.000000
325.904	0.000000
326.269	0.000000
326.634	1.675512
326.999	2.292559
327.364	2.116679
327.729	2.219174
328.094	2.103002
328.459	0.000000
328.823	0.000000
329.188	1.998388
329.553	2.920065
329.918	3.721273
330.283	0.000000
330.647	3.005288
331.012	0.000000
331.377	2.610507
331.741	1.769079
332.106	2.390845
332.470	2.088532
332.835	2.048682
333.199	2.684574
333.564	2.185510
333.928	3.098446
334.293	1.773339
334.657	0.000000
335.021	2.018393
335.386	1.976289
335.750	2.127331
336.114	2.095161
336.478	2.655286
336.843	1.902945
337.207	2.767916
337.571	1.867692
337.935	2.248775
338.299	2.265119
338.663	0.000000
339.027	2.239075
339.391	3.438691
339.755	3.047632
340.119	2.097708
340.483	0.000000
340.846	2.284604
341.210	1.923672
341.574	2.060742
341.938	2.368355
342.301	2.272297
342.665	1.953830
343.029	2.030430
343.392	2.167998
343.756	0.000000
344.119	2.342426
344.483	2.159040
344.846	1.936080
345.210	2.029772
345.573	1.796394
345.937	1.947511
346.300	1.954379
346.663	2.391063
347.027	2.342500
347.390	1.992465
347.753	2.220065
348.116	2.054828
348.479	1.843140
348.843	2.272858
349.206	1.922359
349.569	2.098750
349.932	2.316062
350.295	2.609048
350.658	3.189580
351.021	2.012163
351.383	2.273147
351.746	1.952571
352.109	1.887364
352.472	2.282688
352.835	1.878567
353.197	2.001315
353.560	2.133110
353.923	1.848512
354.285	2.114428
354.648	1.918417
355.011	1.953277
355.373	2.229154
355.736	2.087036
356.098	1.849709
356.461	2.264583
356.823	2.074910
357.185	2.160100
357.548	2.073026
357.910	1.973840
358.272	1.915328
358.635	2.341403
358.997	1.894765
359.359	1.820736
359.721	2.229463
360.083	2.062125
360.445	2.199609
360.807	2.616686
361.169	2.211646
361.531	1.962305
361.893	2.174832
362.255	2.328072
362.617	1.910264
362.979	1.893553
363.341	1.940247
363.703	1.962003
364.064	2.373695
364.426	2.023251
364.788	1.845308
365.149	1.920911
365.511	2.053140
365.873	1.958291
366.234	1.836862
366.596	1.904067
366.957	2.071750
367.319	1.878934
367.680	1.913373
368.042	2.253806
368.403	1.953388
368.764	2.042810
369.126	2.208680
369.487	2.122595
369.848	1.909892
370.209	2.090393
370.570	2.010513
370.931	2.097110
371.293	2.077325
371.654	1.944665
372.015	1.988727
372.376	2.192820
372.737	1.917386
373.098	1.967517
373.458	1.955267
373.819	1.766214
374.180	2.041956
374.541	2.244440
374.902	2.154760
375.263	1.880946
375.623	2.200070
375.984	2.046690
376.345	2.110532
376.705	2.404522
377.066	2.083631
377.426	2.003910
377.787	2.013091
378.147	2.175474
378.508	2.440594
378.868	2.060444
379.228	1.884797
379.589	2.174673
379.949	1.923158
380.309	2.048751
380.670	2.248081
381.030	1.945153
381.390	1.977429
381.750	1.963005
382.110	2.272540
382.470	2.298146
382.830	1.940913
383.190	2.102289
383.550	1.830099
383.910	2.211454
384.270	1.928752
384.630	1.917909
384.990	2.028110
385.350	2.393962
385.709	2.079959
386.069	2.257737
386.429	2.050864
386.788	1.909448
387.148	2.162254
387.508	2.089848
387.867	1.996201
388.227	1.917885
388.586	2.244795
388.946	2.192010
389.305	1.944074
389.665	1.844734
390.024	1.962411
390.383	2.081064
390.743	2.061501
391.102	2.731091
391.461	2.422621
391.820	2.299723
392.179	2.052492
392.539	2.179598
392.898	1.997822
393.257	1.972929
393.616	2.019296
393.975	2.200153
394.334	1.953597
394.693	1.997097
395.051	2.253151
395.410	2.143516
395.769	1.999745
396.128	2.208852
396.487	2.233414
396.845	2.323262
397.204	2.244596
397.563	2.259485
397.921	2.055880
398.280	2.370302
398.638	2.007688
398.997	2.115816
399.355	2.097887
399.714	2.080089
400.072	1.970113
400.431	2.093168
400.789	2.097279
401.147	2.117991
401.506	2.064643
401.864	1.926765
402.222	1.968838
402.580	1.949783
402.938	1.884435
403.297	2.048284
403.655	2.016322
404.013	2.454984
404.371	2.172260
404.729	1.903994
405.087	2.027052
405.444	2.216664
405.802	2.255108
406.160	2.096147
406.518	2.186840
406.876	2.077141
407.233	1.953140
407.591	2.264247
407.949	2.061388
408.306	2.164728
408.664	2.191837
409.022	2.156363
409.379	2.055174
409.737	2.121570
410.094	2.246076
410.451	2.021800
410.809	2.175507
411.166	2.016362
411.523	2.006862
411.881	1.807457
412.238	2.239245
412.595	2.030103
412.952	2.077957
413.310	2.054061
413.667	1.998128
414.024	2.074230
414.381	2.619813
414.738	1.996612
415.095	1.950230
415.452	2.028679
415.809	1.988340
416.165	2.142030
416.522	2.042438
416.879	2.004168
417.236	2.219797
417.593	2.046808
417.949	2.281862
418.306	2.129911
418.663	2.156690
419.019	2.062292
419.376	2.022749
419.732	1.906874
420.089	1.993008
420.445	2.102552
420.802	2.033861
421.158	2.173811
421.514	1.943230
421.871	1.916494
422.227	2.016167
422.583	2.291051
422.939	2.159801
423.295	1.945668
423.652	2.047888
424.008	1.956556
424.364	2.302224
424.720	1.824609
425.076	1.848120
425.432	2.021400
425.788	1.949072
426.143	2.174784
426.499	1.930844
426.855	2.075794
427.211	2.027528
427.567	2.003488
427.922	2.032550
428.278	1.920453
428.634	2.068426
428.989	1.936601
429.345	1.981928
429.700	1.865993
430.056	2.140459
430.411	1.779434
430.767	2.127144
431.122	1.990391
431.478	2.094878
431.833	2.086592
432.188	1.965657
432.543	2.031150
432.899	1.813026
433.254	1.975232
433.609	1.896006
433.964	1.940662
434.319	1.995950
434.674	1.952334
435.029	1.938296
435.384	1.952140
435.739	1.867550
436.094	2.253872
436.449	1.911189
436.804	1.999373
437.158	1.734126
437.513	2.061034
437.868	1.887550
438.223	1.943769
438.577	1.742741
438.932	1.844046
439.287	1.895096
439.641	1.948607
439.996	1.839184
440.350	1.931485
440.704	1.910847
441.059	1.901571
441.413	1.861897
441.768	1.872633
442.122	1.826868
442.476	1.794914
442.830	1.764995
443.185	1.806564
443.539	1.799831
443.893	1.807592
444.247	1.805821
444.601	1.837715
444.955	1.839492
445.309	1.852408
445.663	1.885534
446.017	1.841172
446.371	1.963263
446.724	1.868878
447.078	1.674067
447.432	1.878972
447.786	1.896141
448.139	1.805528
448.493	1.755351
448.847	1.752733
449.200	1.721069
449.554	1.780012
449.907	1.783056
450.261	1.722360
450.614	1.750572
450.968	1.663249
451.321	1.765533
451.674	1.696339
452.027	1.790591
452.381	1.654646
452.734	1.734968
453.087	1.667539
453.440	1.699222
453.793	1.632038
454.146	1.692125
454.499	1.749826
454.852	1.759527
455.205	1.774035
455.558	1.653500
455.911	1.813334
456.264	1.659491
456.617	1.675953
456.970	1.709538
457.322	1.658748
457.675	1.659096
458.028	1.634857
458.380	1.695089
458.733	1.702957
459.086	1.618133
459.438	1.658214
459.791	1.611542
460.143	1.631452
460.496	1.685788
460.848	1.623064
461.200	1.657802
461.553	1.555780
461.905	1.575189
462.257	1.682971
462.609	1.581589
462.961	1.573142
463.314	1.599797
463.666	1.643316
464.018	1.589313
464.370	1.576367
464.722	1.549585
465.074	1.586847
465.426	1.542099
465.777	1.571660
466.129	1.567162
466.481	1.538259
466.833	1.544510
467.184	1.565403
467.536	1.586123
467.888	1.475577
468.239	1.554278
468.591	1.556432
468.943	1.519513
469.294	1.502002
469.646	1.561813
469.997	1.510456
470.348	1.540501
470.700	1.472479
471.051	1.478582
471.402	1.507766
471.754	1.443721
472.105	1.464465
472.456	1.491658
472.807	1.457715
473.158	1.481042
473.509	1.456803
473.860	1.469465
474.211	1.469050
474.562	1.398728
474.913	1.416286
475.264	1.481780
475.615	1.430991
475.966	1.453887
476.316	1.461379
476.667	1.420535
477.018	1.416737
477.368	1.450314
477.719	1.408369
478.070	1.474509
478.420	1.422026
478.771	1.389034
479.121	1.407937
479.472	1.387150
479.822	1.374431
480.172	1.423679
480.523	1.399256
480.873	1.367406
481.223	1.357510
481.573	1.395363
481.924	1.407019
482.274	1.358139
482.624	1.394129
482.974	1.390189
483.324	1.388697
483.674	1.340142
484.024	1.380086
484.374	1.366127
484.724	1.366075
485.073	1.361590
485.423	1.375171
485.773	1.354759
486.123	1.358061
486.472	1.359086
486.822	1.331679
487.172	1.322954
487.521	1.311448
487.871	1.311089
488.220	1.325129
488.570	1.352285
488.919	1.342534
489.268	1.346307
489.618	1.347595
489.967	1.343573
490.316	1.329222
490.666	1.300486
491.015	1.307207
491.364	1.298862
491.713	1.311106
492.062	1.288751
492.411	1.312822
492.760	1.263081
493.109	1.294081
493.458	1.288624
493.807	1.306200
494.156	1.273792
494.505	1.287785
494.853	1.280161
495.202	1.276492
495.551	1.270266
495.900	1.235989
496.248	1.261482
496.597	1.245073
496.945	1.256049
497.294	1.249883
497.642	1.250178
497.991	1.263462
498.339	1.248276
498.688	1.238237
499.036	1.236297
499.384	1.247541
499.732	1.241268
500.081	1.235353
500.429	1.233333
500.777	1.224112
501.125	1.206768
501.473	1.210867
501.821	1.208055
502.169	1.200072
502.517	1.212211
502.865	1.189468
503.213	1.183005
503.561	1.190921
503.908	1.197577
504.256	1.173285
504.604	1.170316
504.952	1.194061
505.299	1.180608
505.647	1.162239
505.994	1.150924
506.342	1.178019
506.689	1.147975
507.037	1.163828
507.384	1.168367
507.732	1.148498
508.079	1.163983
508.426	1.157216
508.774	1.156330
509.121	1.138741
509.468	1.153646
509.815	1.130832
510.162	1.147790
510.509	1.116239
510.856	1.137979
511.203	1.136935
511.550	1.135338
511.897	1.143657
512.244	1.140249
512.591	1.127788
512.938	1.140601
513.284	1.137594
513.631	1.123414
513.978	1.093227
514.324	1.131073
514.671	1.120622
515.018	1.096454
515.364	1.112462
515.711	1.108177
516.057	1.089173
516.403	1.088698
516.750	1.080126
517.096	1.094121
517.443	1.084202
517.789	1.097638
518.135	1.074819
518.481	1.069222
518.827	1.082147
519.173	1.093893
519.519	1.071070
519.865	1.105642
520.211	1.084945
520.557	1.066262
520.903	1.046994
521.249	1.070285
521.595	1.064512
521.941	1.086376
522.287	1.064961
522.632	1.063468
522.978	1.022472
523.324	1.042376
523.669	1.061243
524.015	1.041134
524.360	1.044964
524.706	1.024033
525.051	1.041102
525.397	1.041819
525.742	1.044231
526.087	1.039587
526.433	1.005174
526.778	1.047304
527.123	1.029926
527.468	1.022427
527.813	1.044001
528.158	1.009858
528.504	1.017148
528.849	1.014081
529.193	1.004123
529.538	1.013270
529.883	1.020969
530.228	0.988256
530.573	1.002829
530.918	1.002925
531.263	0.997108
531.607	1.003292
531.952	0.999281
532.296	0.987369
532.641	0.986014
532.986	0.991779
533.330	0.996101
533.675	0.973569
534.019	0.975490
534.363	0.971733
534.708	0.976033
535.052	0.972858
535.396	0.972683
535.741	0.969986
536.085	0.959375
536.429	0.953754
536.773	0.937837
537.117	0.942652
537.461	0.946858
537.805	0.950907
538.149	0.934483
538.493	0.937096
538.837	0.918909
539.181	0.924959
539.524	0.931781
539.868	0.940362
540.212	0.933568
540.556	0.942048
540.899	0.925743
541.243	0.916965
541.586	0.922831
541.930	0.904029
542.273	0.886887
542.617	0.902162
542.960	0.892220
543.304	0.899921
543.647	0.888179
543.990	0.892203
544.333	0.883980
544.677	0.861301
545.020	0.884516
545.363	0.877023
545.706	0.884672
546.049	0.870254
546.392	0.850722
546.735	0.862652
547.078	0.852429
547.421	0.854864
547.764	0.858613
548.106	0.849972
548.449	0.859061
548.792	0.842974
549.135	0.835892
549.477	0.837097
549.820	0.832006
550.162	0.821617
550.505	0.820136
550.847	0.822679
551.190	0.812566
551.532	0.798753
551.875	0.803592
552.217	0.797811
552.559	0.786744
552.901	0.786584
553.244	0.780499
553.586	0.769105
553.928	0.770812
554.270	0.764418
554.612	0.770544
554.954	0.756043
555.296	0.758983
555.638	0.746033
555.980	0.744301
556.322	0.740074
556.663	0.732724
557.005	0.735638
557.347	0.731941
557.689	0.727379
558.030	0.729930
558.372	0.714918
558.713	0.711175
559.055	0.706097
559.396	0.698007
559.738	0.692606
560.079	0.681572
560.421	0.688106
560.762	0.680172
561.103	0.678149
561.444	0.674414
561.786	0.665624
562.127	0.658609
562.468	0.658605
562.809	0.655924
563.150	0.642180
563.491	0.641507
563.832	0.635964
564.173	0.629360
564.514	0.623887
564.855	0.622252
565.195	0.610290
565.536	0.614850
565.877	0.608386
566.218	0.602357
566.558	0.595330
566.899	0.589860
567.239	0.589325
567.580	0.583357
567.920	0.575273
568.261	0.576803
568.601	0.569139
568.941	0.559603
569.282	0.563319
569.622	0.556257
569.962	0.558232
570.302	0.547359
570.643	0.548366
570.983	0.545132
571.323	0.538069
571.663	0.540295
572.003	0.530030
572.343	0.528289
572.683	0.527266
573.022	0.519220
573.362	0.513921
573.702	0.512784
574.042	0.506009
574.381	0.504723
574.721	0.504064
575.061	0.499154
575.400	0.498227
575.740	0.494069
576.079	0.487261
576.419	0.472906
576.758	0.450284
577.097	0.433851
577.437	0.426629
577.776	0.419465
578.115	0.423307
578.454	0.427238
578.794	0.440074
579.133	0.448139
579.472	0.440802
579.811	0.413016
580.150	0.382345
580.489	0.352567
580.828	0.332227
581.167	0.318259
581.505	0.311061
581.844	0.326384
582.183	0.352678
582.522	0.390826
582.860	0.425719
583.199	0.428227
583.538	0.428246
583.876	0.423954
584.215	0.422033
584.553	0.418669
584.891	0.412500
585.230	0.413470
585.568	0.411732
585.906	0.407797
586.245	0.409919
586.583	0.405659
586.921	0.403800
587.259	0.405286
587.597	0.399496
587.935	0.400109
588.273	0.397702
588.611	0.399966
588.949	0.400386
589.287	0.392838
589.625	0.396847
589.963	0.391815
590.300	0.390874
590.638	0.391260
590.976	0.389207
591.313	0.388053
591.651	0.383227
591.989	0.382372
592.326	0.378406
592.664	0.375458
593.001	0.376719
593.338	0.377010
593.676	0.379339
594.013	0.371313
594.350	0.371891
594.687	0.370222
595.025	0.365369
595.362	0.367036
595.699	0.365466
596.036	0.363869
596.373	0.357271
596.710	0.365651
597.047	0.362549
597.384	0.361960
597.720	0.355847
598.057	0.357344
598.394	0.354121
598.731	0.353573
599.067	0.352351
599.404	0.352972
599.741	0.353886
600.077	0.347383
600.414	0.348975
600.750	0.349229
601.087	0.347740
601.423	0.347866
601.759	0.341538
602.096	0.339396
602.432	0.339753
602.768	0.336394
603.104	0.335805
603.440	0.336303
603.776	0.342582
604.112	0.335081
604.448	0.335447
604.784	0.329090
605.120	0.333606
605.456	0.328452
605.792	0.337154
606.128	0.333804
606.463	0.331792
606.799	0.326204
607.135	0.330917
607.470	0.329320
607.806	0.328209
608.142	0.320989
608.477	0.324242
608.812	0.323421
609.148	0.323803
609.483	0.320159
609.819	0.318947
610.154	0.316548
610.489	0.316120
610.824	0.315360
611.159	0.314179
611.494	0.313137
611.830	0.312192
612.165	0.312833
612.500	0.309463
612.834	0.309671
613.169	0.311334
613.504	0.310876
613.839	0.312143
614.174	0.308227
614.509	0.311894
614.843	0.308647
615.178	0.304562
615.512	0.301734
615.847	0.301975
616.182	0.302916
616.516	0.302681
616.850	0.298822
617.185	0.294319
617.519	0.295308
617.853	0.294411
618.188	0.299798
618.522	0.294207
618.856	0.292708
619.190	0.291152
619.524	0.296286
619.858	0.296930
620.192	0.296641
620.526	0.295390
620.860	0.289402
621.194	0.292782
621.528	0.290913
621.862	0.293451
622.195	0.294489
622.529	0.286219
622.863	0.289078
623.196	0.289623
623.530	0.292965
623.864	0.286991
624.197	0.280358
624.530	0.286418
624.864	0.283232
625.197	0.285864
625.531	0.280462
625.864	0.276982
626.197	0.279061
626.530	0.279770
626.863	0.285354
627.196	0.278439
627.529	0.276342
627.862	0.281304
628.195	0.278559
628.528	0.279396
628.861	0.272775
629.194	0.278074
629.527	0.268935
629.860	0.281815
630.192	0.277875
630.525	0.278240
630.858	0.274866
631.190	0.268421
631.523	0.263500
631.855	0.265847
632.188	0.256551
632.520	0.267663
632.852	0.257628
633.185	0.264744
633.517	0.268894
633.849	0.261096
634.182	0.259990
634.514	0.257504
634.846	0.252044
635.178	0.264666
635.510	0.266684
635.842	0.265551
636.174	0.271075
636.506	0.255656
636.837	0.267475
637.169	0.257343
637.501	0.255443
637.833	0.260855
638.164	0.258080
638.496	0.262714
638.828	0.260513
639.159	0.248610
639.491	0.258747
639.822	0.258481
640.154	0.254769
640.485	0.251438
640.816	0.254578
641.147	0.251368
641.479	0.251939
641.810	0.253582
642.141	0.243124
642.472	0.246099
642.803	0.247380
643.134	0.247295
643.465	0.247649
643.796	0.249252
644.127	0.259211
644.458	0.250937
644.789	0.234939
645.119	0.236264
645.450	0.248323
645.781	0.257271
646.111	0.249115
646.442	0.247232
646.773	0.232260
647.103	0.241510
647.433	0.250175
647.764	0.246146
648.094	0.241874
648.425	0.237894
648.755	0.246106
649.085	0.254416
649.415	0.236607
649.745	0.243598
650.075	0.236559
650.405	0.239603
650.735	0.254661
651.065	0.242459
651.395	0.243381
651.725	0.242275
652.055	0.238269
652.385	0.228539
652.715	0.247860
653.044	0.237459
653.374	0.243967
653.704	0.239363
654.033	0.247091
654.363	0.207712
654.692	-0.000000
655.022	-0.000000
655.351	-0.000000
655.680	-0.000000
656.010	-0.000000
656.339	-0.000000
656.668	-0.000000
656.997	-0.000000
657.326	0.010162
657.655	0.180749
657.984	0.221112
658.313	0.228275
658.642	0.227087
658.971	0.223509
659.300	0.218578
659.629	0.223035
659.958	0.218226
660.286	0.224496
660.615	0.228029
660.944	0.212538
661.272	0.214603
661.601	0.242059
661.929	0.221986
662.258	0.213764
662.586	0.215385
662.915	0.230997
663.243	0.219829
663.571	0.229507
663.899	0.214567
664.228	0.232808
664.556	0.217156
664.884	0.225211
665.212	0.234082
665.540	0.231255
665.868	0.207052
666.196	0.220761
666.524	0.225700
666.852	0.222882
667.179	0.221421
667.507	0.228248
667.835	0.224604
668.162	0.227459
668.490	0.216999
668.818	0.228105
669.145	0.220683
669.473	0.229420
669.800	0.221453
670.127	0.226275
670.455	0.235559
670.782	0.220157
671.109	0.220071
671.436	0.229050
671.764	0.224178
672.091	0.227043
672.418	0.216787
672.745	0.222968
673.072	0.210602
673.399	0.214741
673.726	0.216853
674.053	0.225182
674.379	0.226571
674.706	0.214603
675.033	0.217156
675.359	0.220367
675.686	0.202711
676.013	0.231117
676.339	0.217038
676.666	0.218239
676.992	0.207830
677.318	0.202630
677.645	0.220618
677.971	0.203671
678.297	0.216419
678.624	0.207980
678.950	0.217834
679.276	0.209964
679.602	0.227317
679.928	0.205114
680.254	0.219460
680.580	0.207209
680.906	0.204139
681.232	0.216060
681.558	0.200958
681.883	0.202578
682.209	0.209327
682.535	0.204655
682.860	0.193723
683.186	0.196472
683.511	0.212763
683.837	0.206569
684.162	0.217325
684.488	0.209742
684.813	0.213208
685.138	0.212183
685.464	0.205298
685.789	0.215383
686.114	0.214121
686.439	0.218833
686.764	0.204002
687.089	0.210454
687.414	0.213316
687.739	0.203923
688.064	0.209082
688.389	0.209129
688.714	0.208635
689.039	0.198303
689.363	0.209699
689.688	0.201526
690.013	0.195550
690.337	0.211570
690.662	0.208259
690.986	0.205509
691.311	0.195213
691.635	0.189617
691.959	0.208512
692.284	0.203630
692.608	0.194457
692.932	0.202439
693.256	0.201955
693.580	0.208540
693.904	0.200220
694.228	0.183349
694.552	0.189483
694.876	0.210707
695.200	0.194167
695.524	0.193264
695.848	0.207462
696.172	0.206405
696.495	0.202140
696.819	0.208515
697.143	0.199005
697.466	0.200176
697.790	0.192763
698.113	0.192044
698.437	0.184964
698.760	0.193515
699.083	0.194255
699.407	0.185546
699.730	0.182937
700.053	0.187341
700.376	0.179326
700.699	0.188927
701.022	0.187048
701.345	0.187558
701.668	0.186948
701.991	0.196849
702.314	0.200609
702.637	0.195620
702.960	0.190582
703.283	0.190208
703.605	0.190393
703.928	0.182113
704.251	0.190518
704.573	0.192282
704.896	0.206795
705.218	0.181999
705.540	0.193139
705.863	0.201853
706.185	0.201723
706.507	0.190763
706.830	0.193338
707.152	0.189693
707.474	0.185546
707.796	0.194392
708.118	0.197661
708.440	0.193593
708.762	0.180400
709.084	0.200458
709.406	0.179896
709.728	0.186502
710.049	0.188512
710.371	0.183720
710.693	0.185407
711.014	0.179300
711.336	0.190677
711.658	0.190860
711.979	0.203908
712.301	0.182257
712.622	0.189175
712.943	0.185142
713.265	0.187283
713.586	0.169486
713.907	0.179333
714.228	0.195842
714.549	0.183534
714.870	0.179702
715.191	0.181667
715.512	0.200983
715.833	0.185895
716.154	0.179130
716.475	0.191960
716.796	0.192741
717.117	0.184153
717.437	0.185821
717.758	0.182206
718.078	0.183463
718.399	0.188498
718.719	0.185133
719.040	0.178981
719.360	0.187210
719.681	0.186150
720.001	0.188794
720.321	0.185260
720.642	0.182965
720.962	0.165696
721.282	0.171563
721.602	0.191649
721.922	0.159844
722.242	0.176700
722.562	0.180055
722.882	0.172452
723.202	0.172598
723.521	0.176904
723.841	0.183311
724.161	0.177177
724.481	0.165696
724.800	0.176536
725.120	0.174663
725.439	0.167603
725.759	0.170886
726.078	0.170614
726.398	0.177618
726.717	0.178235
727.036	0.172126
727.355	0.183304
727.675	0.182344
727.994	0.174203
728.313	0.180865
728.632	0.180084
728.951	0.170415
729.270	0.174027
729.589	0.167099
729.908	0.172600
730.226	0.171489
730.545	0.181242
730.864	0.171560
731.182	0.175407
731.501	0.177760
731.820	0.156488
732.138	0.174754
732.457	0.173023
732.775	0.173028
733.093	0.159140
733.412	0.164173
733.730	0.165966
734.048	0.158817
734.367	0.165654
734.685	0.170033
735.003	0.156576
735.321	0.169762
735.639	0.167492
735.957	0.179831
736.275	0.159317
736.593	0.152322
736.910	0.162893
737.228	0.162382
737.546	0.154552
737.863	0.171875
738.181	0.165024
738.499	0.155862
738.816	0.158618
739.134	0.154483
739.451	0.169081
739.768	0.160789
740.086	0.161037
740.403	0.169512
740.720	0.154665
741.038	0.153237
741.355	0.152051
741.672	0.160618
741.989	0.156296
742.306	0.149697
742.623	0.170125
742.940	0.156323
743.257	0.163742
743.573	0.167047
743.890	0.142263
744.207	0.146977
744.523	0.149592
744.840	0.138879
745.157	0.154168
745.473	0.150043
745.790	0.144088
746.106	0.151053
746.422	0.167774
746.739	0.154610
747.055	0.162055
747.371	0.155663
747.687	0.148129
748.004	0.160656
748.320	0.131325
748.636	0.145833
748.952	0.139045
749.268	0.147116
749.584	0.153201
749.899	0.151662
750.215	0.140989
750.531	0.148613
750.847	0.144660
751.162	0.161616
751.478	0.149053
751.793	0.153567
752.109	0.161816
752.424	0.159762
752.740	0.159890
753.055	0.157073
753.370	0.148721
753.686	0.153411
754.001	0.142400
754.316	0.142368
754.631	0.155206
754.946	0.143788
755.261	0.152444
755.576	0.148054
755.891	0.158505
756.206	0.159218
756.521	0.143415
756.836	0.145385
757.150	0.157113
757.465	0.155411
757.780	0.149819
758.094	0.151605
758.409	0.160247
758.723	0.148047
759.038	0.151939
759.352	0.146791
759.667	0.153934
759.981	0.142332
760.295	0.150122
760.609	0.147586
760.923	0.155160
761.238	0.154266
761.552	0.149397
761.866	0.160159
762.180	0.155288
762.493	0.151030
762.807	0.142231
763.121	0.148131
763.435	0.144923
763.749	0.155662
764.062	0.145491
764.376	0.152634
764.689	0.144505
765.003	0.138617
765.316	0.150096
765.630	0.149610
765.943	0.139691
766.257	0.140583
766.570	0.143697
766.883	0.141750
767.196	0.151471
767.509	0.142702
767.822	0.147241
768.135	0.147677
768.448	0.139870
768.761	0.139293
769.074	0.144804
769.387	0.138334
769.700	0.153748
770.013	0.130224
770.325	0.131153
770.638	0.145944
770.950	0.134919
771.263	0.133400
771.575	0.138963
771.888	0.132479
772.200	0.131087
772.513	0.135462
772.825	0.132928
773.137	0.135479
773.449	0.128418
773.761	0.133562
774.074	0.144796
774.386	0.128774
774.698	0.119289
775.010	0.118767
775.321	0.151468
775.633	0.108711
775.945	0.141761
776.257	0.128663
776.568	0.144886
776.880	0.150227
777.192	0.140639
777.503	0.126568
777.815	0.139728
778.126	0.127123
778.438	0.122728
778.749	0.132897
779.060	0.115372
779.372	0.129752
779.683	0.136123
779.994	0.134991
780.305	0.138018
780.616	0.140010
780.927	0.125594
781.238	0.134021
781.549	0.133050
781.860	0.135170
782.171	0.142588
782.481	0.138671
782.792	0.141988
783.103	0.143680
783.413	0.128760
783.724	0.116479
784.034	0.131587
784.345	0.150593
784.655	0.148843
784.966	0.136204
785.276	0.131903
785.586	0.132332
785.896	0.121153
786.207	0.129297
786.517	0.128978
786.827	0.120467
787.137	0.138524
787.447	0.128065
787.757	0.128089
788.066	0.134946
788.376	0.143076
788.686	0.151444
788.996	0.142548
789.305	0.136473
789.615	0.148360
789.925	0.133454
790.234	0.123737
790.544	0.142455
790.853	0.121774
791.162	0.147238
791.472	0.142320
791.781	0.138255
792.090	0.120411
792.399	0.136087
792.708	0.143521
793.017	0.148011
793.326	0.134475
793.635	0.123794
793.944	0.129013
794.253	0.129999
794.562	0.145632
794.871	0.137642
795.179	0.149735
795.488	0.142251
795.797	0.140240
796.105	0.136714
796.414	0.134764
796.722	0.136175
797.031	0.132244
797.339	0.115410
797.647	0.123602
797.956	0.134373
798.264	0.147020
798.572	0.138176
798.880	0.110137
799.188	0.147022
799.496	0.144574
799.804	0.116379
800.112	0.124458
800.420	0.113031
800.728	0.117914
801.035	0.138818
801.343	0.139322
801.651	0.110460
801.958	0.129717
802.266	0.126727
802.573	0.122724
802.881	0.150409
803.188	0.115288
803.496	0.118245
803.803	0.087327
804.110	0.153294
804.417	0.108006
804.724	0.125337
805.032	0.120702
805.339	0.136271
805.646	0.144030
805.953	0.138096
806.259	0.126575
806.566	0.125341
806.873	0.134168
807.180	0.138932
807.486	0.123966
807.793	0.139618
808.100	0.125983
808.406	0.111238
808.713	0.087091
809.019	0.134421
809.326	0.114839
809.632	0.114941
809.938	0.136423
810.244	0.114481
810.551	0.096597
810.857	0.136900
811.163	0.154988
811.469	0.135278
811.775	0.085616
812.081	0.136025
812.387	0.117006
812.692	0.099668
812.998	0.131589
813.304	0.108565
813.610	0.113638
813.915	0.098780
814.221	0.138978
814.526	0.123258
814.832	0.139112
815.137	0.109323
815.443	0.132795
815.748	0.151540
816.053	0.132356
816.358	0.116238
816.664	0.105085
816.969	0.103615
817.274	0.126906
817.579	0.133082
817.884	0.141370
818.189	0.144792
818.493	0.087039
818.798	0.114066
819.103	0.133123
819.408	0.096938
819.712	0.140675
820.017	0.139070
820.321	0.141363
820.626	0.135878
820.930	0.119064
821.235	0.152990
821.539	0.096855
821.843	0.128189
822.148	0.079535
822.452	0.138423
822.756	0.131681
823.060	0.093302
823.364	0.133433
823.668	0.099042
823.972	0.148278
824.276	0.132403
824.580	0.141858
824.883	0.142146
825.187	0.153989
825.491	0.108437
825.795	0.127846
826.098	0.134877
826.402	0.108842
826.705	0.145027
827.008	0.128745
827.312	0.140197
827.615	0.089577
827.918	0.138207
828.222	0.119420
828.525	0.138652
828.828	0.094461
829.131	0.143578
829.434	0.141747
829.737	0.113889
830.040	0.095986
830.343	0.134431
830.645	0.161118
830.948	0.142420
831.251	0.131396
831.553	0.177917
831.856	0.091186
832.159	0.138789
832.461	0.130133
832.764	0.159203
833.066	0.118798
833.368	0.146152
833.671	0.166360
833.973	0.130995
834.275	0.095097
834.577	0.090691
834.879	0.106684
835.181	0.117862
835.483	0.098285
835.785	0.095590
836.087	0.130401
836.389	0.141593
836.690	0.165115
836.992	0.076379
837.294	0.090787
837.595	0.135493
837.897	0.105096
838.198	0.180172
838.500	0.108764
838.801	0.157363
839.103	0.152585
839.404	0.113388
839.705	0.169421
840.006	0.097956
840.307	0.104415
840.608	0.047857
840.910	0.102254
841.210	0.074457
841.511	0.226245
841.812	0.084215
842.113	0.208521
842.414	0.113058
842.715	0.106377
843.015	0.209859
843.316	0.008170
843.616	0.110260
843.917	0.201099
844.217	0.160555
844.518	0.265711
844.818	0.111080
845.118	0.102611
845.419	0.117064
845.719	0.054245
846.019	0.130121
846.319	0.193930
846.619	0.239843
846.919	0.110799
847.219	0.122483
847.519	0.149918
847.819	0.133778
848.118	0.158262
848.418	0.238104
848.718	0.193683
849.017	0.094740
849.317	0.082376
849.616	0.112244
849.916	0.097832
850.215	0.113175
850.515	0.182789
850.814	0.133551
851.113	0.117140
851.412	0.094170
851.712	0.091648
852.011	0.141590
852.310	0.117036
852.609	0.106286
852.908	0.122233
853.206	0.054718
853.505	0.094354
853.804	0.151407
854.103	0.134067
854.401	0.117217
854.700	0.122068
854.999	0.134122
855.297	0.136405
855.595	0.112346
855.894	0.138371
856.192	0.132438
856.491	0.147176
856.789	0.096633
857.087	0.118682
857.385	0.141158
857.683	0.187393
857.981	0.131760
858.279	0.096884
858.577	0.142714
858.875	0.077671
859.173	0.150037
859.471	0.201459
859.768	0.146036
860.066	0.123143
860.363	0.074462
860.661	0.099712
860.959	0.183309
861.256	0.185773
861.553	0.212772
861.851	0.188369
862.148	0.184094
862.445	0.075279
862.742	0.190501
863.039	0.115101
863.337	0.127232
863.634	0.057114
863.931	0.127848
864.227	0.135874
864.524	0.144246
864.821	0.016672
865.118	0.225193
865.415	0.135499
865.711	0.100352
866.008	0.090713
866.304	0.067179
866.601	0.159682
866.897	0.058954
867.194	0.145013
867.490	0.130794
867.786	0.096971
868.082	-0.050852
868.379	0.053178
868.675	0.024442
868.971	0.050143
869.267	0.129340
869.563	0.142719
869.859	0.177133
870.154	0.146195
870.450	0.142055
870.746	0.149035
871.042	0.181854
871.337	0.218977
871.633	0.035248
871.928	0.172828
872.224	0.085104
872.519	0.111011
872.815	0.078581
873.110	0.085600
873.405	0.006604
873.700	0.043776
873.995	0.130832
874.291	0.045132
874.586	0.188678
874.881	0.111998
875.175	0.025153
875.470	0.133739
875.765	0.185254
876.060	0.128911
876.355	0.126866
876.649	0.050072
876.944	0.063209
877.238	0.072242
877.533	0.126020
877.827	0.085125
878.122	0.043832
878.416	0.051437
878.710	0.066020
879.005	0.143862
879.299	0.161947
879.593	0.105566
879.887	0.142518
880.181	0.073441
880.475	0.059213
880.769	0.157097
881.063	0.237148
881.356	0.074291
881.650	0.042009
881.944	0.218878
882.238	0.039128
882.531	0.269226
882.825	0.072784
883.118	0.171890
883.412	0.135958
883.705	0.111102
883.998	0.029936
884.291	0.027028
884.585	0.093686
884.878	0.159414
>>>>>>>>>> END of Data <<<<<<<<<<
