Date	2021年06月15日火曜日 05時07分30秒
Spectrometers	USB2+H05879
ダーク	使用
リファレンス	使用
積分時間[msec]	10
平均回数	280
ｽﾑｰｼﾞﾝｸﾞ	10
Electrical Dark	USE
ピクセル数	2048
計測モード	吸光度
保存開始波長[nm]	190.664
保存終了波長[nm]	884.878
保存ﾋﾟｯﾁ波長[nm]	全波長

>>>>>>>>>> Data Start <<<<<<<<<<<<
190.664	0.000000
191.040	0.000000
191.415	0.000000
191.791	-2.325187
192.166	-0.411563
192.542	-0.796314
192.917	0.000000
193.293	-0.389057
193.668	0.412451
194.044	-1.184603
194.419	0.000000
194.794	-1.334203
195.170	-1.247719
195.545	-1.172434
195.920	-1.046752
196.296	-0.934846
196.671	-0.771704
197.046	-0.623178
197.421	-0.572973
197.796	-0.574354
198.171	-0.535946
198.546	-0.489757
198.922	-0.436698
199.297	-0.411398
199.672	-0.388758
200.047	-0.370683
200.422	-0.338334
200.796	-0.326229
201.171	-0.299095
201.546	-0.294974
201.921	-0.286579
202.296	-0.279066
202.671	-0.258084
203.045	-0.235218
203.420	-0.211548
203.795	-0.193030
204.170	-0.181935
204.544	-0.184501
204.919	-0.182198
205.294	-0.174326
205.668	-0.158372
206.043	-0.141028
206.417	-0.142042
206.792	-0.133844
207.166	-0.128511
207.541	-0.117018
207.915	-0.120727
208.289	-0.114947
208.664	-0.104100
209.038	-0.108285
209.412	-0.096382
209.787	-0.085486
210.161	-0.072150
210.535	-0.070850
210.909	-0.064979
211.284	-0.071495
211.658	-0.079361
212.032	-0.084839
212.406	-0.090033
212.780	-0.094115
213.154	-0.095771
213.528	-0.097224
213.902	-0.091851
214.276	-0.084206
214.650	-0.087792
215.024	-0.086159
215.398	-0.088040
215.772	-0.075661
216.145	-0.074234
216.519	-0.068462
216.893	-0.063162
217.267	-0.068609
217.640	-0.065218
218.014	-0.056836
218.388	-0.052532
218.761	-0.059726
219.135	-0.040225
219.508	-0.043913
219.882	-0.046605
220.256	-0.035637
220.629	-0.023770
221.003	-0.026820
221.376	-0.024513
221.749	-0.035513
222.123	-0.039545
222.496	-0.037337
222.869	-0.040538
223.243	-0.037159
223.616	-0.039665
223.989	-0.049410
224.362	-0.052946
224.736	-0.055246
225.109	-0.052057
225.482	-0.054510
225.855	-0.056750
226.228	-0.052456
226.601	-0.052056
226.974	-0.058894
227.347	-0.049716
227.720	-0.045522
228.093	-0.048977
228.466	-0.053555
228.839	-0.050416
229.212	-0.054687
229.585	-0.065638
229.957	-0.063005
230.330	-0.065758
230.703	-0.055538
231.076	-0.059364
231.448	-0.054854
231.821	-0.046548
232.194	-0.043192
232.566	-0.050201
232.939	-0.046076
233.311	-0.047334
233.684	-0.049978
234.056	-0.060198
234.429	-0.056035
234.801	-0.052344
235.174	-0.043801
235.546	-0.052358
235.918	-0.051941
236.291	-0.048746
236.663	-0.041527
237.035	-0.038953
237.408	-0.020562
237.780	-0.011606
238.152	-0.005959
238.524	-0.013867
238.896	-0.007782
239.268	-0.006136
239.641	-0.009832
240.013	-0.004876
240.385	0.002318
240.757	-0.006198
241.129	-0.002575
241.500	-0.007656
241.872	-0.006195
242.244	-0.004510
242.616	-0.007860
242.988	-0.006160
243.360	0.011163
243.731	0.017896
244.103	0.011511
244.475	0.008660
244.847	0.010518
245.218	0.007829
245.590	0.009664
245.961	0.008605
246.333	0.015146
246.705	0.015095
247.076	0.013742
247.448	0.016834
247.819	0.012810
248.190	0.025243
248.562	0.025368
248.933	0.024201
249.305	0.035713
249.676	0.042575
250.047	0.035196
250.418	0.041910
250.790	0.036035
251.161	0.035416
251.532	0.034819
251.903	0.037780
252.274	0.046471
252.645	0.053214
253.016	0.056039
253.387	0.047445
253.758	0.046519
254.129	0.040201
254.500	0.043039
254.871	0.048772
255.242	0.041765
255.613	0.040652
255.984	0.034619
256.355	0.039144
256.725	0.044109
257.096	0.043236
257.467	0.045574
257.838	0.057310
258.208	0.043662
258.579	0.045083
258.949	0.041631
259.320	0.043107
259.690	0.047900
260.061	0.042312
260.431	0.039179
260.802	0.043090
261.172	0.046937
261.543	0.047005
261.913	0.055299
262.283	0.049274
262.654	0.046932
263.024	0.053430
263.394	0.056824
263.764	0.059049
264.135	0.058748
264.505	0.060330
264.875	0.059049
265.245	0.061106
265.615	0.054636
265.985	0.070089
266.355	0.075090
266.725	0.074215
267.095	0.076259
267.465	0.077922
267.835	0.083501
268.205	0.076468
268.575	0.074593
268.944	0.074071
269.314	0.077073
269.684	0.080597
270.054	0.078080
270.423	0.077216
270.793	0.080897
271.163	0.087093
271.532	0.085205
271.902	0.090374
272.271	0.090973
272.641	0.092582
273.010	0.085507
273.380	0.085352
273.749	0.075030
274.119	0.071510
274.488	0.075114
274.857	0.072055
275.227	0.067730
275.596	0.057632
275.965	0.072529
276.335	0.077234
276.704	0.077412
277.073	0.080178
277.442	0.078625
277.811	0.083011
278.180	0.088258
278.549	0.087972
278.918	0.080741
279.287	0.081047
279.656	0.084574
280.025	0.084201
280.394	0.080269
280.763	0.087259
281.132	0.091572
281.501	0.097189
281.869	0.097750
282.238	0.100204
282.607	0.096557
282.976	0.102935
283.344	0.109182
283.713	0.099269
284.081	0.088497
284.450	0.093177
284.819	0.090040
285.187	0.096760
285.556	0.098867
285.924	0.093748
286.292	0.091786
286.661	0.093322
287.029	0.094051
287.398	0.092398
287.766	0.088838
288.134	0.097897
288.502	0.096374
288.871	0.099907
289.239	0.106458
289.607	0.108963
289.975	0.103498
290.343	0.108231
290.711	0.104600
291.079	0.102974
291.447	0.107549
291.815	0.113972
292.183	0.114554
292.551	0.117137
292.919	0.110831
293.287	0.106980
293.655	0.110217
294.022	0.111343
294.390	0.110895
294.758	0.115977
295.126	0.115750
295.493	0.125900
295.861	0.129955
296.229	0.126601
296.596	0.127576
296.964	0.126018
297.331	0.122216
297.699	0.124522
298.066	0.130340
298.434	0.134661
298.801	0.140503
299.168	0.135848
299.536	0.141889
299.903	0.143916
300.270	0.149663
300.638	0.157171
301.005	0.170184
301.372	0.174005
301.739	0.180002
302.106	0.187325
302.473	0.195327
302.840	0.209101
303.207	0.222322
303.574	0.232798
303.941	0.249784
304.308	0.261686
304.675	0.270725
305.042	0.290748
305.409	0.314546
305.776	0.325644
306.143	0.345549
306.509	0.364171
306.876	0.396058
307.243	0.421563
307.610	0.449551
307.976	0.471697
308.343	0.497968
308.709	0.524490
309.076	0.554172
309.442	0.581945
309.809	0.609002
310.175	0.638243
310.542	0.659696
310.908	0.681693
311.275	0.700382
311.641	0.725970
312.007	0.751136
312.373	0.786797
312.740	0.816504
313.106	0.844794
313.472	0.877933
313.838	0.905482
314.204	0.932096
314.570	0.949283
314.936	0.970551
315.302	0.984871
315.668	1.008260
316.034	1.033971
316.400	1.057048
316.766	1.077382
317.132	1.104203
317.498	1.127006
317.864	1.137945
318.230	1.152733
318.595	1.168641
318.961	1.192009
319.327	1.211435
319.692	1.224916
320.058	1.229390
320.424	1.238440
320.789	1.246533
321.155	1.258342
321.520	1.271363
321.886	1.282601
322.251	1.295060
322.616	1.300415
322.982	1.311786
323.347	1.318324
323.712	1.323819
324.078	1.331216
324.443	1.335680
324.808	1.337457
325.173	1.345710
325.539	1.351800
325.904	1.357830
326.269	1.364790
326.634	1.365387
326.999	1.368220
327.364	1.372260
327.729	1.376020
328.094	1.381002
328.459	1.384710
328.823	1.386646
329.188	1.389868
329.553	1.390233
329.918	1.394263
330.283	1.397214
330.647	1.399780
331.012	1.402712
331.377	1.403405
331.741	1.403343
332.106	1.407351
332.470	1.408219
332.835	1.407318
333.199	1.409333
333.564	1.409841
333.928	1.410218
334.293	1.413350
334.657	1.413605
335.021	1.416150
335.386	1.416934
335.750	1.415729
336.114	1.415509
336.478	1.416682
336.843	1.415246
337.207	1.416911
337.571	1.417941
337.935	1.418180
338.299	1.418736
338.663	1.418269
339.027	1.420429
339.391	1.421774
339.755	1.421993
340.119	1.423390
340.483	1.423926
340.846	1.425818
341.210	1.427933
341.574	1.429510
341.938	1.429845
342.301	1.431995
342.665	1.432713
343.029	1.434201
343.392	1.435862
343.756	1.437320
344.119	1.438033
344.483	1.439665
344.846	1.441299
345.210	1.442065
345.573	1.443482
345.937	1.444543
346.300	1.446949
346.663	1.447914
347.027	1.450057
347.390	1.450692
347.753	1.451010
348.116	1.452808
348.479	1.453374
348.843	1.453960
349.206	1.454755
349.569	1.455838
349.932	1.456202
350.295	1.457761
350.658	1.459234
351.021	1.461079
351.383	1.462817
351.746	1.463849
352.109	1.465563
352.472	1.465782
352.835	1.466760
353.197	1.468057
353.560	1.469347
353.923	1.469482
354.285	1.470129
354.648	1.470434
355.011	1.471758
355.373	1.473977
355.736	1.474301
356.098	1.474668
356.461	1.476145
356.823	1.476347
357.185	1.477528
357.548	1.478561
357.910	1.478790
358.272	1.478386
358.635	1.477889
358.997	1.478317
359.359	1.479876
359.721	1.480109
360.083	1.481494
360.445	1.483111
360.807	1.484608
361.169	1.485223
361.531	1.486811
361.893	1.487672
362.255	1.488991
362.617	1.489625
362.979	1.490965
363.341	1.491557
363.703	1.493356
364.064	1.494754
364.426	1.496045
364.788	1.496558
365.149	1.498319
365.511	1.499773
365.873	1.502040
366.234	1.503772
366.596	1.505306
366.957	1.506761
367.319	1.507806
367.680	1.508580
368.042	1.508434
368.403	1.508852
368.764	1.510552
369.126	1.510377
369.487	1.511848
369.848	1.512034
370.209	1.513906
370.570	1.514137
370.931	1.516046
371.293	1.516755
371.654	1.516909
372.015	1.518633
372.376	1.519724
372.737	1.520886
373.098	1.521401
373.458	1.522437
373.819	1.524357
374.180	1.525089
374.541	1.525789
374.902	1.526944
375.263	1.528615
375.623	1.529536
375.984	1.531451
376.345	1.532083
376.705	1.534157
377.066	1.535217
377.426	1.536151
377.787	1.536313
378.147	1.537158
378.508	1.537145
378.868	1.538679
379.228	1.539775
379.589	1.539011
379.949	1.539037
380.309	1.539498
380.670	1.539898
381.030	1.539529
381.390	1.539914
381.750	1.539649
382.110	1.539539
382.470	1.540175
382.830	1.539941
383.190	1.540950
383.550	1.541023
383.910	1.541608
384.270	1.542283
384.630	1.543037
384.990	1.543633
385.350	1.543776
385.709	1.544070
386.069	1.544926
386.429	1.544584
386.788	1.545384
387.148	1.547255
387.508	1.548888
387.867	1.548338
388.227	1.548512
388.586	1.549021
388.946	1.549497
389.305	1.550488
389.665	1.551196
390.024	1.551223
390.383	1.551827
390.743	1.551414
391.102	1.550953
391.461	1.550407
391.820	1.550052
392.179	1.549372
392.539	1.549519
392.898	1.550640
393.257	1.550956
393.616	1.551762
393.975	1.551209
394.334	1.551124
394.693	1.550360
395.051	1.550381
395.410	1.550735
395.769	1.550770
396.128	1.551158
396.487	1.550374
396.845	1.549149
397.204	1.548355
397.563	1.547413
397.921	1.546268
398.280	1.545356
398.638	1.544459
398.997	1.543656
399.355	1.542455
399.714	1.542098
400.072	1.540684
400.431	1.538397
400.789	1.536871
401.147	1.535333
401.506	1.534268
401.864	1.532360
402.222	1.531301
402.580	1.528992
402.938	1.527236
403.297	1.526160
403.655	1.525037
404.013	1.523941
404.371	1.523440
404.729	1.521864
405.087	1.520578
405.444	1.519914
405.802	1.518758
406.160	1.517655
406.518	1.516749
406.876	1.514963
407.233	1.513116
407.591	1.511951
407.949	1.510552
408.306	1.508811
408.664	1.507195
409.022	1.505924
409.379	1.504469
409.737	1.501963
410.094	1.500252
410.451	1.498584
410.809	1.496636
411.166	1.494099
411.523	1.492538
411.881	1.490614
412.238	1.488532
412.595	1.486570
412.952	1.484447
413.310	1.482822
413.667	1.481022
414.024	1.478780
414.381	1.477710
414.738	1.475214
415.095	1.472715
415.452	1.470437
415.809	1.468732
416.165	1.466880
416.522	1.463926
416.879	1.461976
417.236	1.460211
417.593	1.457748
417.949	1.455566
418.306	1.453389
418.663	1.452106
419.019	1.449789
419.376	1.447714
419.732	1.445770
420.089	1.444376
420.445	1.442441
420.802	1.440273
421.158	1.437869
421.514	1.435998
421.871	1.433208
422.227	1.430962
422.583	1.429350
422.939	1.427484
423.295	1.425409
423.652	1.423004
424.008	1.421007
424.364	1.418593
424.720	1.416497
425.076	1.414701
425.432	1.412259
425.788	1.410044
426.143	1.406778
426.499	1.403691
426.855	1.401010
427.211	1.398407
427.567	1.395309
427.922	1.392771
428.278	1.389069
428.634	1.386932
428.989	1.383967
429.345	1.381536
429.700	1.378932
430.056	1.376416
430.411	1.373589
430.767	1.370544
431.122	1.367235
431.478	1.364772
431.833	1.361651
432.188	1.358466
432.543	1.355412
432.899	1.352119
433.254	1.348300
433.609	1.344971
433.964	1.341933
434.319	1.338437
434.674	1.334727
435.029	1.331560
435.384	1.327789
435.739	1.325153
436.094	1.322049
436.449	1.318938
436.804	1.315872
437.158	1.312784
437.513	1.309335
437.868	1.305857
438.223	1.302800
438.577	1.299479
438.932	1.296205
439.287	1.292958
439.641	1.289551
439.996	1.285912
440.350	1.282510
440.704	1.279663
441.059	1.276437
441.413	1.273134
441.768	1.269557
442.122	1.266474
442.476	1.262738
442.830	1.259500
443.185	1.256525
443.539	1.252839
443.893	1.249753
444.247	1.246285
444.601	1.242944
444.955	1.239249
445.309	1.235987
445.663	1.232016
446.017	1.228536
446.371	1.224658
446.724	1.220883
447.078	1.216933
447.432	1.213487
447.786	1.210124
448.139	1.205989
448.493	1.202473
448.847	1.198663
449.200	1.195031
449.554	1.191145
449.907	1.187730
450.261	1.183914
450.614	1.180073
450.968	1.176538
451.321	1.172517
451.674	1.168761
452.027	1.164808
452.381	1.161129
452.734	1.157526
453.087	1.154098
453.440	1.150017
453.793	1.146376
454.146	1.142799
454.499	1.139581
454.852	1.135872
455.205	1.132113
455.558	1.128989
455.911	1.125297
456.264	1.121793
456.617	1.118560
456.970	1.115459
457.322	1.112291
457.675	1.109426
458.028	1.106353
458.380	1.103259
458.733	1.100342
459.086	1.097542
459.438	1.094866
459.791	1.091810
460.143	1.088671
460.496	1.085730
460.848	1.083117
461.200	1.080275
461.553	1.077094
461.905	1.074184
462.257	1.071118
462.609	1.068359
462.961	1.065506
463.314	1.062845
463.666	1.060209
464.018	1.057334
464.370	1.054759
464.722	1.052121
465.074	1.049249
465.426	1.046628
465.777	1.044208
466.129	1.041686
466.481	1.039055
466.833	1.036504
467.184	1.034217
467.536	1.031625
467.888	1.029073
468.239	1.026266
468.591	1.023040
468.943	1.020152
469.294	1.017001
469.646	1.014174
469.997	1.010989
470.348	1.007975
470.700	1.005143
471.051	1.002201
471.402	0.999500
471.754	0.996798
472.105	0.994226
472.456	0.991744
472.807	0.989443
473.158	0.987028
473.509	0.984908
473.860	0.982940
474.211	0.980969
474.562	0.978984
474.913	0.976866
475.264	0.974750
475.615	0.972754
475.966	0.970930
476.316	0.968820
476.667	0.966772
477.018	0.964786
477.368	0.962847
477.719	0.960760
478.070	0.958762
478.420	0.956857
478.771	0.955065
479.121	0.953136
479.472	0.951191
479.822	0.949237
480.172	0.947232
480.523	0.945185
480.873	0.942809
481.223	0.939894
481.573	0.937278
481.924	0.934630
482.274	0.932194
482.624	0.930029
482.974	0.928259
483.324	0.926758
483.674	0.925522
484.024	0.924241
484.374	0.922912
484.724	0.921651
485.073	0.920396
485.423	0.919147
485.773	0.917850
486.123	0.916513
486.472	0.915204
486.822	0.913929
487.172	0.912775
487.521	0.911446
487.871	0.910204
488.220	0.908955
488.570	0.907753
488.919	0.906032
489.268	0.904090
489.618	0.901966
489.967	0.899551
490.316	0.896599
490.666	0.893537
491.015	0.890572
491.364	0.887875
491.713	0.885419
492.062	0.883144
492.411	0.881006
492.760	0.878996
493.109	0.876940
493.458	0.874892
493.807	0.872965
494.156	0.870975
494.505	0.868807
494.853	0.866853
495.202	0.864750
495.551	0.862649
495.900	0.860683
496.248	0.858760
496.597	0.856878
496.945	0.855002
497.294	0.852985
497.642	0.850994
497.991	0.848896
498.339	0.846896
498.688	0.845010
499.036	0.843222
499.384	0.841374
499.732	0.839529
500.081	0.837628
500.429	0.835699
500.777	0.833876
501.125	0.832086
501.473	0.830270
501.821	0.828542
502.169	0.826831
502.517	0.825101
502.865	0.823477
503.213	0.821682
503.561	0.820071
503.908	0.818383
504.256	0.816649
504.604	0.814960
504.952	0.813258
505.299	0.811561
505.647	0.809872
505.994	0.808185
506.342	0.806435
506.689	0.804722
507.037	0.803121
507.384	0.801399
507.732	0.799875
508.079	0.798289
508.426	0.796760
508.774	0.795183
509.121	0.793567
509.468	0.792071
509.815	0.790618
510.162	0.789090
510.509	0.787544
510.856	0.785948
511.203	0.784457
511.550	0.782891
511.897	0.781401
512.244	0.780050
512.591	0.778547
512.938	0.777118
513.284	0.775629
513.631	0.774162
513.978	0.772663
514.324	0.771208
514.671	0.769710
515.018	0.768219
515.364	0.766740
515.711	0.765219
516.057	0.763700
516.403	0.762230
516.750	0.760781
517.096	0.759432
517.443	0.757932
517.789	0.756620
518.135	0.755240
518.481	0.753871
518.827	0.752567
519.173	0.751107
519.519	0.749652
519.865	0.748297
520.211	0.746912
520.557	0.745511
520.903	0.744000
521.249	0.742622
521.595	0.741112
521.941	0.739623
522.287	0.738103
522.632	0.736470
522.978	0.734844
523.324	0.733345
523.669	0.731908
524.015	0.730199
524.360	0.728532
524.706	0.727146
525.051	0.725597
525.397	0.724005
525.742	0.722370
526.087	0.720870
526.433	0.719457
526.778	0.718093
527.123	0.716663
527.468	0.715129
527.813	0.713664
528.158	0.712303
528.504	0.710728
528.849	0.708955
529.193	0.707474
529.538	0.705871
529.883	0.704301
530.228	0.702684
530.573	0.701104
530.918	0.699451
531.263	0.697862
531.607	0.696326
531.952	0.694673
532.296	0.693034
532.641	0.691581
532.986	0.690026
533.330	0.688409
533.675	0.686871
534.019	0.685115
534.363	0.683397
534.708	0.681663
535.052	0.679939
535.396	0.678193
535.741	0.676714
536.085	0.675161
536.429	0.673439
536.773	0.671694
537.117	0.669956
537.461	0.668010
537.805	0.666016
538.149	0.664012
538.493	0.662056
538.837	0.660061
539.181	0.658053
539.524	0.656040
539.868	0.653970
540.212	0.651952
540.556	0.649914
540.899	0.647895
541.243	0.645949
541.586	0.643953
541.930	0.642063
542.273	0.640111
542.617	0.638065
542.960	0.635798
543.304	0.633640
543.647	0.631389
543.990	0.629224
544.333	0.626888
544.677	0.624774
545.020	0.622620
545.363	0.620481
545.706	0.618407
546.049	0.616235
546.392	0.614129
546.735	0.611975
547.078	0.609679
547.421	0.607403
547.764	0.605110
548.106	0.602668
548.449	0.600117
548.792	0.597710
549.135	0.595216
549.477	0.592719
549.820	0.590385
550.162	0.588103
550.505	0.585726
550.847	0.583361
551.190	0.580731
551.532	0.578278
551.875	0.575537
552.217	0.572745
552.559	0.570061
552.901	0.567358
553.244	0.564770
553.586	0.562223
553.928	0.559837
554.270	0.557497
554.612	0.555159
554.954	0.552798
555.296	0.550362
555.638	0.547944
555.980	0.545298
556.322	0.542584
556.663	0.539802
557.005	0.536886
557.347	0.534014
557.689	0.531270
558.030	0.528639
558.372	0.526053
558.713	0.523402
559.055	0.520795
559.396	0.518262
559.738	0.515604
560.079	0.512892
560.421	0.510230
560.762	0.507579
561.103	0.504886
561.444	0.502345
561.786	0.499866
562.127	0.497354
562.468	0.494811
562.809	0.492239
563.150	0.489609
563.491	0.486873
563.832	0.484065
564.173	0.481217
564.514	0.478299
564.855	0.475273
565.195	0.472100
565.536	0.469038
565.877	0.465905
566.218	0.463002
566.558	0.460149
566.899	0.457386
567.239	0.454841
567.580	0.452466
567.920	0.450333
568.261	0.448372
568.601	0.446486
568.941	0.444689
569.282	0.442967
569.622	0.441285
569.962	0.439643
570.302	0.437998
570.643	0.436434
570.983	0.435014
571.323	0.433630
571.663	0.432237
572.003	0.430889
572.343	0.429536
572.683	0.428040
573.022	0.426528
573.362	0.424942
573.702	0.423331
574.042	0.421762
574.381	0.420250
574.721	0.418783
575.061	0.417373
575.400	0.416039
575.740	0.414725
576.079	0.413408
576.419	0.412020
576.758	0.410524
577.097	0.408961
577.437	0.407361
577.776	0.405731
578.115	0.404111
578.454	0.402611
578.794	0.401305
579.133	0.400131
579.472	0.399067
579.811	0.398110
580.150	0.397147
580.489	0.396131
580.828	0.395026
581.167	0.393887
581.505	0.392732
581.844	0.391586
582.183	0.390418
582.522	0.389276
582.860	0.388181
583.199	0.387125
583.538	0.386139
583.876	0.385250
584.215	0.384386
584.553	0.383531
584.891	0.382677
585.230	0.381779
585.568	0.380814
585.906	0.379774
586.245	0.378696
586.583	0.377670
586.921	0.376722
587.259	0.375875
587.597	0.375076
587.935	0.374282
588.273	0.373424
588.611	0.372409
588.949	0.371310
589.287	0.370175
589.625	0.369055
589.963	0.367990
590.300	0.367007
590.638	0.366078
590.976	0.365189
591.313	0.364263
591.651	0.363325
591.989	0.362374
592.326	0.361487
592.664	0.360677
593.001	0.359891
593.338	0.359192
593.676	0.358531
594.013	0.357862
594.350	0.357273
594.687	0.356706
595.025	0.356214
595.362	0.355665
595.699	0.355120
596.036	0.354567
596.373	0.354003
596.710	0.353403
597.047	0.352739
597.384	0.352129
597.720	0.351523
598.057	0.350863
598.394	0.350182
598.731	0.349536
599.067	0.348905
599.404	0.348244
599.741	0.347628
600.077	0.347040
600.414	0.346499
600.750	0.346013
601.087	0.345617
601.423	0.345129
601.759	0.344647
602.096	0.344155
602.432	0.343692
602.768	0.343193
603.104	0.342718
603.440	0.342242
603.776	0.341817
604.112	0.341419
604.448	0.340999
604.784	0.340605
605.120	0.340223
605.456	0.339887
605.792	0.339526
606.128	0.339186
606.463	0.338855
606.799	0.338440
607.135	0.338053
607.470	0.337686
607.806	0.337315
608.142	0.336919
608.477	0.336582
608.812	0.336260
609.148	0.335923
609.483	0.335611
609.819	0.335292
610.154	0.334936
610.489	0.334588
610.824	0.334218
611.159	0.333900
611.494	0.333564
611.830	0.333273
612.165	0.333064
612.500	0.332836
612.834	0.332643
613.169	0.332411
613.504	0.332147
613.839	0.331921
614.174	0.331665
614.509	0.331418
614.843	0.331130
615.178	0.330878
615.512	0.330646
615.847	0.330413
616.182	0.330220
616.516	0.330061
616.850	0.329953
617.185	0.329825
617.519	0.329670
617.853	0.329519
618.188	0.329249
618.522	0.328979
618.856	0.328683
619.190	0.328362
619.524	0.328065
619.858	0.327807
620.192	0.327587
620.526	0.327382
620.860	0.327239
621.194	0.327046
621.528	0.326788
621.862	0.326627
622.195	0.326474
622.529	0.326217
622.863	0.326003
623.196	0.325793
623.530	0.325563
623.864	0.325335
624.197	0.325138
624.530	0.324911
624.864	0.324754
625.197	0.324655
625.531	0.324466
625.864	0.324283
626.197	0.324090
626.530	0.323935
626.863	0.323668
627.196	0.323484
627.529	0.323308
627.862	0.323035
628.195	0.322787
628.528	0.322634
628.861	0.322346
629.194	0.322103
629.527	0.321915
629.860	0.321707
630.192	0.321366
630.525	0.321029
630.858	0.320739
631.190	0.320409
631.523	0.320159
631.855	0.319695
632.188	0.319314
632.520	0.319075
632.852	0.318815
633.185	0.318530
633.517	0.318284
633.849	0.318077
634.182	0.317866
634.514	0.317713
634.846	0.317567
635.178	0.317447
635.510	0.317228
635.842	0.317082
636.174	0.316873
636.506	0.316765
636.837	0.316594
637.169	0.316555
637.501	0.316438
637.833	0.316400
638.164	0.316274
638.496	0.316120
638.828	0.315939
639.159	0.315789
639.491	0.315574
639.822	0.315390
640.154	0.315046
640.485	0.314739
640.816	0.314402
641.147	0.314056
641.479	0.313617
641.810	0.313280
642.141	0.313047
642.472	0.312795
642.803	0.312481
643.134	0.312127
643.465	0.311747
643.796	0.311495
644.127	0.311219
644.458	0.311095
644.789	0.310774
645.119	0.310801
645.450	0.310785
645.781	0.311027
646.111	0.311225
646.442	0.311379
646.773	0.311460
647.103	0.311711
647.433	0.311826
647.764	0.311898
648.094	0.311878
648.425	0.311963
648.755	0.312042
649.085	0.312005
649.415	0.312022
649.745	0.312117
650.075	0.312290
650.405	0.312387
650.735	0.310952
651.065	0.302233
651.395	0.294219
651.725	0.278777
652.055	0.238009
652.385	0.199750
652.715	0.167424
653.044	0.141086
653.374	0.128649
653.704	0.132067
654.033	0.147358
654.363	0.156602
654.692	0.162040
655.022	0.165288
655.351	0.167281
655.680	0.168456
656.010	0.169090
656.339	0.169372
656.668	0.169440
656.997	0.169391
657.326	0.169265
657.655	0.169048
657.984	0.167636
658.313	0.161825
658.642	0.153557
658.971	0.155216
659.300	0.166178
659.629	0.188606
659.958	0.227657
660.286	0.275351
660.615	0.311706
660.944	0.310699
661.272	0.308600
661.601	0.307240
661.929	0.306721
662.258	0.306803
662.586	0.307184
662.915	0.307247
663.243	0.307086
663.571	0.306711
663.899	0.306350
664.228	0.306087
664.556	0.305788
664.884	0.305505
665.212	0.305169
665.540	0.305037
665.868	0.304716
666.196	0.304731
666.524	0.304615
666.852	0.304390
667.179	0.304475
667.507	0.304461
667.835	0.304391
668.162	0.304284
668.490	0.304260
668.818	0.304321
669.145	0.304446
669.473	0.304512
669.800	0.304816
670.127	0.305010
670.455	0.305226
670.782	0.305409
671.109	0.305407
671.436	0.305539
671.764	0.305564
672.091	0.305567
672.418	0.305663
672.745	0.305762
673.072	0.305819
673.399	0.305829
673.726	0.305805
674.053	0.305788
674.379	0.305708
674.706	0.305677
675.033	0.305511
675.359	0.305425
675.686	0.305270
676.013	0.305088
676.339	0.304922
676.666	0.304625
676.992	0.304442
677.318	0.304322
677.645	0.304077
677.971	0.303952
678.297	0.303855
678.624	0.303874
678.950	0.303889
679.276	0.303737
679.602	0.303499
679.928	0.303209
680.254	0.302985
680.580	0.302813
680.906	0.302584
681.232	0.302495
681.558	0.302549
681.883	0.302703
682.209	0.302786
682.535	0.302800
682.860	0.302859
683.186	0.303004
683.511	0.302964
683.837	0.302853
684.162	0.302728
684.488	0.302703
684.813	0.302629
685.138	0.302472
685.464	0.302301
685.789	0.302106
686.114	0.302014
686.439	0.301990
686.764	0.301932
687.089	0.301848
687.414	0.301862
687.739	0.301832
688.064	0.301804
688.389	0.301612
688.714	0.301402
689.039	0.301211
689.363	0.301047
689.688	0.300763
690.013	0.300446
690.337	0.300353
690.662	0.300243
690.986	0.300207
691.311	0.300083
691.635	0.299994
691.959	0.299841
692.284	0.299615
692.608	0.299426
692.932	0.299256
693.256	0.299136
693.580	0.299149
693.904	0.299111
694.228	0.299031
694.552	0.299067
694.876	0.299053
695.200	0.299031
695.524	0.298915
695.848	0.298698
696.172	0.298387
696.495	0.298198
696.819	0.298040
697.143	0.297593
697.466	0.297283
697.790	0.296856
698.113	0.296579
698.437	0.296224
698.760	0.296025
699.083	0.296026
699.407	0.295997
699.730	0.295933
700.053	0.295827
700.376	0.295661
700.699	0.295491
701.022	0.295249
701.345	0.294721
701.668	0.294135
701.991	0.293520
702.314	0.292797
702.637	0.292242
702.960	0.291763
703.283	0.291176
703.605	0.290635
703.928	0.290526
704.251	0.290444
704.573	0.290448
704.896	0.290405
705.218	0.290392
705.540	0.290289
705.863	0.290036
706.185	0.289621
706.507	0.289178
706.830	0.288714
707.152	0.288165
707.474	0.287606
707.796	0.287135
708.118	0.286825
708.440	0.286556
708.762	0.286409
709.084	0.286365
709.406	0.286214
709.728	0.286088
710.049	0.285976
710.371	0.285826
710.693	0.285605
711.014	0.285169
711.336	0.284830
711.658	0.284560
711.979	0.284316
712.301	0.284042
712.622	0.283844
712.943	0.283741
713.265	0.283636
713.586	0.283569
713.907	0.283610
714.228	0.283739
714.549	0.283728
714.870	0.283652
715.191	0.283648
715.512	0.283589
715.833	0.283547
716.154	0.283567
716.475	0.283448
716.796	0.283360
717.117	0.283152
717.437	0.282796
717.758	0.282502
718.078	0.282148
718.399	0.281810
718.719	0.281434
719.040	0.281050
719.360	0.280773
719.681	0.280549
720.001	0.280345
720.321	0.280109
720.642	0.279848
720.962	0.279571
721.282	0.279446
721.602	0.279327
721.922	0.279199
722.242	0.279079
722.562	0.278954
722.882	0.278761
723.202	0.278800
723.521	0.278795
723.841	0.278819
724.161	0.278896
724.481	0.279026
724.800	0.278932
725.120	0.278788
725.439	0.278755
725.759	0.278904
726.078	0.278943
726.398	0.278964
726.717	0.279009
727.036	0.279098
727.355	0.279222
727.675	0.279379
727.994	0.279509
728.313	0.279706
728.632	0.279869
728.951	0.280030
729.270	0.280012
729.589	0.279891
729.908	0.279691
730.226	0.279521
730.545	0.279287
730.864	0.279054
731.182	0.278797
731.501	0.278772
731.820	0.278838
732.138	0.278927
732.457	0.278810
732.775	0.278725
733.093	0.278731
733.412	0.278728
733.730	0.278699
734.048	0.278631
734.367	0.278437
734.685	0.278248
735.003	0.277965
735.321	0.277653
735.639	0.277241
735.957	0.277065
736.275	0.276976
736.593	0.276891
736.910	0.276779
737.228	0.276836
737.546	0.276908
737.863	0.276941
738.181	0.276802
738.499	0.276582
738.816	0.276303
739.134	0.276078
739.451	0.275904
739.768	0.275682
740.086	0.275444
740.403	0.275243
740.720	0.274962
741.038	0.274750
741.355	0.274486
741.672	0.274255
741.989	0.274036
742.306	0.273924
742.623	0.273605
742.940	0.273161
743.257	0.272703
743.573	0.272270
743.890	0.271688
744.207	0.271151
744.523	0.270843
744.840	0.270598
745.157	0.270230
745.473	0.269871
745.790	0.269663
746.106	0.269335
746.422	0.269074
746.739	0.268832
747.055	0.268576
747.371	0.268384
747.687	0.268394
748.004	0.268476
748.320	0.268551
748.636	0.268588
748.952	0.268603
749.268	0.268694
749.584	0.268927
749.899	0.269061
750.215	0.269101
750.531	0.269152
750.847	0.269298
751.162	0.269372
751.478	0.269460
751.793	0.269450
752.109	0.269403
752.424	0.269374
752.740	0.269431
753.055	0.269511
753.370	0.269662
753.686	0.269857
754.001	0.270155
754.316	0.270451
754.631	0.270672
754.946	0.270831
755.261	0.271001
755.576	0.271133
755.891	0.271194
756.206	0.271208
756.521	0.271200
756.836	0.271255
757.150	0.271361
757.465	0.271426
757.780	0.271496
758.094	0.271617
758.409	0.271760
758.723	0.271996
759.038	0.272128
759.352	0.272180
759.667	0.272219
759.981	0.272162
760.295	0.271993
760.609	0.271805
760.923	0.271615
761.238	0.271378
761.552	0.271170
761.866	0.270962
762.180	0.270906
762.493	0.270899
762.807	0.270904
763.121	0.270912
763.435	0.270868
763.749	0.270722
764.062	0.270509
764.376	0.270239
764.689	0.269976
765.003	0.269697
765.316	0.269456
765.630	0.269505
765.943	0.269444
766.257	0.269315
766.570	0.269317
766.883	0.269286
767.196	0.269137
767.509	0.268871
767.822	0.268695
768.135	0.268579
768.448	0.268483
768.761	0.268169
769.074	0.267878
769.387	0.267589
769.700	0.267394
770.013	0.267181
770.325	0.266990
770.638	0.266919
770.950	0.266821
771.263	0.266715
771.575	0.266670
771.888	0.266381
772.200	0.265915
772.513	0.265565
772.825	0.265223
773.137	0.264765
773.449	0.264455
773.761	0.264187
774.074	0.263941
774.386	0.263613
774.698	0.263322
775.010	0.262943
775.321	0.262658
775.633	0.262387
775.945	0.262205
776.257	0.261991
776.568	0.261997
776.880	0.262029
777.192	0.261870
777.503	0.261854
777.815	0.261889
778.126	0.261952
778.438	0.262187
778.749	0.262527
779.060	0.262764
779.372	0.263004
779.683	0.263196
779.994	0.263303
780.305	0.263412
780.616	0.263589
780.927	0.263814
781.238	0.263772
781.549	0.263909
781.860	0.264118
782.171	0.264257
782.481	0.264347
782.792	0.264368
783.103	0.264402
783.413	0.264388
783.724	0.264265
784.034	0.264165
784.345	0.263971
784.655	0.263853
784.966	0.263769
785.276	0.263630
785.586	0.263538
785.896	0.263470
786.207	0.263476
786.517	0.263515
786.827	0.263536
787.137	0.263461
787.447	0.263312
787.757	0.263472
788.066	0.263400
788.376	0.263234
788.686	0.263200
788.996	0.263228
789.305	0.263281
789.615	0.263128
789.925	0.263144
790.234	0.263320
790.544	0.263527
790.853	0.263568
791.162	0.263677
791.472	0.263775
791.781	0.263879
792.090	0.263921
792.399	0.263920
792.708	0.263805
793.017	0.263669
793.326	0.263552
793.635	0.263506
793.944	0.263358
794.253	0.263163
794.562	0.262870
794.871	0.262813
795.179	0.262558
795.488	0.262387
795.797	0.262225
796.105	0.262210
796.414	0.262079
796.722	0.261969
797.031	0.261819
797.339	0.261652
797.647	0.261283
797.956	0.261002
798.264	0.260319
798.572	0.259964
798.880	0.259503
799.188	0.259219
799.496	0.259039
799.804	0.258854
800.112	0.258565
800.420	0.258427
800.728	0.258268
801.035	0.258324
801.343	0.258050
801.651	0.257697
801.958	0.257328
802.266	0.257069
802.573	0.257046
802.881	0.257110
803.188	0.257134
803.496	0.257211
803.803	0.257471
804.110	0.257705
804.417	0.257656
804.724	0.257666
805.032	0.257570
805.339	0.257577
805.646	0.257504
805.953	0.257225
806.259	0.257044
806.566	0.256922
806.873	0.256976
807.180	0.256989
807.486	0.256984
807.793	0.257018
808.100	0.257128
808.406	0.257090
808.713	0.256987
809.019	0.256630
809.326	0.256215
809.632	0.255884
809.938	0.255184
810.244	0.254636
810.551	0.254194
810.857	0.253578
811.163	0.253436
811.469	0.253099
811.775	0.252858
812.081	0.252596
812.387	0.252671
812.692	0.252598
812.998	0.252793
813.304	0.252638
813.610	0.252639
813.915	0.252454
814.221	0.252438
814.526	0.252682
814.832	0.252786
815.137	0.253068
815.443	0.252978
815.748	0.253264
816.053	0.253200
816.358	0.253049
816.664	0.252819
816.969	0.252501
817.274	0.252857
817.579	0.252829
817.884	0.252705
818.189	0.252537
818.493	0.252510
818.798	0.252533
819.103	0.252528
819.408	0.252098
819.712	0.251855
820.017	0.251507
820.321	0.251442
820.626	0.251181
820.930	0.250720
821.235	0.250360
821.539	0.249913
821.843	0.249738
822.148	0.249223
822.452	0.249409
822.756	0.249666
823.060	0.249595
823.364	0.249986
823.668	0.249779
823.972	0.249651
824.276	0.249729
824.580	0.249887
824.883	0.249838
825.187	0.249875
825.491	0.249852
825.795	0.249707
826.098	0.249754
826.402	0.249779
826.705	0.249766
827.008	0.249714
827.312	0.249614
827.615	0.249548
827.918	0.249226
828.222	0.249197
828.525	0.248990
828.828	0.248526
829.131	0.248247
829.434	0.247991
829.737	0.247322
830.040	0.246374
830.343	0.245714
830.645	0.245294
830.948	0.244726
831.251	0.244478
831.553	0.243456
831.856	0.242954
832.159	0.243137
832.461	0.243140
832.764	0.243081
833.066	0.242810
833.368	0.242524
833.671	0.242012
833.973	0.241720
834.275	0.241720
834.577	0.241047
834.879	0.241095
835.181	0.240526
835.483	0.240460
835.785	0.240101
836.087	0.239729
836.389	0.239883
836.690	0.239153
836.992	0.238554
837.294	0.237237
837.595	0.235857
837.897	0.235300
838.198	0.234163
838.500	0.232946
838.801	0.231756
839.103	0.230448
839.404	0.229603
839.705	0.228857
840.006	0.228830
840.307	0.228702
840.608	0.228170
840.910	0.228991
841.210	0.228730
841.511	0.228847
841.812	0.228233
842.113	0.228583
842.414	0.227563
842.715	0.226385
843.015	0.225628
843.316	0.224884
843.616	0.223999
843.917	0.223497
844.217	0.222860
844.518	0.222959
844.818	0.222807
845.118	0.222853
845.419	0.222866
845.719	0.222295
846.019	0.221915
846.319	0.221859
846.619	0.220713
846.919	0.220745
847.219	0.220130
847.519	0.219629
847.819	0.219319
848.118	0.219110
848.418	0.218562
848.718	0.218558
849.017	0.218969
849.317	0.219837
849.616	0.219954
849.916	0.221808
850.215	0.222810
850.515	0.223759
850.814	0.224531
851.113	0.225080
851.412	0.225624
851.712	0.225746
852.011	0.226182
852.310	0.226919
852.609	0.227226
852.908	0.227867
853.206	0.228088
853.505	0.228438
853.804	0.228856
854.103	0.229408
854.401	0.229294
854.700	0.229090
854.999	0.228964
855.297	0.229114
855.595	0.229122
855.894	0.228977
856.192	0.228673
856.491	0.228442
856.789	0.228223
857.087	0.227650
857.385	0.226937
857.683	0.226058
857.981	0.225649
858.279	0.224801
858.577	0.223651
858.875	0.222802
859.173	0.221831
859.471	0.221282
859.768	0.220161
860.066	0.219087
860.363	0.217364
860.661	0.216739
860.959	0.216965
861.256	0.217290
861.553	0.216926
861.851	0.215894
862.148	0.215404
862.445	0.214876
862.742	0.214418
863.039	0.213231
863.337	0.212004
863.634	0.211023
863.931	0.209968
864.227	0.209125
864.524	0.208596
864.821	0.207475
865.118	0.206904
865.415	0.206049
865.711	0.205913
866.008	0.205676
866.304	0.205306
866.601	0.204865
866.897	0.204307
867.194	0.203239
867.490	0.201960
867.786	0.200930
868.082	0.201494
868.379	0.201504
868.675	0.201162
868.971	0.200938
869.267	0.200734
869.563	0.201419
869.859	0.201655
870.154	0.202289
870.450	0.202901
870.746	0.202907
871.042	0.203518
871.337	0.203251
871.633	0.203518
871.928	0.203030
872.224	0.202359
872.519	0.201587
872.815	0.202136
873.110	0.202025
873.405	0.201910
873.700	0.202102
873.995	0.202106
874.291	0.201476
874.586	0.201994
874.881	0.201902
875.175	0.201559
875.470	0.201335
875.765	0.201166
876.060	0.201775
876.355	0.201964
876.649	0.201525
876.944	0.201894
877.238	0.202055
877.533	0.202288
877.827	0.203119
878.122	0.203183
878.416	0.203238
878.710	0.204297
879.005	0.203493
879.299	0.203225
879.593	0.203048
879.887	0.203149
880.181	0.202788
880.475	0.202751
880.769	0.201744
881.063	0.201836
881.356	0.201997
881.650	0.202255
881.944	0.201948
882.238	0.185237
882.531	0.198251
882.825	0.198536
883.118	0.181940
883.412	0.192277
883.705	0.179382
883.998	0.203470
884.291	0.205047
884.585	0.198096
884.878	0.195358
>>>>>>>>>> END of Data <<<<<<<<<<
>>>>>>>>>> Raw Data Start <<<<<<<<
190.664	-410
191.040	6
191.415	6
191.791	4
192.166	5
192.542	8
192.917	4
193.293	7
193.668	1
194.044	12
194.419	-11
194.794	8
195.170	9
195.545	9
195.920	10
196.296	10
196.671	10
197.046	11
197.421	11
197.796	12
198.171	13
198.546	13
198.922	13
199.297	13
199.672	14
200.047	14
200.422	14
200.796	14
201.171	14
201.546	14
201.921	14
202.296	14
202.671	15
203.045	15
203.420	15
203.795	15
204.170	14
204.544	15
204.919	14
205.294	14
205.668	14
206.043	14
206.417	13
206.792	13
207.166	13
207.541	13
207.915	13
208.289	13
208.664	12
209.038	13
209.412	13
209.787	13
210.161	13
210.535	13
210.909	13
211.284	13
211.658	13
212.032	13
212.406	13
212.780	13
213.154	13
213.528	13
213.902	13
214.276	13
214.650	13
215.024	13
215.398	14
215.772	14
216.145	13
216.519	13
216.893	13
217.267	13
217.640	13
218.014	14
218.388	14
218.761	14
219.135	14
219.508	14
219.882	14
220.256	14
220.629	14
221.003	14
221.376	14
221.749	14
222.123	14
222.496	14
222.869	14
223.243	14
223.616	14
223.989	14
224.362	15
224.736	15
225.109	15
225.482	15
225.855	15
226.228	15
226.601	15
226.974	15
227.347	15
227.720	15
228.093	15
228.466	15
228.839	15
229.212	15
229.585	14
229.957	14
230.330	15
230.703	15
231.076	15
231.448	15
231.821	14
232.194	14
232.566	14
232.939	14
233.311	14
233.684	14
234.056	14
234.429	14
234.801	14
235.174	14
235.546	14
235.918	15
236.291	15
236.663	15
237.035	15
237.408	15
237.780	15
238.152	14
238.524	15
238.896	14
239.268	15
239.641	15
240.013	15
240.385	15
240.757	15
241.129	15
241.500	15
241.872	15
242.244	16
242.616	16
242.988	15
243.360	15
243.731	15
244.103	15
244.475	15
244.847	16
245.218	16
245.590	15
245.961	16
246.333	16
246.705	15
247.076	15
247.448	16
247.819	16
248.190	16
248.562	16
248.933	16
249.305	16
249.676	16
250.047	16
250.418	16
250.790	16
251.161	16
251.532	16
251.903	16
252.274	15
252.645	15
253.016	15
253.387	15
253.758	15
254.129	16
254.500	16
254.871	16
255.242	16
255.613	16
255.984	16
256.355	15
256.725	15
257.096	15
257.467	15
257.838	15
258.208	15
258.579	15
258.949	16
259.320	16
259.690	16
260.061	16
260.431	17
260.802	17
261.172	16
261.543	16
261.913	16
262.283	16
262.654	16
263.024	16
263.394	16
263.764	16
264.135	16
264.505	16
264.875	17
265.245	16
265.615	16
265.985	16
266.355	16
266.725	16
267.095	16
267.465	16
267.835	15
268.205	15
268.575	16
268.944	16
269.314	15
269.684	15
270.054	15
270.423	15
270.793	15
271.163	15
271.532	15
271.902	15
272.271	15
272.641	15
273.010	15
273.380	15
273.749	15
274.119	16
274.488	16
274.857	16
275.227	16
275.596	17
275.965	16
276.335	16
276.704	16
277.073	16
277.442	16
277.811	17
278.180	17
278.549	17
278.918	17
279.287	17
279.656	17
280.025	17
280.394	17
280.763	17
281.132	17
281.501	17
281.869	17
282.238	16
282.607	16
282.976	16
283.344	16
283.713	16
284.081	16
284.450	16
284.819	17
285.187	17
285.556	16
285.924	17
286.292	17
286.661	16
287.029	16
287.398	16
287.766	17
288.134	16
288.502	16
288.871	17
289.239	16
289.607	16
289.975	17
290.343	17
290.711	17
291.079	17
291.447	17
291.815	17
292.183	17
292.551	16
292.919	17
293.287	17
293.655	17
294.022	17
294.390	17
294.758	17
295.126	17
295.493	16
295.861	16
296.229	16
296.596	16
296.964	16
297.331	17
297.699	17
298.066	17
298.434	17
298.801	17
299.168	17
299.536	17
299.903	17
300.270	16
300.638	16
301.005	16
301.372	16
301.739	17
302.106	17
302.473	17
302.840	17
303.207	17
303.574	17
303.941	17
304.308	17
304.675	17
305.042	17
305.409	17
305.776	17
306.143	17
306.509	17
306.876	17
307.243	17
307.610	17
307.976	17
308.343	17
308.709	17
309.076	17
309.442	17
309.809	18
310.175	18
310.542	18
310.908	18
311.275	19
311.641	19
312.007	19
312.373	19
312.740	19
313.106	19
313.472	19
313.838	19
314.204	19
314.570	20
314.936	20
315.302	21
315.668	21
316.034	21
316.400	21
316.766	21
317.132	21
317.498	21
317.864	22
318.230	22
318.595	23
318.961	23
319.327	23
319.692	23
320.058	24
320.424	25
320.789	26
321.155	27
321.520	27
321.886	28
322.251	28
322.616	29
322.982	30
323.347	31
323.712	32
324.078	33
324.443	35
324.808	36
325.173	37
325.539	38
325.904	39
326.269	40
326.634	42
326.999	43
327.364	44
327.729	45
328.094	46
328.459	47
328.823	49
329.188	50
329.553	51
329.918	52
330.283	54
330.647	55
331.012	56
331.377	57
331.741	59
332.106	60
332.470	61
332.835	63
333.199	64
333.564	65
333.928	67
334.293	68
334.657	69
335.021	71
335.386	72
335.750	74
336.114	76
336.478	77
336.843	79
337.207	80
337.571	82
337.935	83
338.299	85
338.663	86
339.027	87
339.391	89
339.755	90
340.119	91
340.483	93
340.846	94
341.210	95
341.574	96
341.938	98
342.301	99
342.665	100
343.029	101
343.392	102
343.756	103
344.119	104
344.483	106
344.846	106
345.210	108
345.573	109
345.937	110
346.300	110
346.663	111
347.027	112
347.390	113
347.753	114
348.116	115
348.479	116
348.843	117
349.206	118
349.569	119
349.932	120
350.295	120
350.658	121
351.021	122
351.383	122
351.746	123
352.109	123
352.472	124
352.835	125
353.197	125
353.560	126
353.923	127
354.285	127
354.648	128
355.011	129
355.373	129
355.736	129
356.098	130
356.461	131
356.823	131
357.185	132
357.548	132
357.910	133
358.272	134
358.635	135
358.997	135
359.359	136
359.721	136
360.083	136
360.445	137
360.807	137
361.169	137
361.531	138
361.893	138
362.255	138
362.617	139
362.979	139
363.341	140
363.703	140
364.064	140
364.426	141
364.788	141
365.149	141
365.511	142
365.873	141
366.234	141
366.596	141
366.957	141
367.319	141
367.680	142
368.042	142
368.403	142
368.764	142
369.126	143
369.487	142
369.848	143
370.209	142
370.570	142
370.931	142
371.293	142
371.654	142
372.015	142
372.376	142
372.737	142
373.098	142
373.458	142
373.819	141
374.180	142
374.541	142
374.902	142
375.263	142
375.623	143
375.984	143
376.345	143
376.705	143
377.066	143
377.426	143
377.787	144
378.147	144
378.508	145
378.868	145
379.228	145
379.589	146
379.949	146
380.309	146
380.670	147
381.030	147
381.390	148
381.750	148
382.110	148
382.470	148
382.830	149
383.190	148
383.550	149
383.910	149
384.270	149
384.630	150
384.990	150
385.350	151
385.709	151
386.069	151
386.429	152
386.788	152
387.148	152
387.508	151
387.867	152
388.227	153
388.586	153
388.946	154
389.305	155
389.665	155
390.024	156
390.383	157
390.743	158
391.102	159
391.461	159
391.820	160
392.179	160
392.539	161
392.898	161
393.257	161
393.616	161
393.975	162
394.334	163
394.693	165
395.051	166
395.410	167
395.769	168
396.128	169
396.487	170
396.845	170
397.204	171
397.563	171
397.921	171
398.280	172
398.638	172
398.997	173
399.355	173
399.714	174
400.072	174
400.431	176
400.789	176
401.147	177
401.506	178
401.864	179
402.222	179
402.580	180
402.938	180
403.297	180
403.655	180
404.013	180
404.371	180
404.729	180
405.087	181
405.444	181
405.802	182
406.160	182
406.518	183
406.876	184
407.233	184
407.591	185
407.949	185
408.306	186
408.664	187
409.022	187
409.379	188
409.737	189
410.094	190
410.451	190
410.809	192
411.166	193
411.523	194
411.881	195
412.238	196
412.595	197
412.952	198
413.310	199
413.667	200
414.024	201
414.381	201
414.738	203
415.095	204
415.452	205
415.809	206
416.165	207
416.522	208
416.879	210
417.236	211
417.593	213
417.949	216
418.306	218
418.663	221
419.019	224
419.376	227
419.732	230
420.089	232
420.445	234
420.802	237
421.158	240
421.514	242
421.871	244
422.227	246
422.583	248
422.939	250
423.295	251
423.652	253
424.008	255
424.364	256
424.720	257
425.076	258
425.432	259
425.788	260
426.143	262
426.499	264
426.855	266
427.211	268
427.567	271
427.922	272
428.278	274
428.634	275
428.989	277
429.345	278
429.700	280
430.056	282
430.411	285
430.767	288
431.122	291
431.478	293
431.833	295
432.188	297
432.543	299
432.899	301
433.254	303
433.609	305
433.964	305
434.319	307
434.674	308
435.029	309
435.384	311
435.739	313
436.094	316
436.449	319
436.804	323
437.158	326
437.513	331
437.868	336
438.223	340
438.577	345
438.932	351
439.287	357
439.641	362
439.996	368
440.350	374
440.704	380
441.059	385
441.413	391
441.768	397
442.122	403
442.476	409
442.830	414
443.185	420
443.539	425
443.893	430
444.247	435
444.601	439
444.955	443
445.309	445
445.663	448
446.017	451
446.371	453
446.724	455
447.078	457
447.432	458
447.786	459
448.139	461
448.493	461
448.847	462
449.200	462
449.554	463
449.907	463
450.261	464
450.614	464
450.968	465
451.321	466
451.674	467
452.027	468
452.381	469
452.734	470
453.087	471
453.440	474
453.793	476
454.146	478
454.499	482
454.852	486
455.205	491
455.558	496
455.911	501
456.264	506
456.617	511
456.970	516
457.322	520
457.675	524
458.028	528
458.380	532
458.733	535
459.086	538
459.438	542
459.791	546
460.143	551
460.496	557
460.848	563
461.200	570
461.553	577
461.905	584
462.257	591
462.609	596
462.961	602
463.314	607
463.666	611
464.018	615
464.370	618
464.722	623
465.074	628
465.426	631
465.777	635
466.129	639
466.481	641
466.833	643
467.184	644
467.536	644
467.888	644
468.239	643
468.591	643
468.943	643
469.294	643
469.646	644
469.997	647
470.348	651
470.700	656
471.051	663
471.402	670
471.754	679
472.105	689
472.456	699
472.807	710
473.158	722
473.509	735
473.860	750
474.211	764
474.562	779
474.913	795
475.264	812
475.615	829
475.966	845
476.316	861
476.667	878
477.018	894
477.368	911
477.719	929
478.070	945
478.420	960
478.771	975
479.121	990
479.472	1005
479.822	1021
480.172	1038
480.523	1058
480.873	1086
481.223	1132
481.573	1199
481.924	1284
482.274	1379
482.624	1479
482.974	1579
483.324	1666
483.674	1733
484.024	1778
484.374	1809
484.724	1828
485.073	1842
485.423	1854
485.773	1865
486.123	1876
486.472	1887
486.822	1896
487.172	1904
487.521	1911
487.871	1913
488.220	1908
488.570	1883
488.919	1838
489.268	1775
489.618	1700
489.967	1620
490.316	1540
490.666	1470
491.015	1420
491.364	1391
491.713	1376
492.062	1372
492.411	1373
492.760	1377
493.109	1382
493.458	1387
493.807	1391
494.156	1395
494.505	1399
494.853	1403
495.202	1408
495.551	1416
495.900	1423
496.248	1431
496.597	1439
496.945	1446
497.294	1454
497.642	1463
497.991	1472
498.339	1484
498.688	1495
499.036	1507
499.384	1517
499.732	1527
500.081	1534
500.429	1541
500.777	1547
501.125	1553
501.473	1559
501.821	1565
502.169	1571
502.517	1576
502.865	1579
503.213	1581
503.561	1582
503.908	1583
504.256	1583
504.604	1582
504.952	1581
505.299	1579
505.647	1575
505.994	1570
506.342	1566
506.689	1561
507.037	1556
507.384	1553
507.732	1550
508.079	1548
508.426	1546
508.774	1545
509.121	1542
509.468	1540
509.815	1536
510.162	1534
510.509	1531
510.856	1528
511.203	1524
511.550	1521
511.897	1518
512.244	1514
512.591	1511
512.938	1508
513.284	1505
513.631	1501
513.978	1497
514.324	1493
514.671	1488
515.018	1483
515.364	1479
515.711	1476
516.057	1472
516.403	1468
516.750	1464
517.096	1458
517.443	1453
517.789	1447
518.135	1441
518.481	1437
518.827	1432
519.173	1427
519.519	1423
519.865	1419
520.211	1416
520.557	1412
520.903	1410
521.249	1407
521.595	1405
521.941	1402
522.287	1400
522.632	1399
522.978	1397
523.324	1396
523.669	1395
524.015	1396
524.360	1399
524.706	1403
525.051	1409
525.397	1416
525.742	1424
526.087	1432
526.433	1439
526.778	1446
527.123	1451
527.468	1455
527.813	1459
528.158	1463
528.504	1468
528.849	1477
529.193	1486
529.538	1498
529.883	1512
530.228	1529
530.573	1547
530.918	1567
531.263	1586
531.607	1604
531.952	1620
532.296	1634
532.641	1644
532.986	1653
533.330	1661
533.675	1669
534.019	1681
534.363	1696
534.708	1713
535.052	1733
535.396	1755
535.741	1775
536.085	1792
536.429	1809
536.773	1823
537.117	1834
537.461	1844
537.805	1852
538.149	1862
538.493	1872
538.837	1883
539.181	1896
539.524	1912
539.868	1932
540.212	1953
540.556	1976
540.899	2000
541.243	2022
541.586	2040
541.930	2053
542.273	2063
542.617	2070
542.960	2079
543.304	2090
543.647	2105
543.990	2124
544.333	2145
544.677	2167
545.020	2188
545.363	2205
545.706	2218
546.049	2228
546.392	2233
546.735	2234
547.078	2234
547.421	2235
547.764	2236
548.106	2239
548.449	2244
548.792	2254
549.135	2267
549.477	2285
549.820	2301
550.162	2315
550.505	2326
550.847	2333
551.190	2338
551.532	2341
551.875	2344
552.217	2348
552.559	2355
552.901	2365
553.244	2377
553.586	2392
553.928	2406
554.270	2419
554.612	2429
554.954	2437
555.296	2443
555.638	2449
555.980	2456
556.322	2464
556.663	2477
557.005	2496
557.347	2521
557.689	2547
558.030	2573
558.372	2596
558.713	2617
559.055	2637
559.396	2656
559.738	2676
560.079	2699
560.421	2725
560.762	2756
561.103	2790
561.444	2828
561.786	2867
562.127	2909
562.468	2955
562.809	3006
563.150	3062
563.491	3123
563.832	3190
564.173	3267
564.514	3356
564.855	3463
565.195	3596
565.536	3754
565.877	3940
566.218	4151
566.558	4388
566.899	4650
567.239	4932
567.580	5228
567.920	5531
568.261	5837
568.601	6150
568.941	6474
569.282	6808
569.622	7153
569.962	7512
570.302	7895
570.643	8289
570.983	8686
571.323	9068
571.663	9437
572.003	9786
572.343	10111
572.683	10416
573.022	10724
573.362	11048
573.702	11383
574.042	11717
574.381	12035
574.721	12337
575.061	12626
575.400	12887
575.740	13118
576.079	13321
576.419	13522
576.758	13752
577.097	14026
577.437	14325
577.776	14644
578.115	14978
578.454	15316
578.794	15624
579.133	15860
579.472	16019
579.811	16105
580.150	16123
580.489	16091
580.828	16035
581.167	15982
581.505	15941
581.844	15908
582.183	15874
582.522	15852
582.860	15840
583.199	15828
583.538	15794
583.876	15709
584.215	15558
584.553	15334
584.891	15043
585.230	14690
585.568	14302
585.906	13909
586.245	13555
586.583	13250
586.921	12997
587.259	12768
587.597	12538
587.935	12298
588.273	12053
588.611	11824
588.949	11621
589.287	11449
589.625	11312
589.963	11202
590.300	11112
590.638	11030
590.976	10939
591.313	10834
591.651	10734
591.989	10646
592.326	10575
592.664	10513
593.001	10461
593.338	10427
593.676	10408
594.013	10409
594.350	10441
594.687	10501
595.025	10568
595.362	10629
595.699	10670
596.036	10693
596.373	10693
596.710	10666
597.047	10621
597.384	10566
597.720	10505
598.057	10456
598.394	10419
598.731	10396
599.067	10389
599.404	10402
599.741	10438
600.077	10492
600.414	10554
600.750	10619
601.087	10666
601.423	10687
601.759	10684
602.096	10660
602.432	10624
602.768	10573
603.104	10502
603.440	10416
603.776	10324
604.112	10224
604.448	10125
604.784	10020
605.120	9908
605.456	9799
605.792	9687
606.128	9568
606.463	9447
606.799	9326
607.135	9215
607.470	9105
607.806	8995
608.142	8889
608.477	8786
608.812	8687
609.148	8588
609.483	8483
609.819	8377
610.154	8275
610.489	8182
610.824	8099
611.159	8029
611.494	7959
611.830	7896
612.165	7835
612.500	7767
612.834	7688
613.169	7600
613.504	7503
613.839	7396
614.174	7275
614.509	7153
614.843	7032
615.178	6917
615.512	6803
615.847	6691
616.182	6580
616.516	6468
616.850	6349
617.185	6226
617.519	6102
617.853	5968
618.188	5831
618.522	5704
618.856	5597
619.190	5503
619.524	5420
619.858	5354
620.192	5301
620.526	5254
620.860	5207
621.194	5162
621.528	5119
621.862	5075
622.195	5023
622.529	4967
622.863	4910
623.196	4852
623.530	4795
623.864	4737
624.197	4679
624.530	4622
624.864	4571
625.197	4517
625.531	4458
625.864	4386
626.197	4309
626.530	4226
626.863	4134
627.196	4032
627.529	3930
627.862	3830
628.195	3730
628.528	3631
628.861	3537
629.194	3453
629.527	3372
629.860	3292
630.192	3215
630.525	3142
630.858	3074
631.190	3009
631.523	2946
631.855	2888
632.188	2838
632.520	2790
632.852	2744
633.185	2698
633.517	2653
633.849	2613
634.182	2577
634.514	2541
634.846	2510
635.178	2482
635.510	2458
635.842	2435
636.174	2413
636.506	2391
636.837	2370
637.169	2348
637.501	2325
637.833	2300
638.164	2272
638.496	2242
638.828	2207
639.159	2168
639.491	2126
639.822	2083
640.154	2039
640.485	1996
640.816	1953
641.147	1911
641.479	1871
641.810	1831
642.141	1793
642.472	1755
642.803	1718
643.134	1683
643.465	1653
643.796	1628
644.127	1611
644.458	1601
644.789	1601
645.119	1609
645.450	1624
645.781	1640
646.111	1656
646.442	1670
646.773	1681
647.103	1689
647.433	1696
647.764	1704
648.094	1715
648.425	1728
648.755	1744
649.085	1763
649.415	1783
649.745	1804
650.075	1824
650.405	1848
650.735	1901
651.065	2283
651.395	3471
651.725	5464
652.055	8045
652.385	11014
652.715	14263
653.044	17705
653.374	20848
653.704	23299
654.033	25023
654.363	26206
654.692	26993
655.022	27506
655.351	27844
655.680	28055
656.010	28169
656.339	28220
656.668	28233
656.997	28227
657.326	28206
657.655	28147
657.984	27752
658.313	26545
658.642	24526
658.971	21912
659.300	18908
659.629	15623
659.958	12147
660.286	8974
660.615	6497
660.944	4753
661.272	3551
661.601	2747
661.929	2215
662.258	1855
662.586	1619
662.915	1475
663.243	1392
663.571	1344
663.899	1316
664.228	1298
664.556	1286
664.884	1278
665.212	1273
665.540	1268
665.868	1267
666.196	1265
666.524	1265
666.852	1266
667.179	1270
667.507	1280
667.835	1294
668.162	1313
668.490	1336
668.818	1363
669.145	1392
669.473	1420
669.800	1446
670.127	1469
670.455	1488
670.782	1504
671.109	1519
671.436	1530
671.764	1540
672.091	1548
672.418	1555
672.745	1560
673.072	1566
673.399	1573
673.726	1580
674.053	1586
674.379	1588
674.706	1587
675.033	1586
675.359	1583
675.686	1580
676.013	1578
676.339	1579
676.666	1585
676.992	1596
677.318	1612
677.645	1632
677.971	1649
678.297	1665
678.624	1680
678.950	1694
679.276	1708
679.602	1721
679.928	1735
680.254	1753
680.580	1775
680.906	1803
681.232	1837
681.558	1873
681.883	1908
682.209	1941
682.535	1972
682.860	2000
683.186	2023
683.511	2042
683.837	2053
684.162	2063
684.488	2070
684.813	2077
685.138	2085
685.464	2091
685.789	2097
686.114	2102
686.439	2109
686.764	2116
687.089	2122
687.414	2122
687.739	2115
688.064	2103
688.389	2087
688.714	2068
689.039	2047
689.363	2025
689.688	2002
690.013	1979
690.337	1958
690.662	1941
690.986	1926
691.311	1910
691.635	1895
691.959	1880
692.284	1871
692.608	1868
692.932	1872
693.256	1878
693.580	1886
693.904	1896
694.228	1908
694.552	1919
694.876	1924
695.200	1922
695.524	1914
695.848	1902
696.172	1887
696.495	1871
696.819	1854
697.143	1837
697.466	1819
697.790	1804
698.113	1794
698.437	1789
698.760	1788
699.083	1787
699.407	1781
699.730	1772
700.053	1758
700.376	1737
700.699	1709
701.022	1673
701.345	1635
701.668	1600
701.991	1570
702.314	1549
702.637	1540
702.960	1543
703.283	1560
703.605	1588
703.928	1626
704.251	1669
704.573	1713
704.896	1751
705.218	1783
705.540	1808
705.863	1828
706.185	1845
706.507	1859
706.830	1873
707.152	1887
707.474	1903
707.796	1920
708.118	1938
708.440	1955
708.762	1970
709.084	1982
709.406	1988
709.728	1989
710.049	1985
710.371	1977
710.693	1963
711.014	1949
711.336	1935
711.658	1922
711.979	1911
712.301	1901
712.622	1890
712.943	1876
713.265	1860
713.586	1844
713.907	1827
714.228	1813
714.549	1801
714.870	1794
715.191	1790
715.512	1790
715.833	1787
716.154	1782
716.475	1774
716.796	1763
717.117	1746
717.437	1727
717.758	1705
718.078	1682
718.399	1660
718.719	1641
719.040	1624
719.360	1611
719.681	1601
720.001	1595
720.321	1592
720.642	1591
720.962	1592
721.282	1596
721.602	1600
721.922	1606
722.242	1613
722.562	1623
722.882	1636
723.202	1647
723.521	1657
723.841	1668
724.161	1679
724.481	1689
724.800	1701
725.120	1716
725.439	1734
725.759	1754
726.078	1777
726.398	1804
726.717	1839
727.036	1878
727.355	1919
727.675	1959
727.994	1998
728.313	2034
728.632	2066
728.951	2092
729.270	2114
729.589	2136
729.908	2162
730.226	2191
730.545	2224
730.864	2260
731.182	2299
731.501	2337
731.820	2373
732.138	2404
732.457	2432
732.775	2457
733.093	2478
733.412	2489
733.730	2492
734.048	2486
734.367	2474
734.685	2459
735.003	2441
735.321	2426
735.639	2414
735.957	2404
736.275	2394
736.593	2381
736.910	2361
737.228	2332
737.546	2295
737.863	2252
738.181	2205
738.499	2156
738.816	2108
739.134	2061
739.451	2012
739.768	1964
740.086	1918
740.403	1874
740.720	1834
741.038	1797
741.355	1761
741.672	1724
741.989	1687
742.306	1648
742.623	1609
742.940	1571
743.257	1535
743.573	1504
743.890	1479
744.207	1460
744.523	1447
744.840	1438
745.157	1433
745.473	1432
745.790	1437
746.106	1448
746.422	1464
746.739	1485
747.055	1511
747.371	1539
747.687	1569
748.004	1597
748.320	1622
748.636	1644
748.952	1666
749.268	1689
749.584	1709
749.899	1728
750.215	1748
750.531	1771
750.847	1795
751.162	1820
751.478	1845
751.793	1870
752.109	1897
752.424	1926
752.740	1956
753.055	1989
753.370	2030
753.686	2076
754.001	2127
754.316	2180
754.631	2236
754.946	2296
755.261	2359
755.576	2419
755.891	2478
756.206	2536
756.521	2597
756.836	2659
757.150	2719
757.465	2772
757.780	2817
758.094	2854
758.409	2883
758.723	2901
759.038	2908
759.352	2908
759.667	2899
759.981	2885
760.295	2870
760.609	2858
760.923	2851
761.238	2847
761.552	2844
761.866	2840
762.180	2834
762.493	2818
762.807	2788
763.121	2743
763.435	2686
763.749	2623
764.062	2565
764.376	2517
764.689	2483
765.003	2465
765.316	2463
765.630	2470
765.943	2484
766.257	2501
766.570	2514
766.883	2517
767.196	2510
767.509	2494
767.822	2470
768.135	2438
768.448	2404
768.761	2368
769.074	2338
769.387	2315
769.700	2300
770.013	2291
770.325	2284
770.638	2274
770.950	2255
771.263	2224
771.575	2181
771.888	2128
772.200	2066
772.513	1998
772.825	1926
773.137	1854
773.449	1783
773.761	1713
774.074	1648
774.386	1591
774.698	1543
775.010	1504
775.321	1475
775.633	1456
775.945	1446
776.257	1440
776.568	1438
776.880	1442
777.192	1453
777.503	1468
777.815	1488
778.126	1513
778.438	1543
778.749	1575
779.060	1607
779.372	1636
779.683	1665
779.994	1691
780.305	1711
780.616	1725
780.927	1734
781.238	1737
781.549	1733
781.860	1721
782.171	1705
782.481	1687
782.792	1669
783.103	1651
783.413	1632
783.724	1612
784.034	1593
784.345	1575
784.655	1559
784.966	1542
785.276	1524
785.586	1507
785.896	1489
786.207	1471
786.517	1452
786.827	1433
787.137	1415
787.447	1398
787.757	1382
788.066	1366
788.376	1352
788.686	1337
788.996	1321
789.305	1306
789.615	1294
789.925	1287
790.234	1285
790.544	1288
790.853	1294
791.162	1301
791.472	1307
791.781	1309
792.090	1306
792.399	1298
792.708	1286
793.017	1273
793.326	1259
793.635	1247
793.944	1235
794.253	1225
794.562	1218
794.871	1214
795.179	1211
795.488	1207
795.797	1201
796.105	1189
796.414	1172
796.722	1148
797.031	1117
797.339	1080
797.647	1039
797.956	995
798.264	955
798.572	921
798.880	896
799.188	876
799.496	862
799.804	852
800.112	844
800.420	837
800.728	831
801.035	822
801.343	812
801.651	804
801.958	802
802.266	806
802.573	812
802.881	821
803.188	832
803.496	844
803.803	856
804.110	867
804.417	877
804.724	885
805.032	893
805.339	900
805.646	905
805.953	907
806.259	908
806.566	907
806.873	903
807.180	898
807.486	894
807.793	888
808.100	879
808.406	864
808.713	845
809.019	822
809.326	799
809.632	776
809.938	756
810.244	737
810.551	721
810.857	708
811.163	696
811.469	684
811.775	671
812.081	657
812.387	645
812.692	635
812.998	627
813.304	621
813.610	616
813.915	612
814.221	609
814.526	606
814.832	603
815.137	600
815.443	597
815.748	590
816.053	582
816.358	574
816.664	567
816.969	561
817.274	555
817.579	550
817.884	547
818.189	546
818.493	546
818.798	544
819.103	541
819.408	536
819.712	530
820.017	523
820.321	516
820.626	509
820.930	502
821.235	498
821.539	496
821.843	496
822.148	498
822.452	499
822.756	498
823.060	496
823.364	493
823.668	489
823.972	484
824.276	479
824.580	474
824.883	472
825.187	471
825.491	471
825.795	472
826.098	472
826.402	471
826.705	469
827.008	466
827.312	461
827.615	453
827.918	444
828.222	433
828.525	422
828.828	413
829.131	402
829.434	392
829.737	382
830.040	375
830.343	369
830.645	364
830.948	358
831.251	353
831.553	349
831.856	345
832.159	341
832.461	336
832.764	331
833.066	327
833.368	323
833.671	320
833.973	318
834.275	316
834.577	314
834.879	312
835.181	309
835.483	305
835.785	301
836.087	295
836.389	289
836.690	282
836.992	274
837.294	266
837.595	258
837.897	249
838.198	240
838.500	232
838.801	225
839.103	219
839.404	213
839.705	209
840.006	204
840.307	201
840.608	199
840.910	197
841.210	196
841.511	195
841.812	193
842.113	191
842.414	188
842.715	185
843.015	181
843.316	177
843.616	174
843.917	171
844.217	168
844.518	165
844.818	163
845.118	162
845.419	161
845.719	160
846.019	159
846.319	159
846.619	158
846.919	158
847.219	157
847.519	156
847.819	155
848.118	155
848.418	157
848.718	162
849.017	170
849.317	180
849.616	194
849.916	209
850.215	225
850.515	244
850.814	261
851.113	278
851.412	292
851.712	306
852.011	318
852.310	330
852.609	340
852.908	348
853.206	357
853.505	364
853.804	370
854.103	375
854.401	380
854.700	382
854.999	380
855.297	376
855.595	368
855.894	357
856.192	344
856.491	330
856.789	313
857.087	297
857.385	281
857.683	267
857.981	255
858.279	243
858.577	232
858.875	222
859.173	215
859.471	208
859.768	203
860.066	199
860.363	195
860.661	192
860.959	189
861.256	187
861.553	184
861.851	180
862.148	177
862.445	173
862.742	170
863.039	167
863.337	165
863.634	164
863.931	163
864.227	162
864.524	162
864.821	162
865.118	162
865.415	161
865.711	158
866.008	155
866.304	152
866.601	150
866.897	147
867.194	145
867.490	144
867.786	143
868.082	143
868.379	143
868.675	144
868.971	144
869.267	144
869.563	144
869.859	144
870.154	143
870.450	142
870.746	141
871.042	140
871.337	140
871.633	140
871.928	141
872.224	142
872.519	144
872.815	144
873.110	145
873.405	145
873.700	144
873.995	144
874.291	144
874.586	144
874.881	145
875.175	147
875.470	149
875.765	152
876.060	154
876.355	157
876.649	161
876.944	164
877.238	166
877.533	169
877.827	171
878.122	172
878.416	173
878.710	173
879.005	173
879.299	172
879.593	171
879.887	170
880.181	170
880.475	169
880.769	168
881.063	166
881.356	164
881.650	162
881.944	159
882.238	136
882.531	127
882.825	124
883.118	131
883.412	130
883.705	132
883.998	129
884.291	132
884.585	135
884.878	142
>>>>>>>>>> END of Data <<<<<<<<<<