Date	2021年06月15日火曜日 04時25分22秒
Spectrometers	USB2+H05879
ダーク	使用
リファレンス	使用
積分時間[msec]	10
平均回数	280
ｽﾑｰｼﾞﾝｸﾞ	10
Electrical Dark	USE
ピクセル数	2048
計測モード	吸光度
保存開始波長[nm]	190.664
保存終了波長[nm]	884.878
保存ﾋﾟｯﾁ波長[nm]	全波長

>>>>>>>>>> Data Start <<<<<<<<<<<<
190.664	0.000000
191.040	0.000000
191.415	0.000000
191.791	-1.715713
192.166	-0.592494
192.542	-0.789820
192.917	0.000000
193.293	-0.341658
193.668	-0.421513
194.044	-1.031664
194.419	0.000000
194.794	-1.354649
195.170	-1.265238
195.545	-1.171235
195.920	-1.045657
196.296	-0.924199
196.671	-0.762632
197.046	-0.611877
197.421	-0.570315
197.796	-0.563155
198.171	-0.529705
198.546	-0.483294
198.922	-0.438075
199.297	-0.412520
199.672	-0.396040
200.047	-0.375467
200.422	-0.350864
200.796	-0.340266
201.171	-0.322850
201.546	-0.313602
201.921	-0.300511
202.296	-0.285932
202.671	-0.260458
203.045	-0.235647
203.420	-0.219360
203.795	-0.209612
204.170	-0.205249
204.544	-0.206577
204.919	-0.201469
205.294	-0.192285
205.668	-0.179953
206.043	-0.160237
206.417	-0.171379
206.792	-0.166239
207.166	-0.166171
207.541	-0.164076
207.915	-0.163095
208.289	-0.151553
208.664	-0.148771
209.038	-0.145523
209.412	-0.133481
209.787	-0.121405
210.161	-0.113252
210.535	-0.114348
210.909	-0.099682
211.284	-0.104713
211.658	-0.110207
212.032	-0.113092
212.406	-0.119984
212.780	-0.124009
213.154	-0.125241
213.528	-0.125927
213.902	-0.128232
214.276	-0.112516
214.650	-0.106874
215.024	-0.106449
215.398	-0.100058
215.772	-0.095465
216.145	-0.097597
216.519	-0.089421
216.893	-0.090614
217.267	-0.096163
217.640	-0.101969
218.014	-0.095557
218.388	-0.087849
218.761	-0.107142
219.135	-0.094056
219.508	-0.095826
219.882	-0.099263
220.256	-0.093563
220.629	-0.089886
221.003	-0.088772
221.376	-0.087101
221.749	-0.092173
222.123	-0.098986
222.496	-0.104271
222.869	-0.096453
223.243	-0.092834
223.616	-0.089159
223.989	-0.085426
224.362	-0.082170
224.736	-0.079062
225.109	-0.079322
225.482	-0.082547
225.855	-0.083507
226.228	-0.085053
226.601	-0.077054
226.974	-0.076880
227.347	-0.063012
227.720	-0.056499
228.093	-0.053243
228.466	-0.048063
228.839	-0.052198
229.212	-0.058962
229.585	-0.064396
229.957	-0.058702
230.330	-0.060699
230.703	-0.051299
231.076	-0.057660
231.448	-0.063942
231.821	-0.062824
232.194	-0.063382
232.566	-0.071957
232.939	-0.075871
233.311	-0.076012
233.684	-0.079997
234.056	-0.081906
234.429	-0.081663
234.801	-0.078469
235.174	-0.080331
235.546	-0.084366
235.918	-0.086960
236.291	-0.092557
236.663	-0.080473
237.035	-0.077620
237.408	-0.066122
237.780	-0.060030
238.152	-0.055087
238.524	-0.069190
238.896	-0.068300
239.268	-0.063637
239.641	-0.067813
240.013	-0.065160
240.385	-0.057525
240.757	-0.051445
241.129	-0.043627
241.500	-0.042456
241.872	-0.044803
242.244	-0.043148
242.616	-0.049579
242.988	-0.045943
243.360	-0.036206
243.731	-0.025847
244.103	-0.021669
244.475	-0.024495
244.847	-0.020246
245.218	-0.017493
245.590	-0.015048
245.961	-0.011467
246.333	-0.004805
246.705	-0.005753
247.076	-0.001975
247.448	0.005506
247.819	0.006448
248.190	0.018431
248.562	0.017788
248.933	0.015046
249.305	0.016686
249.676	0.025505
250.047	0.019549
250.418	0.027928
250.790	0.019947
251.161	0.018208
251.532	0.013172
251.903	0.011945
252.274	0.021063
252.645	0.029172
253.016	0.023823
253.387	0.014467
253.758	0.005491
254.129	-0.002123
254.500	0.004202
254.871	0.006488
255.242	0.000011
255.613	-0.004323
255.984	-0.011986
256.355	-0.006493
256.725	-0.005564
257.096	-0.008520
257.467	-0.013601
257.838	-0.009960
258.208	-0.016780
258.579	-0.015368
258.949	-0.011812
259.320	-0.009277
259.690	0.000522
260.061	-0.001971
260.431	-0.004285
260.802	-0.002947
261.172	0.002720
261.543	0.009047
261.913	0.019246
262.283	0.016804
262.654	0.010997
263.024	0.015542
263.394	0.021855
263.764	0.022453
264.135	0.015638
264.505	0.016855
264.875	0.020261
265.245	0.021848
265.615	0.020117
265.985	0.023242
266.355	0.029475
266.725	0.023010
267.095	0.023267
267.465	0.015967
267.835	0.005894
268.205	0.003828
268.575	0.007820
268.944	0.003974
269.314	0.000734
269.684	0.000154
270.054	-0.006903
270.423	-0.005428
270.793	-0.008025
271.163	-0.006808
271.532	-0.006633
271.902	0.000267
272.271	0.001360
272.641	0.004200
273.010	0.001477
273.380	0.003566
273.749	0.004023
274.119	0.003142
274.488	0.007636
274.857	0.012043
275.227	0.009861
275.596	0.014903
275.965	0.017514
276.335	0.013337
276.704	0.012289
277.073	0.013077
277.442	0.017343
277.811	0.027746
278.180	0.032945
278.549	0.037028
278.918	0.032907
279.287	0.035952
279.656	0.033379
280.025	0.036419
280.394	0.031693
280.763	0.037230
281.132	0.040009
281.501	0.041764
281.869	0.038006
282.238	0.034084
282.607	0.028978
282.976	0.032446
283.344	0.034677
283.713	0.030776
284.081	0.036035
284.450	0.044903
284.819	0.047419
285.187	0.049339
285.556	0.049468
285.924	0.043418
286.292	0.036041
286.661	0.034486
287.029	0.027450
287.398	0.031774
287.766	0.027816
288.134	0.034421
288.502	0.036202
288.871	0.038753
289.239	0.039509
289.607	0.041848
289.975	0.041728
290.343	0.045678
290.711	0.047604
291.079	0.047501
291.447	0.055269
291.815	0.051559
292.183	0.055860
292.551	0.058230
292.919	0.057927
293.287	0.058469
293.655	0.069657
294.022	0.076908
294.390	0.085785
294.758	0.091881
295.126	0.088903
295.493	0.090644
295.861	0.087227
296.229	0.086013
296.596	0.088947
296.964	0.087703
297.331	0.098797
297.699	0.104837
298.066	0.107637
298.434	0.109741
298.801	0.113407
299.168	0.109877
299.536	0.115082
299.903	0.112118
300.270	0.118842
300.638	0.125813
301.005	0.131893
301.372	0.131893
301.739	0.137058
302.106	0.143646
302.473	0.155495
302.840	0.169424
303.207	0.188684
303.574	0.203601
303.941	0.217993
304.308	0.225554
304.675	0.236716
305.042	0.244579
305.409	0.263874
305.776	0.274894
306.143	0.290919
306.509	0.313778
306.876	0.340159
307.243	0.361574
307.610	0.383151
307.976	0.401901
308.343	0.420896
308.709	0.446153
309.076	0.471857
309.442	0.496724
309.809	0.519147
310.175	0.546379
310.542	0.564332
310.908	0.580728
311.275	0.604172
311.641	0.626664
312.007	0.652456
312.373	0.676852
312.740	0.699574
313.106	0.719944
313.472	0.749247
313.838	0.772788
314.204	0.786151
314.570	0.801573
314.936	0.819373
315.302	0.834709
315.668	0.852488
316.034	0.874314
316.400	0.891593
316.766	0.905640
317.132	0.921720
317.498	0.932463
317.864	0.940748
318.230	0.953170
318.595	0.964546
318.961	0.976375
319.327	0.985571
319.692	0.992995
320.058	0.999908
320.424	1.007676
320.789	1.016228
321.155	1.020687
321.520	1.026542
321.886	1.033879
322.251	1.038971
322.616	1.044040
322.982	1.049590
323.347	1.051710
323.712	1.055351
324.078	1.058375
324.443	1.059437
324.808	1.062515
325.173	1.066760
325.539	1.069230
325.904	1.070619
326.269	1.074047
326.634	1.074290
326.999	1.075107
327.364	1.075870
327.729	1.077375
328.094	1.078850
328.459	1.079430
328.823	1.079743
329.188	1.080030
329.553	1.079733
329.918	1.081298
330.283	1.081621
330.647	1.082034
331.012	1.082780
331.377	1.082042
331.741	1.080853
332.106	1.082141
332.470	1.081770
332.835	1.080900
333.199	1.080483
333.564	1.081173
333.928	1.080932
334.293	1.080901
334.657	1.080859
335.021	1.081780
335.386	1.081360
335.750	1.080619
336.114	1.079623
336.478	1.079963
336.843	1.079940
337.207	1.079705
337.571	1.078969
337.935	1.078415
338.299	1.078361
338.663	1.077349
339.027	1.077579
339.391	1.077537
339.755	1.077244
340.119	1.076565
340.483	1.076478
340.846	1.076904
341.210	1.076654
341.574	1.076249
341.938	1.076246
342.301	1.076697
342.665	1.076629
343.029	1.077371
343.392	1.077848
343.756	1.078273
344.119	1.078361
344.483	1.078499
344.846	1.078950
345.210	1.079717
345.573	1.080172
345.937	1.080333
346.300	1.081296
346.663	1.081401
347.027	1.081998
347.390	1.082050
347.753	1.082209
348.116	1.082578
348.479	1.083210
348.843	1.083106
349.206	1.083114
349.569	1.083441
349.932	1.084048
350.295	1.084207
350.658	1.084298
351.021	1.084821
351.383	1.085275
351.746	1.085342
352.109	1.086057
352.472	1.086709
352.835	1.086725
353.197	1.087370
353.560	1.088047
353.923	1.088358
354.285	1.088490
354.648	1.088836
355.011	1.089540
355.373	1.090593
355.736	1.091422
356.098	1.091553
356.461	1.092897
356.823	1.093483
357.185	1.094144
357.548	1.094174
357.910	1.094558
358.272	1.094891
358.635	1.094804
358.997	1.094941
359.359	1.095877
359.721	1.095974
360.083	1.096743
360.445	1.097587
360.807	1.097998
361.169	1.098114
361.531	1.098677
361.893	1.099438
362.255	1.100223
362.617	1.100707
362.979	1.101183
363.341	1.101116
363.703	1.101689
364.064	1.102171
364.426	1.103017
364.788	1.103540
365.149	1.104549
365.511	1.105240
365.873	1.106099
366.234	1.106842
366.596	1.107815
366.957	1.108288
367.319	1.109103
367.680	1.109352
368.042	1.109189
368.403	1.109902
368.764	1.110825
369.126	1.111238
369.487	1.111796
369.848	1.112220
370.209	1.112962
370.570	1.113130
370.931	1.114267
371.293	1.114576
371.654	1.114762
372.015	1.115509
372.376	1.116088
372.737	1.116309
373.098	1.116844
373.458	1.117185
373.819	1.118263
374.180	1.119358
374.541	1.119949
374.902	1.120331
375.263	1.120868
375.623	1.121790
375.984	1.122644
376.345	1.123207
376.705	1.124145
377.066	1.125069
377.426	1.125457
377.787	1.125780
378.147	1.126657
378.508	1.126796
378.868	1.127502
379.228	1.127781
379.589	1.128092
379.949	1.128538
380.309	1.129316
380.670	1.129908
381.030	1.130220
381.390	1.130509
381.750	1.130194
382.110	1.130229
382.470	1.130701
382.830	1.131098
383.190	1.131441
383.550	1.131493
383.910	1.131744
384.270	1.131916
384.630	1.132145
384.990	1.132929
385.350	1.133505
385.709	1.133672
386.069	1.133918
386.429	1.134252
386.788	1.134842
387.148	1.135176
387.508	1.135306
387.867	1.135199
388.227	1.135102
388.586	1.135380
388.946	1.135401
389.305	1.135863
389.665	1.136408
390.024	1.136675
390.383	1.136815
390.743	1.136936
391.102	1.136802
391.461	1.136700
391.820	1.136607
392.179	1.136297
392.539	1.136077
392.898	1.135966
393.257	1.135915
393.616	1.136397
393.975	1.136223
394.334	1.136259
394.693	1.136137
395.051	1.136256
395.410	1.136298
395.769	1.136571
396.128	1.136468
396.487	1.136264
396.845	1.135589
397.204	1.135140
397.563	1.134387
397.921	1.133737
398.280	1.133214
398.638	1.132512
398.997	1.131971
399.355	1.131366
399.714	1.130668
400.072	1.129716
400.431	1.128613
400.789	1.127559
401.147	1.126441
401.506	1.125440
401.864	1.124437
402.222	1.123453
402.580	1.122213
402.938	1.121128
403.297	1.119729
403.655	1.118624
404.013	1.117279
404.371	1.116488
404.729	1.115212
405.087	1.114019
405.444	1.113028
405.802	1.111916
406.160	1.111180
406.518	1.110128
406.876	1.108822
407.233	1.107798
407.591	1.106904
407.949	1.105829
408.306	1.104928
408.664	1.103633
409.022	1.102551
409.379	1.101232
409.737	1.099758
410.094	1.098573
410.451	1.097327
410.809	1.096203
411.166	1.094816
411.523	1.093820
411.881	1.092558
412.238	1.091273
412.595	1.089950
412.952	1.088531
413.310	1.087461
413.667	1.086189
414.024	1.084817
414.381	1.083847
414.738	1.082281
415.095	1.080656
415.452	1.079353
415.809	1.077922
416.165	1.076731
416.522	1.075151
416.879	1.073528
417.236	1.071958
417.593	1.070279
417.949	1.068341
418.306	1.066628
418.663	1.065448
419.019	1.063863
419.376	1.062257
419.732	1.060797
420.089	1.059813
420.445	1.058506
420.802	1.057072
421.158	1.055443
421.514	1.053992
421.871	1.052391
422.227	1.050789
422.583	1.049420
422.939	1.047649
423.295	1.046014
423.652	1.044148
424.008	1.042372
424.364	1.040640
424.720	1.039205
425.076	1.037363
425.432	1.035861
425.788	1.033882
426.143	1.031788
426.499	1.029826
426.855	1.027912
427.211	1.026065
427.567	1.024040
427.922	1.022172
428.278	1.019731
428.634	1.017824
428.989	1.015865
429.345	1.013800
429.700	1.011980
430.056	1.009942
430.411	1.008289
430.767	1.006415
431.122	1.004402
431.478	1.002356
431.833	1.000437
432.188	0.997988
432.543	0.996024
432.899	0.993636
433.254	0.991560
433.609	0.989250
433.964	0.986962
434.319	0.984469
434.674	0.982042
435.029	0.979460
435.384	0.976963
435.739	0.974747
436.094	0.972568
436.449	0.970418
436.804	0.968105
437.158	0.965625
437.513	0.963290
437.868	0.960762
438.223	0.958333
438.577	0.955881
438.932	0.953669
439.287	0.951271
439.641	0.949015
439.996	0.946493
440.350	0.944084
440.704	0.941838
441.059	0.939420
441.413	0.936883
441.768	0.934434
442.122	0.931985
442.476	0.929519
442.830	0.927157
443.185	0.924778
443.539	0.922310
443.893	0.919782
444.247	0.917314
444.601	0.914957
444.955	0.912461
445.309	0.909818
445.663	0.907105
446.017	0.904471
446.371	0.901689
446.724	0.898960
447.078	0.896225
447.432	0.893601
447.786	0.891041
448.139	0.888027
448.493	0.885437
448.847	0.882659
449.200	0.879885
449.554	0.877130
449.907	0.874378
450.261	0.871402
450.614	0.868615
450.968	0.865713
451.321	0.862926
451.674	0.860018
452.027	0.857153
452.381	0.854189
452.734	0.851398
453.087	0.848677
453.440	0.845796
453.793	0.842921
454.146	0.839979
454.499	0.837212
454.852	0.834287
455.205	0.831445
455.558	0.828874
455.911	0.826086
456.264	0.823384
456.617	0.820777
456.970	0.818153
457.322	0.815779
457.675	0.813452
458.028	0.811015
458.380	0.808673
458.733	0.806276
459.086	0.804055
459.438	0.801675
459.791	0.799431
460.143	0.796969
460.496	0.794473
460.848	0.792018
461.200	0.789694
461.553	0.787331
461.905	0.785000
462.257	0.782630
462.609	0.780262
462.961	0.777944
463.314	0.775721
463.666	0.773521
464.018	0.771224
464.370	0.769104
464.722	0.766927
465.074	0.764740
465.426	0.762750
465.777	0.760818
466.129	0.758906
466.481	0.756951
466.833	0.755104
467.184	0.753189
467.536	0.751250
467.888	0.749244
468.239	0.747067
468.591	0.744634
468.943	0.742240
469.294	0.739820
469.646	0.737359
469.997	0.734855
470.348	0.732401
470.700	0.729933
471.051	0.727731
471.402	0.725513
471.754	0.723319
472.105	0.721129
472.456	0.719132
472.807	0.717064
473.158	0.715095
473.509	0.713165
473.860	0.711302
474.211	0.709460
474.562	0.707562
474.913	0.705773
475.264	0.703939
475.615	0.702209
475.966	0.700536
476.316	0.698863
476.667	0.697034
477.018	0.695283
477.368	0.693489
477.719	0.691752
478.070	0.690090
478.420	0.688330
478.771	0.686696
479.121	0.684991
479.472	0.683308
479.822	0.681608
480.172	0.679932
480.523	0.678130
480.873	0.676056
481.223	0.673613
481.573	0.671165
481.924	0.668768
482.274	0.666413
482.624	0.664394
482.974	0.662579
483.324	0.661211
483.674	0.660044
484.024	0.658983
484.374	0.657974
484.724	0.656975
485.073	0.655933
485.423	0.654889
485.773	0.653807
486.123	0.652708
486.472	0.651637
486.822	0.650563
487.172	0.649535
487.521	0.648430
487.871	0.647352
488.220	0.646292
488.570	0.645245
488.919	0.643965
489.268	0.642491
489.618	0.640857
489.967	0.638967
490.316	0.636824
490.666	0.634339
491.015	0.631891
491.364	0.629661
491.713	0.627518
492.062	0.625601
492.411	0.623760
492.760	0.621972
493.109	0.620253
493.458	0.618648
493.807	0.616966
494.156	0.615234
494.505	0.613440
494.853	0.611728
495.202	0.610000
495.551	0.608324
495.900	0.606637
496.248	0.604842
496.597	0.603148
496.945	0.601517
497.294	0.599877
497.642	0.598281
497.991	0.596654
498.339	0.594966
498.688	0.593419
499.036	0.591948
499.384	0.590421
499.732	0.588825
500.081	0.587245
500.429	0.585653
500.777	0.584052
501.125	0.582505
501.473	0.581048
501.821	0.579576
502.169	0.578138
502.517	0.576683
502.865	0.575227
503.213	0.573757
503.561	0.572458
503.908	0.571057
504.256	0.569636
504.604	0.568154
504.952	0.566650
505.299	0.565129
505.647	0.563688
505.994	0.562160
506.342	0.560617
506.689	0.559111
507.037	0.557755
507.384	0.556403
507.732	0.555064
508.079	0.553723
508.426	0.552427
508.774	0.551052
509.121	0.549755
509.468	0.548471
509.815	0.547201
510.162	0.545891
510.509	0.544637
510.856	0.543365
511.203	0.542160
511.550	0.540882
511.897	0.539727
512.244	0.538575
512.591	0.537351
512.938	0.536090
513.284	0.534864
513.631	0.533694
513.978	0.532521
514.324	0.531260
514.671	0.529962
515.018	0.528697
515.364	0.527411
515.711	0.526115
516.057	0.524911
516.403	0.523678
516.750	0.522472
517.096	0.521303
517.443	0.520176
517.789	0.519064
518.135	0.517909
518.481	0.516739
518.827	0.515699
519.173	0.514511
519.519	0.513366
519.865	0.512261
520.211	0.511275
520.557	0.510079
520.903	0.508902
521.249	0.507706
521.595	0.506555
521.941	0.505335
522.287	0.504179
522.632	0.502965
522.978	0.501750
523.324	0.500517
523.669	0.499346
524.015	0.498068
524.360	0.496763
524.706	0.495539
525.051	0.494198
525.397	0.492917
525.742	0.491589
526.087	0.490336
526.433	0.489136
526.778	0.487956
527.123	0.486818
527.468	0.485527
527.813	0.484378
528.158	0.483152
528.504	0.481928
528.849	0.480586
529.193	0.479372
529.538	0.478032
529.883	0.476640
530.228	0.475273
530.573	0.473894
530.918	0.472500
531.263	0.471278
531.607	0.469996
531.952	0.468693
532.296	0.467470
532.641	0.466219
532.986	0.464963
533.330	0.463654
533.675	0.462348
534.019	0.460959
534.363	0.459562
534.708	0.458229
535.052	0.456855
535.396	0.455522
535.741	0.454207
536.085	0.452898
536.429	0.451500
536.773	0.450109
537.117	0.448685
537.461	0.447243
537.805	0.445714
538.149	0.444112
538.493	0.442423
538.837	0.440871
539.181	0.439242
539.524	0.437536
539.868	0.435898
540.212	0.434172
540.556	0.432444
540.899	0.430822
541.243	0.429207
541.586	0.427610
541.930	0.425977
542.273	0.424286
542.617	0.422545
542.960	0.420754
543.304	0.418929
543.647	0.417083
543.990	0.415152
544.333	0.413243
544.677	0.411366
545.020	0.409529
545.363	0.407729
545.706	0.405994
546.049	0.404151
546.392	0.402336
546.735	0.400522
547.078	0.398636
547.421	0.396787
547.764	0.394824
548.106	0.392755
548.449	0.390659
548.792	0.388567
549.135	0.386413
549.477	0.384354
549.820	0.382403
550.162	0.380408
550.505	0.378391
550.847	0.376321
551.190	0.374247
551.532	0.372099
551.875	0.369835
552.217	0.367492
552.559	0.365214
552.901	0.362868
553.244	0.360622
553.586	0.358440
553.928	0.356361
554.270	0.354305
554.612	0.352310
554.954	0.350314
555.296	0.348183
555.638	0.346046
555.980	0.343707
556.322	0.341359
556.663	0.338878
557.005	0.336327
557.347	0.333807
557.689	0.331368
558.030	0.329040
558.372	0.326652
558.713	0.324295
559.055	0.321965
559.396	0.319639
559.738	0.317197
560.079	0.314775
560.421	0.312383
560.762	0.310050
561.103	0.307702
561.444	0.305380
561.786	0.303067
562.127	0.300815
562.468	0.298543
562.809	0.296174
563.150	0.293787
563.491	0.291346
563.832	0.288791
564.173	0.286109
564.514	0.283402
564.855	0.280561
565.195	0.277615
565.536	0.274764
565.877	0.271902
566.218	0.269100
566.558	0.266433
566.899	0.263878
567.239	0.261488
567.580	0.259276
567.920	0.257275
568.261	0.255447
568.601	0.253717
568.941	0.252066
569.282	0.250503
569.622	0.248976
569.962	0.247429
570.302	0.245911
570.643	0.244452
570.983	0.243126
571.323	0.241879
571.663	0.240661
572.003	0.239463
572.343	0.238250
572.683	0.236915
573.022	0.235538
573.362	0.234087
573.702	0.232597
574.042	0.231166
574.381	0.229771
574.721	0.228406
575.061	0.227113
575.400	0.225909
575.740	0.224724
576.079	0.223530
576.419	0.222247
576.758	0.220889
577.097	0.219462
577.437	0.217976
577.776	0.216441
578.115	0.214908
578.454	0.213444
578.794	0.212183
579.133	0.211072
579.472	0.210104
579.811	0.209207
580.150	0.208320
580.489	0.207411
580.828	0.206425
581.167	0.205393
581.505	0.204331
581.844	0.203266
582.183	0.202159
582.522	0.201070
582.860	0.200014
583.199	0.199021
583.538	0.198106
583.876	0.197220
584.215	0.196384
584.553	0.195565
584.891	0.194771
585.230	0.193958
585.568	0.193104
585.906	0.192136
586.245	0.191128
586.583	0.190096
586.921	0.189186
587.259	0.188361
587.597	0.187604
587.935	0.186827
588.273	0.185942
588.611	0.184973
588.949	0.183923
589.287	0.182837
589.625	0.181728
589.963	0.180698
590.300	0.179727
590.638	0.178812
590.976	0.177940
591.313	0.177065
591.651	0.176152
591.989	0.175261
592.326	0.174396
592.664	0.173621
593.001	0.172877
593.338	0.172213
593.676	0.171611
594.013	0.170988
594.350	0.170393
594.687	0.169799
595.025	0.169262
595.362	0.168738
595.699	0.168162
596.036	0.167636
596.373	0.167075
596.710	0.166516
597.047	0.165915
597.384	0.165302
597.720	0.164668
598.057	0.164052
598.394	0.163432
598.731	0.162810
599.067	0.162175
599.404	0.161508
599.741	0.160871
600.077	0.160254
600.414	0.159706
600.750	0.159228
601.087	0.158784
601.423	0.158306
601.759	0.157823
602.096	0.157329
602.432	0.156884
602.768	0.156426
603.104	0.155942
603.440	0.155484
603.776	0.155032
604.112	0.154583
604.448	0.154164
604.784	0.153790
605.120	0.153378
605.456	0.152985
605.792	0.152634
606.128	0.152264
606.463	0.151926
606.799	0.151525
607.135	0.151150
607.470	0.150757
607.806	0.150322
608.142	0.149898
608.477	0.149536
608.812	0.149185
609.148	0.148842
609.483	0.148455
609.819	0.148101
610.154	0.147720
610.489	0.147312
610.824	0.146914
611.159	0.146536
611.494	0.146147
611.830	0.145777
612.165	0.145515
612.500	0.145247
612.834	0.144966
613.169	0.144719
613.504	0.144425
613.839	0.144152
614.174	0.143810
614.509	0.143495
614.843	0.143191
615.178	0.142899
615.512	0.142611
615.847	0.142313
616.182	0.142079
616.516	0.141870
616.850	0.141646
617.185	0.141414
617.519	0.141199
617.853	0.140994
618.188	0.140702
618.522	0.140358
618.856	0.140007
619.190	0.139587
619.524	0.139207
619.858	0.138842
620.192	0.138489
620.526	0.138208
620.860	0.137944
621.194	0.137687
621.528	0.137403
621.862	0.137129
622.195	0.136883
622.529	0.136541
622.863	0.136266
623.196	0.135963
623.530	0.135655
623.864	0.135393
624.197	0.135162
624.530	0.134885
624.864	0.134597
625.197	0.134383
625.531	0.134173
625.864	0.133914
626.197	0.133645
626.530	0.133416
626.863	0.133165
627.196	0.132884
627.529	0.132616
627.862	0.132317
628.195	0.132039
628.528	0.131722
628.861	0.131365
629.194	0.131026
629.527	0.130759
629.860	0.130463
630.192	0.130119
630.525	0.129748
630.858	0.129378
631.190	0.129021
631.523	0.128672
631.855	0.128220
632.188	0.127814
632.520	0.127437
632.852	0.127072
633.185	0.126797
633.517	0.126449
633.849	0.126140
634.182	0.125866
634.514	0.125634
634.846	0.125447
635.178	0.125260
635.510	0.125076
635.842	0.124941
636.174	0.124787
636.506	0.124619
636.837	0.124390
637.169	0.124211
637.501	0.123976
637.833	0.123908
638.164	0.123695
638.496	0.123489
638.828	0.123262
639.159	0.122960
639.491	0.122714
639.822	0.122445
640.154	0.122039
640.485	0.121597
640.816	0.121148
641.147	0.120798
641.479	0.120355
641.810	0.119830
642.141	0.119391
642.472	0.118930
642.803	0.118442
643.134	0.117991
643.465	0.117559
643.796	0.117227
644.127	0.116829
644.458	0.116622
644.789	0.116208
645.119	0.115943
645.450	0.115916
645.781	0.116028
646.111	0.116248
646.442	0.116344
646.773	0.116438
647.103	0.116486
647.433	0.116542
647.764	0.116514
648.094	0.116374
648.425	0.116330
648.755	0.116409
649.085	0.116356
649.415	0.116409
649.745	0.116498
650.075	0.116559
650.405	0.116520
650.735	0.115185
651.065	0.106751
651.395	0.098951
651.725	0.086522
652.055	0.059251
652.385	0.043758
652.715	0.033759
653.044	0.026771
653.374	0.021642
653.704	0.017724
654.033	0.023891
654.363	0.029451
654.692	0.032686
655.022	0.034622
655.351	0.035807
655.680	0.036506
656.010	0.036892
656.339	0.037061
656.668	0.037101
656.997	0.037066
657.326	0.036992
657.655	0.036899
657.984	0.036431
658.313	0.033746
658.642	0.030702
658.971	0.035628
659.300	0.041910
659.629	0.050209
659.958	0.061682
660.286	0.078590
660.615	0.105998
660.944	0.114532
661.272	0.113166
661.601	0.112294
661.929	0.111622
662.258	0.111199
662.586	0.110871
662.915	0.110427
663.243	0.109937
663.571	0.109380
663.899	0.108997
664.228	0.108577
664.556	0.108400
664.884	0.108180
665.212	0.107987
665.540	0.107905
665.868	0.107822
666.196	0.107721
666.524	0.107679
666.852	0.107628
667.179	0.107525
667.507	0.107484
667.835	0.107417
668.162	0.107357
668.490	0.107240
668.818	0.107325
669.145	0.107372
669.473	0.107485
669.800	0.107626
670.127	0.107732
670.455	0.107922
670.782	0.108058
671.109	0.108142
671.436	0.108149
671.764	0.108267
672.091	0.108284
672.418	0.108318
672.745	0.108348
673.072	0.108441
673.399	0.108490
673.726	0.108462
674.053	0.108366
674.379	0.108269
674.706	0.108277
675.033	0.108172
675.359	0.108160
675.686	0.107967
676.013	0.107826
676.339	0.107680
676.666	0.107463
676.992	0.107293
677.318	0.107155
677.645	0.107032
677.971	0.107045
678.297	0.107037
678.624	0.106991
678.950	0.106852
679.276	0.106748
679.602	0.106559
679.928	0.106296
680.254	0.106107
680.580	0.105983
680.906	0.105931
681.232	0.105891
681.558	0.106007
681.883	0.106150
682.209	0.106296
682.535	0.106407
682.860	0.106495
683.186	0.106543
683.511	0.106585
683.837	0.106502
684.162	0.106458
684.488	0.106438
684.813	0.106354
685.138	0.106229
685.464	0.106132
685.789	0.106058
686.114	0.105999
686.439	0.106017
686.764	0.106058
687.089	0.106068
687.414	0.106112
687.739	0.106187
688.064	0.106229
688.389	0.106126
688.714	0.106041
689.039	0.105870
689.363	0.105793
689.688	0.105614
690.013	0.105503
690.337	0.105446
690.662	0.105433
690.986	0.105426
691.311	0.105354
691.635	0.105346
691.959	0.105286
692.284	0.105158
692.608	0.105031
692.932	0.104989
693.256	0.104967
693.580	0.104996
693.904	0.105005
694.228	0.105024
694.552	0.105096
694.876	0.105155
695.200	0.105158
695.524	0.105100
695.848	0.105016
696.172	0.104886
696.495	0.104798
696.819	0.104640
697.143	0.104390
697.466	0.104194
697.790	0.103910
698.113	0.103668
698.437	0.103405
698.760	0.103276
699.083	0.103226
699.407	0.103204
699.730	0.103075
700.053	0.102988
700.376	0.102921
700.699	0.102736
701.022	0.102468
701.345	0.102000
701.668	0.101469
701.991	0.100982
702.314	0.100356
702.637	0.099809
702.960	0.099204
703.283	0.098802
703.605	0.098482
703.928	0.098325
704.251	0.098225
704.573	0.098173
704.896	0.098164
705.218	0.098105
705.540	0.097937
705.863	0.097683
706.185	0.097402
706.507	0.096999
706.830	0.096572
707.152	0.096012
707.474	0.095536
707.796	0.095096
708.118	0.094724
708.440	0.094475
708.762	0.094277
709.084	0.094181
709.406	0.094037
709.728	0.093972
710.049	0.093843
710.371	0.093713
710.693	0.093444
711.014	0.093133
711.336	0.092928
711.658	0.092715
711.979	0.092545
712.301	0.092372
712.622	0.092243
712.943	0.092144
713.265	0.092150
713.586	0.092065
713.907	0.092089
714.228	0.092160
714.549	0.092195
714.870	0.092271
715.191	0.092284
715.512	0.092262
715.833	0.092301
716.154	0.092315
716.475	0.092238
716.796	0.092134
717.117	0.091884
717.437	0.091619
717.758	0.091351
718.078	0.090963
718.399	0.090606
718.719	0.090193
719.040	0.089912
719.360	0.089743
719.681	0.089527
720.001	0.089320
720.321	0.089232
720.642	0.089088
720.962	0.088823
721.282	0.088686
721.602	0.088557
721.922	0.088475
722.242	0.088262
722.562	0.088056
722.882	0.087886
723.202	0.087869
723.521	0.087803
723.841	0.087758
724.161	0.087781
724.481	0.087820
724.800	0.087843
725.120	0.087763
725.439	0.087779
725.759	0.087767
726.078	0.087680
726.398	0.087655
726.717	0.087647
727.036	0.087613
727.355	0.087676
727.675	0.087829
727.994	0.087977
728.313	0.088115
728.632	0.088190
728.951	0.088305
729.270	0.088305
729.589	0.088225
729.908	0.088031
730.226	0.087859
730.545	0.087694
730.864	0.087477
731.182	0.087254
731.501	0.087085
731.820	0.087031
732.138	0.086977
732.457	0.086810
732.775	0.086751
733.093	0.086671
733.412	0.086594
733.730	0.086500
734.048	0.086358
734.367	0.086083
734.685	0.085837
735.003	0.085504
735.321	0.085188
735.639	0.084868
735.957	0.084614
736.275	0.084424
736.593	0.084405
736.910	0.084320
737.228	0.084300
737.546	0.084247
737.863	0.084230
738.181	0.084076
738.499	0.083861
738.816	0.083647
739.134	0.083452
739.451	0.083176
739.768	0.082933
740.086	0.082696
740.403	0.082410
740.720	0.082118
741.038	0.081907
741.355	0.081571
741.672	0.081236
741.989	0.080995
742.306	0.080695
742.623	0.080368
742.940	0.079936
743.257	0.079193
743.573	0.078618
743.890	0.078050
744.207	0.077534
744.523	0.077046
744.840	0.076631
745.157	0.076291
745.473	0.075878
745.790	0.075604
746.106	0.075249
746.422	0.074953
746.739	0.074590
747.055	0.074334
747.371	0.074121
747.687	0.074077
748.004	0.074019
748.320	0.074047
748.636	0.073932
748.952	0.073855
749.268	0.073887
749.584	0.073943
749.899	0.074033
750.215	0.074059
750.531	0.074021
750.847	0.074050
751.162	0.074059
751.478	0.074085
751.793	0.074047
752.109	0.073918
752.424	0.073822
752.740	0.073763
753.055	0.073758
753.370	0.073811
753.686	0.073969
754.001	0.074193
754.316	0.074341
754.631	0.074501
754.946	0.074595
755.261	0.074662
755.576	0.074809
755.891	0.074727
756.206	0.074599
756.521	0.074487
756.836	0.074403
757.150	0.074360
757.465	0.074363
757.780	0.074291
758.094	0.074304
758.409	0.074335
758.723	0.074417
759.038	0.074404
759.352	0.074376
759.667	0.074290
759.981	0.074141
760.295	0.073888
760.609	0.073589
760.923	0.073330
761.238	0.073029
761.552	0.072769
761.866	0.072543
762.180	0.072283
762.493	0.072196
762.807	0.072143
763.121	0.072087
763.435	0.071944
763.749	0.071723
764.062	0.071457
764.376	0.071203
764.689	0.070910
765.003	0.070585
765.316	0.070387
765.630	0.070318
765.943	0.070201
766.257	0.070067
766.570	0.069903
766.883	0.069695
767.196	0.069420
767.509	0.069005
767.822	0.068697
768.135	0.068372
768.448	0.068053
768.761	0.067686
769.074	0.067349
769.387	0.066996
769.700	0.066688
770.013	0.066429
770.325	0.066223
770.638	0.066064
770.950	0.065888
771.263	0.065670
771.575	0.065458
771.888	0.065101
772.200	0.064696
772.513	0.064239
772.825	0.063815
773.137	0.063457
773.449	0.063104
773.761	0.062774
774.074	0.062555
774.386	0.062230
774.698	0.061855
775.010	0.061450
775.321	0.061130
775.633	0.060770
775.945	0.060493
776.257	0.060273
776.568	0.060005
776.880	0.059825
777.192	0.059627
777.503	0.059477
777.815	0.059429
778.126	0.059374
778.438	0.059413
778.749	0.059489
779.060	0.059648
779.372	0.059708
779.683	0.059790
779.994	0.059880
780.305	0.059884
780.616	0.059984
780.927	0.060053
781.238	0.060071
781.549	0.060130
781.860	0.060217
782.171	0.060181
782.481	0.060264
782.792	0.060233
783.103	0.060263
783.413	0.060230
783.724	0.060073
784.034	0.060065
784.345	0.059861
784.655	0.059692
784.966	0.059470
785.276	0.059336
785.586	0.059120
785.896	0.059058
786.207	0.058899
786.517	0.058833
786.827	0.058857
787.137	0.058691
787.447	0.058505
787.757	0.058458
788.066	0.058402
788.376	0.058343
788.686	0.058351
788.996	0.058235
789.305	0.058095
789.615	0.058035
789.925	0.057944
790.234	0.057979
790.544	0.057886
790.853	0.057948
791.162	0.057935
791.472	0.058019
791.781	0.058039
792.090	0.058148
792.399	0.058043
792.708	0.057907
793.017	0.057771
793.326	0.057591
793.635	0.057533
793.944	0.057381
794.253	0.057181
794.562	0.056900
794.871	0.056698
795.179	0.056485
795.488	0.056306
795.797	0.056187
796.105	0.056012
796.414	0.055924
796.722	0.055727
797.031	0.055554
797.339	0.055276
797.647	0.054991
797.956	0.054452
798.264	0.053922
798.572	0.053406
798.880	0.052971
799.188	0.052594
799.496	0.052224
799.804	0.051969
800.112	0.051600
800.420	0.051448
800.728	0.051384
801.035	0.051374
801.343	0.050991
801.651	0.050640
801.958	0.050281
802.266	0.050166
802.573	0.050169
802.881	0.050035
803.188	0.049920
803.496	0.049950
803.803	0.050147
804.110	0.050253
804.417	0.050308
804.724	0.050177
805.032	0.050106
805.339	0.049994
805.646	0.049894
805.953	0.049679
806.259	0.049593
806.566	0.049497
806.873	0.049472
807.180	0.049312
807.486	0.049286
807.793	0.049367
808.100	0.049422
808.406	0.049452
808.713	0.049329
809.019	0.048965
809.326	0.048669
809.632	0.048421
809.938	0.047873
810.244	0.047282
810.551	0.046736
810.857	0.046373
811.163	0.046236
811.469	0.045999
811.775	0.045803
812.081	0.045747
812.387	0.045766
812.692	0.045626
812.998	0.045675
813.304	0.045585
813.610	0.045613
813.915	0.045420
814.221	0.045378
814.526	0.045400
814.832	0.045572
815.137	0.045537
815.443	0.045429
815.748	0.045455
816.053	0.045341
816.358	0.045274
816.664	0.045114
816.969	0.045046
817.274	0.045116
817.579	0.044986
817.884	0.044694
818.189	0.044691
818.493	0.044576
818.798	0.044503
819.103	0.044292
819.408	0.043967
819.712	0.043754
820.017	0.043430
820.321	0.043253
820.626	0.043014
820.930	0.042602
821.235	0.042052
821.539	0.041961
821.843	0.041988
822.148	0.041810
822.452	0.041930
822.756	0.042078
823.060	0.042202
823.364	0.042505
823.668	0.042539
823.972	0.042436
824.276	0.042708
824.580	0.042643
824.883	0.042783
825.187	0.042846
825.491	0.042957
825.795	0.043005
826.098	0.043089
826.402	0.043049
826.705	0.043216
827.008	0.043094
827.312	0.043125
827.615	0.043064
827.918	0.042836
828.222	0.042619
828.525	0.042541
828.828	0.042435
829.131	0.042372
829.434	0.042017
829.737	0.041308
830.040	0.040681
830.343	0.040140
830.645	0.039814
830.948	0.039590
831.251	0.039280
831.553	0.038946
831.856	0.038402
832.159	0.038641
832.461	0.038457
832.764	0.038451
833.066	0.038140
833.368	0.038247
833.671	0.038136
833.973	0.037832
834.275	0.037390
834.577	0.037196
834.879	0.036971
835.181	0.036373
835.483	0.035886
835.785	0.035466
836.087	0.035246
836.389	0.035109
836.690	0.034934
836.992	0.034212
837.294	0.033223
837.595	0.032088
837.897	0.031103
838.198	0.030681
838.500	0.029515
838.801	0.028620
839.103	0.028032
839.404	0.027401
839.705	0.026699
840.006	0.026266
840.307	0.026617
840.608	0.026756
840.910	0.026778
841.210	0.027095
841.511	0.027464
841.812	0.027562
842.113	0.028230
842.414	0.028091
842.715	0.027720
843.015	0.027604
843.316	0.027094
843.616	0.026892
843.917	0.027180
844.217	0.027396
844.518	0.027703
844.818	0.027215
845.118	0.027195
845.419	0.027342
845.719	0.027502
846.019	0.026907
846.319	0.027103
846.619	0.026887
846.919	0.027033
847.219	0.027160
847.519	0.026782
847.819	0.026682
848.118	0.026388
848.418	0.025511
848.718	0.025078
849.017	0.024985
849.317	0.024599
849.616	0.024939
849.916	0.025608
850.215	0.025971
850.515	0.026294
850.814	0.026783
851.113	0.027157
851.412	0.027665
851.712	0.027712
852.011	0.027500
852.310	0.028048
852.609	0.028201
852.908	0.028324
853.206	0.028513
853.505	0.028690
853.804	0.028744
854.103	0.028965
854.401	0.029040
854.700	0.029223
854.999	0.029343
855.297	0.029505
855.595	0.029758
855.894	0.029972
856.192	0.029992
856.491	0.029910
856.789	0.029717
857.087	0.029129
857.385	0.028857
857.683	0.028630
857.981	0.028274
858.279	0.028209
858.577	0.027532
858.875	0.027260
859.173	0.026621
859.471	0.026484
859.768	0.026216
860.066	0.025848
860.363	0.025252
860.661	0.024695
860.959	0.024501
861.256	0.024782
861.553	0.024532
861.851	0.024044
862.148	0.023161
862.445	0.022656
862.742	0.022495
863.039	0.022367
863.337	0.021924
863.634	0.021507
863.931	0.020701
864.227	0.020342
864.524	0.020168
864.821	0.020213
865.118	0.019314
865.415	0.019204
865.711	0.018480
866.008	0.017707
866.304	0.017208
866.601	0.017235
866.897	0.017050
867.194	0.016976
867.490	0.016778
867.786	0.016280
868.082	0.016699
868.379	0.016233
868.675	0.016580
868.971	0.016134
869.267	0.015897
869.563	0.016495
869.859	0.016811
870.154	0.016655
870.450	0.017084
870.746	0.016983
871.042	0.017353
871.337	0.017987
871.633	0.017921
871.928	0.018353
872.224	0.018238
872.519	0.018224
872.815	0.017918
873.110	0.018222
873.405	0.018109
873.700	0.017813
873.995	0.018043
874.291	0.017521
874.586	0.018704
874.881	0.018323
875.175	0.018536
875.470	0.018070
875.765	0.018200
876.060	0.018402
876.355	0.018620
876.649	0.018691
876.944	0.018951
877.238	0.018570
877.533	0.018499
877.827	0.019273
878.122	0.019396
878.416	0.019678
878.710	0.020584
879.005	0.020722
879.299	0.020359
879.593	0.020059
879.887	0.019849
880.181	0.019396
880.475	0.019698
880.769	0.019270
881.063	0.019741
881.356	0.019518
881.650	0.019888
881.944	0.019462
882.238	0.006590
882.531	0.016492
882.825	0.011979
883.118	0.001702
883.412	0.021097
883.705	0.015832
883.998	0.027994
884.291	0.012903
884.585	0.012523
884.878	0.013766
>>>>>>>>>> END of Data <<<<<<<<<<
>>>>>>>>>> Raw Data Start <<<<<<<<
190.664	-390
191.040	9
191.415	9
191.791	1
192.166	8
192.542	7
192.917	7
193.293	6
193.668	5
194.044	8
194.419	-10
194.794	9
195.170	9
195.545	9
195.920	9
196.296	10
196.671	10
197.046	11
197.421	11
197.796	12
198.171	12
198.546	12
198.922	13
199.297	13
199.672	14
200.047	14
200.422	15
200.796	15
201.171	15
201.546	15
201.921	14
202.296	15
202.671	15
203.045	15
203.420	15
203.795	15
204.170	15
204.544	15
204.919	15
205.294	15
205.668	15
206.043	14
206.417	14
206.792	15
207.166	14
207.541	14
207.915	14
208.289	14
208.664	14
209.038	14
209.412	14
209.787	14
210.161	14
210.535	14
210.909	14
211.284	14
211.658	14
212.032	14
212.406	14
212.780	14
213.154	14
213.528	14
213.902	14
214.276	14
214.650	14
215.024	14
215.398	14
215.772	14
216.145	14
216.519	14
216.893	14
217.267	14
217.640	14
218.014	15
218.388	15
218.761	15
219.135	15
219.508	16
219.882	16
220.256	16
220.629	16
221.003	16
221.376	16
221.749	16
222.123	16
222.496	16
222.869	16
223.243	16
223.616	16
223.989	16
224.362	16
224.736	16
225.109	16
225.482	16
225.855	16
226.228	16
226.601	15
226.974	16
227.347	15
227.720	15
228.093	15
228.466	14
228.839	15
229.212	15
229.585	14
229.957	14
230.330	15
230.703	15
231.076	15
231.448	15
231.821	15
232.194	15
232.566	15
232.939	15
233.311	14
233.684	15
234.056	15
234.429	15
234.801	15
235.174	15
235.546	15
235.918	16
236.291	16
236.663	16
237.035	16
237.408	16
237.780	16
238.152	16
238.524	17
238.896	17
239.268	17
239.641	17
240.013	17
240.385	17
240.757	17
241.129	17
241.500	17
241.872	17
242.244	17
242.616	17
242.988	17
243.360	17
243.731	17
244.103	17
244.475	16
244.847	17
245.218	16
245.590	16
245.961	16
246.333	16
246.705	16
247.076	16
247.448	16
247.819	16
248.190	16
248.562	16
248.933	16
249.305	17
249.676	17
250.047	17
250.418	16
250.790	17
251.161	16
251.532	16
251.903	16
252.274	16
252.645	16
253.016	16
253.387	16
253.758	17
254.129	17
254.500	17
254.871	17
255.242	18
255.613	18
255.984	18
256.355	17
256.725	17
257.096	17
257.467	17
257.838	17
258.208	18
258.579	18
258.949	18
259.320	18
259.690	18
260.061	18
260.431	18
260.802	18
261.172	18
261.543	18
261.913	18
262.283	18
262.654	18
263.024	18
263.394	17
263.764	17
264.135	18
264.505	18
264.875	18
265.245	18
265.615	18
265.985	18
266.355	17
266.725	18
267.095	18
267.465	18
267.835	19
268.205	18
268.575	18
268.944	19
269.314	18
269.684	18
270.054	18
270.423	18
270.793	18
271.163	18
271.532	19
271.902	18
272.271	18
272.641	18
273.010	18
273.380	18
273.749	18
274.119	19
274.488	19
274.857	18
275.227	19
275.596	19
275.965	19
276.335	19
276.704	19
277.073	19
277.442	19
277.811	19
278.180	19
278.549	19
278.918	19
279.287	19
279.656	19
280.025	19
280.394	19
280.763	19
281.132	20
281.501	19
281.869	19
282.238	19
282.607	19
282.976	19
283.344	19
283.713	19
284.081	18
284.450	18
284.819	18
285.187	18
285.556	18
285.924	19
286.292	19
286.661	19
287.029	19
287.398	19
287.766	19
288.134	19
288.502	19
288.871	19
289.239	19
289.607	19
289.975	19
290.343	19
290.711	19
291.079	19
291.447	19
291.815	19
292.183	19
292.551	19
292.919	19
293.287	19
293.655	19
294.022	18
294.390	18
294.758	18
295.126	18
295.493	18
295.861	18
296.229	18
296.596	18
296.964	18
297.331	18
297.699	18
298.066	18
298.434	18
298.801	18
299.168	18
299.536	18
299.903	18
300.270	18
300.638	18
301.005	18
301.372	18
301.739	18
302.106	18
302.473	19
302.840	18
303.207	18
303.574	18
303.941	18
304.308	18
304.675	19
305.042	19
305.409	19
305.776	19
306.143	19
306.509	20
306.876	20
307.243	20
307.610	20
307.976	20
308.343	21
308.709	21
309.076	21
309.442	21
309.809	22
310.175	22
310.542	22
310.908	23
311.275	23
311.641	24
312.007	24
312.373	25
312.740	25
313.106	26
313.472	26
313.838	26
314.204	27
314.570	28
314.936	29
315.302	29
315.668	30
316.034	30
316.400	31
316.766	32
317.132	33
317.498	34
317.864	35
318.230	36
318.595	37
318.961	37
319.327	39
319.692	40
320.058	41
320.424	43
320.789	44
321.155	46
321.520	48
321.886	49
322.251	51
322.616	53
322.982	55
323.347	58
323.712	60
324.078	62
324.443	65
324.808	68
325.173	70
325.539	73
325.904	76
326.269	78
326.634	81
326.999	84
327.364	87
327.729	90
328.094	93
328.459	96
328.823	99
329.188	102
329.553	105
329.918	108
330.283	111
330.647	114
331.012	117
331.377	120
331.741	123
332.106	126
332.470	129
332.835	133
333.199	136
333.564	139
333.928	143
334.293	146
334.657	150
335.021	153
335.386	156
335.750	160
336.114	164
336.478	167
336.843	171
337.207	174
337.571	178
337.935	182
338.299	185
338.663	189
339.027	192
339.391	196
339.755	200
340.119	203
340.483	207
340.846	210
341.210	214
341.574	217
341.938	221
342.301	224
342.665	227
343.029	230
343.392	233
343.756	236
344.119	239
344.483	242
344.846	245
345.210	248
345.573	251
345.937	254
346.300	256
346.663	259
347.027	261
347.390	264
347.753	267
348.116	270
348.479	272
348.843	275
349.206	278
349.569	280
349.932	282
350.295	285
350.658	287
351.021	289
351.383	291
351.746	293
352.109	295
352.472	297
352.835	299
353.197	301
353.560	303
353.923	305
354.285	307
354.648	308
355.011	310
355.373	311
355.736	312
356.098	314
356.461	315
356.823	317
357.185	318
357.548	320
357.910	322
358.272	323
358.635	325
358.997	327
359.359	328
359.721	330
360.083	331
360.445	332
360.807	333
361.169	335
361.531	336
361.893	337
362.255	339
362.617	340
362.979	341
363.341	343
363.703	345
364.064	346
364.426	347
364.788	349
365.149	350
365.511	351
365.873	352
366.234	353
366.596	353
366.957	354
367.319	354
367.680	355
368.042	356
368.403	357
368.764	357
369.126	357
369.487	358
369.848	358
370.209	358
370.570	359
370.931	358
371.293	358
371.654	359
372.015	359
372.376	359
372.737	359
373.098	359
373.458	360
373.819	360
374.180	360
374.541	361
374.902	362
375.263	363
375.623	364
375.984	365
376.345	367
376.705	368
377.066	368
377.426	369
377.787	371
378.147	371
378.508	372
378.868	373
379.228	374
379.589	375
379.949	376
380.309	377
380.670	377
381.030	378
381.390	379
381.750	380
382.110	381
382.470	381
382.830	381
383.190	381
383.550	382
383.910	383
384.270	384
384.630	385
384.990	386
385.350	387
385.709	389
386.069	390
386.429	390
386.788	391
387.148	392
387.508	392
387.867	394
388.227	395
388.586	397
388.946	399
389.305	401
389.665	404
390.024	406
390.383	408
390.743	410
391.102	412
391.461	413
391.820	414
392.179	415
392.539	416
392.898	417
393.257	419
393.616	420
393.975	422
394.334	425
394.693	428
395.051	431
395.410	434
395.769	437
396.128	438
396.487	440
396.845	441
397.204	442
397.563	443
397.921	443
398.280	444
398.638	445
398.997	446
399.355	447
399.714	448
400.072	449
400.431	451
400.789	453
401.147	455
401.506	457
401.864	458
402.222	459
402.580	459
402.938	459
403.297	459
403.655	459
404.013	459
404.371	460
404.729	460
405.087	461
405.444	462
405.802	464
406.160	465
406.518	466
406.876	468
407.233	469
407.591	470
407.949	471
408.306	472
408.664	473
409.022	474
409.379	475
409.737	476
410.094	478
410.451	480
410.809	482
411.166	484
411.523	486
411.881	488
412.238	490
412.595	492
412.952	493
413.310	494
413.667	496
414.024	498
414.381	499
414.738	501
415.095	503
415.452	505
415.809	507
416.165	508
416.522	510
416.879	513
417.236	516
417.593	521
417.949	526
418.306	532
418.663	538
419.019	544
419.376	551
419.732	557
420.089	562
420.445	568
420.802	573
421.158	579
421.514	583
421.871	587
422.227	591
422.583	595
422.939	599
423.295	602
423.652	606
424.008	609
424.364	612
424.720	614
425.076	616
425.432	617
425.788	619
426.143	622
426.499	625
426.855	629
427.211	632
427.567	636
427.922	639
428.278	642
428.634	644
428.989	646
429.345	649
429.700	653
430.056	657
430.411	661
430.767	666
431.122	670
431.478	674
431.833	678
432.188	682
432.543	685
432.899	688
433.254	690
433.609	691
433.964	692
434.319	693
434.674	694
435.029	696
435.384	698
435.739	702
436.094	707
436.449	712
436.804	719
437.158	726
437.513	734
437.868	743
438.223	752
438.577	762
438.932	772
439.287	783
439.641	794
439.996	805
440.350	816
440.704	827
441.059	837
441.413	849
441.768	860
442.122	871
442.476	881
442.830	891
443.185	901
443.539	910
443.893	920
444.247	928
444.601	935
444.955	940
445.309	944
445.663	948
446.017	950
446.371	953
446.724	955
447.078	956
447.432	957
447.786	957
448.139	958
448.493	957
448.847	956
449.200	955
449.554	954
449.907	953
450.261	953
450.614	951
450.968	951
451.321	950
451.674	951
452.027	949
452.381	950
452.734	952
453.087	952
453.440	954
453.793	957
454.146	961
454.499	966
454.852	974
455.205	982
455.558	990
455.911	998
456.264	1007
456.617	1015
456.970	1023
457.322	1030
457.675	1036
458.028	1043
458.380	1048
458.733	1052
459.086	1057
459.438	1064
459.791	1070
460.143	1078
460.496	1089
460.848	1100
461.200	1112
461.553	1125
461.905	1137
462.257	1148
462.609	1158
462.961	1167
463.314	1175
463.666	1182
464.018	1188
464.370	1194
464.722	1201
465.074	1208
465.426	1214
465.777	1220
466.129	1224
466.481	1228
466.833	1230
467.184	1230
467.536	1229
467.888	1226
468.239	1223
468.591	1221
468.943	1219
469.294	1218
469.646	1219
469.997	1222
470.348	1228
470.700	1236
471.051	1247
471.402	1260
471.754	1275
472.105	1292
472.456	1309
472.807	1329
473.158	1351
473.509	1375
473.860	1401
474.211	1428
474.562	1456
474.913	1485
475.264	1516
475.615	1545
475.966	1575
476.316	1604
476.667	1634
477.018	1663
477.368	1694
477.719	1725
478.070	1754
478.420	1782
478.771	1809
479.121	1836
479.472	1863
479.822	1891
480.172	1921
480.523	1957
480.873	2006
481.223	2089
481.573	2213
481.924	2368
482.274	2543
482.624	2727
482.974	2911
483.324	3071
483.674	3193
484.024	3275
484.374	3329
484.724	3363
485.073	3387
485.423	3407
485.773	3426
486.123	3444
486.472	3461
486.822	3477
487.172	3491
487.521	3501
487.871	3505
488.220	3493
488.570	3447
488.919	3361
489.268	3241
489.618	3102
489.967	2952
490.316	2801
490.666	2670
491.015	2577
491.364	2520
491.713	2491
492.062	2482
492.411	2482
492.760	2488
493.109	2495
493.458	2502
493.807	2508
494.156	2513
494.505	2518
494.853	2524
495.202	2532
495.551	2544
495.900	2555
496.248	2568
496.597	2581
496.945	2593
497.294	2604
497.642	2617
497.991	2632
498.339	2650
498.688	2669
499.036	2687
499.384	2704
499.732	2719
500.081	2730
500.429	2741
500.777	2750
501.125	2759
501.473	2767
501.821	2777
502.169	2785
502.517	2792
502.865	2796
503.213	2798
503.561	2798
503.908	2797
504.256	2796
504.604	2793
504.952	2789
505.299	2785
505.647	2777
505.994	2767
506.342	2758
506.689	2747
507.037	2737
507.384	2730
507.732	2724
508.079	2719
508.426	2714
508.774	2710
509.121	2704
509.468	2698
509.815	2691
510.162	2685
510.509	2678
510.856	2671
511.203	2662
511.550	2655
511.897	2648
512.244	2640
512.591	2633
512.938	2626
513.284	2620
513.631	2612
513.978	2603
514.324	2594
514.671	2585
515.018	2575
515.364	2567
515.711	2559
516.057	2550
516.403	2543
516.750	2534
517.096	2524
517.443	2512
517.789	2501
518.135	2490
518.481	2481
518.827	2471
519.173	2461
519.519	2452
519.865	2444
520.211	2435
520.557	2428
520.903	2422
521.249	2417
521.595	2411
521.941	2405
522.287	2400
522.632	2394
522.978	2389
523.324	2386
523.669	2383
524.015	2382
524.360	2385
524.706	2391
525.051	2400
525.397	2410
525.742	2422
526.087	2434
526.433	2446
526.778	2456
527.123	2463
527.468	2469
527.813	2474
528.158	2479
528.504	2487
528.849	2498
529.193	2513
529.538	2532
529.883	2555
530.228	2581
530.573	2611
530.918	2642
531.263	2673
531.607	2701
531.952	2726
532.296	2746
532.641	2763
532.986	2775
533.330	2787
533.675	2799
534.019	2816
534.363	2839
534.708	2865
535.052	2897
535.396	2930
535.741	2963
536.085	2990
536.429	3016
536.773	3036
537.117	3052
537.461	3065
537.805	3076
538.149	3089
538.493	3104
538.837	3119
539.181	3138
539.524	3163
539.868	3192
540.212	3225
540.556	3261
540.899	3297
541.243	3330
541.586	3356
541.930	3377
542.273	3391
542.617	3401
542.960	3411
543.304	3427
543.647	3448
543.990	3477
544.333	3509
544.677	3542
545.020	3574
545.363	3599
545.706	3617
546.049	3630
546.392	3636
546.735	3635
547.078	3632
547.421	3629
547.764	3629
548.106	3630
548.449	3635
548.792	3648
549.135	3667
549.477	3691
549.820	3715
550.162	3735
550.505	3750
550.847	3759
551.190	3762
551.532	3763
551.875	3764
552.217	3767
552.559	3774
552.901	3787
553.244	3804
553.586	3824
553.928	3844
554.270	3862
554.612	3875
554.954	3885
555.296	3892
555.638	3899
555.980	3906
556.322	3916
556.663	3934
557.005	3961
557.347	3997
557.689	4036
558.030	4073
558.372	4108
558.713	4139
559.055	4168
559.396	4196
559.738	4226
560.079	4259
560.421	4297
560.762	4343
561.103	4393
561.444	4450
561.786	4510
562.127	4574
562.468	4644
562.809	4721
563.150	4806
563.491	4899
563.832	5002
564.173	5120
564.514	5257
564.855	5422
565.195	5627
565.536	5873
565.877	6159
566.218	6486
566.558	6855
566.899	7261
567.239	7698
567.580	8156
567.920	8627
568.261	9101
568.601	9586
568.941	10088
569.282	10604
569.622	11138
569.962	11694
570.302	12286
570.643	12898
570.983	13511
571.323	14102
571.663	14670
572.003	15207
572.343	15707
572.683	16175
573.022	16648
573.362	17145
573.702	17660
574.042	18172
574.381	18661
574.721	19125
575.061	19566
575.400	19966
575.740	20317
576.079	20626
576.419	20932
576.758	21282
577.097	21699
577.437	22156
577.776	22644
578.115	23156
578.454	23676
578.794	24150
579.133	24512
579.472	24751
579.811	24880
580.150	24905
580.489	24849
580.828	24756
581.167	24667
581.505	24599
581.844	24543
582.183	24488
582.522	24451
582.860	24430
583.199	24408
583.538	24352
583.876	24220
584.215	23986
584.553	23638
584.891	23187
585.230	22638
585.568	22035
585.906	21426
586.245	20878
586.583	20407
586.921	20016
587.259	19662
587.597	19306
587.935	18937
588.273	18560
588.611	18205
588.949	17890
589.287	17624
589.625	17412
589.963	17242
590.300	17103
590.638	16976
590.976	16835
591.313	16672
591.651	16516
591.989	16380
592.326	16269
592.664	16172
593.001	16091
593.338	16038
593.676	16007
594.013	16006
594.350	16056
594.687	16149
595.025	16253
595.362	16346
595.699	16410
596.036	16445
596.373	16445
596.710	16401
597.047	16330
597.384	16245
597.720	16153
598.057	16076
598.394	16017
598.731	15980
599.067	15971
599.404	15990
599.741	16047
600.077	16131
600.414	16226
600.750	16325
601.087	16399
601.423	16431
601.759	16427
602.096	16391
602.432	16335
602.768	16253
603.104	16145
603.440	16012
603.776	15872
604.112	15721
604.448	15568
604.784	15405
605.120	15235
605.456	15070
605.792	14896
606.128	14715
606.463	14528
606.799	14342
607.135	14171
607.470	14002
607.806	13836
608.142	13673
608.477	13516
608.812	13364
609.148	13212
609.483	13053
609.819	12891
610.154	12735
610.489	12592
610.824	12467
611.159	12361
611.494	12253
611.830	12160
612.165	12067
612.500	11963
612.834	11844
613.169	11709
613.504	11561
613.839	11396
614.174	11212
614.509	11025
614.843	10839
615.178	10663
615.512	10488
615.847	10318
616.182	10148
616.516	9976
616.850	9795
617.185	9608
617.519	9417
617.853	9213
618.188	9000
618.522	8807
618.856	8642
619.190	8499
619.524	8373
619.858	8272
620.192	8193
620.526	8121
620.860	8051
621.194	7984
621.528	7917
621.862	7851
622.195	7772
622.529	7688
622.863	7600
623.196	7513
623.530	7425
623.864	7336
624.197	7246
624.530	7159
624.864	7082
625.197	7001
625.531	6909
625.864	6798
626.197	6681
626.530	6553
626.863	6410
627.196	6254
627.529	6097
627.862	5941
628.195	5788
628.528	5636
628.861	5491
629.194	5361
629.527	5236
629.860	5114
630.192	4993
630.525	4881
630.858	4776
631.190	4676
631.523	4579
631.855	4489
632.188	4410
632.520	4337
632.852	4267
633.185	4196
633.517	4127
633.849	4065
634.182	4009
634.514	3955
634.846	3907
635.178	3864
635.510	3826
635.842	3790
636.174	3756
636.506	3722
636.837	3689
637.169	3656
637.501	3621
637.833	3583
638.164	3540
638.496	3493
638.828	3440
639.159	3380
639.491	3315
639.822	3248
640.154	3180
640.485	3114
640.816	3048
641.147	2982
641.479	2919
641.810	2859
642.141	2800
642.472	2742
642.803	2685
643.134	2631
643.465	2584
643.796	2547
644.127	2520
644.458	2506
644.789	2506
645.119	2520
645.450	2543
645.781	2569
646.111	2594
646.442	2617
646.773	2635
647.103	2648
647.433	2660
647.764	2672
648.094	2689
648.425	2711
648.755	2736
649.085	2766
649.415	2797
649.745	2830
650.075	2863
650.405	2901
650.735	2984
651.065	3581
651.395	5442
651.725	8506
652.055	12142
652.385	15773
652.715	19403
653.044	23036
653.374	26674
653.704	30317
654.033	33251
654.363	35120
654.692	36358
655.022	37162
655.351	37689
655.680	38015
656.010	38192
656.339	38271
656.668	38291
656.997	38281
657.326	38248
657.655	38158
657.984	37541
658.313	35650
658.642	32545
658.971	28859
659.300	25172
659.629	21487
659.958	17802
660.286	14117
660.615	10433
660.944	7467
661.272	5569
661.601	4304
661.929	3471
662.258	2910
662.586	2544
662.915	2320
663.243	2191
663.571	2118
663.899	2073
664.228	2045
664.556	2026
664.884	2013
665.212	2004
665.540	1997
665.868	1993
666.196	1992
666.524	1990
666.852	1991
667.179	1999
667.507	2014
667.835	2036
668.162	2066
668.490	2103
668.818	2145
669.145	2191
669.473	2235
669.800	2277
670.127	2314
670.455	2344
670.782	2369
671.109	2392
671.436	2411
671.764	2426
672.091	2439
672.418	2450
672.745	2458
673.072	2467
673.399	2477
673.726	2489
674.053	2498
674.379	2501
674.706	2500
675.033	2498
675.359	2494
675.686	2489
676.013	2486
676.339	2487
676.666	2495
676.992	2513
677.318	2539
677.645	2568
677.971	2595
678.297	2619
678.624	2643
678.950	2666
679.276	2688
679.602	2709
679.928	2731
680.254	2758
680.580	2792
680.906	2835
681.232	2889
681.558	2945
681.883	3001
682.209	3052
682.535	3100
682.860	3143
683.186	3180
683.511	3209
683.837	3227
684.162	3241
684.488	3252
684.813	3264
685.138	3276
685.464	3285
685.789	3293
686.114	3301
686.439	3311
686.764	3322
687.089	3330
687.414	3330
687.739	3319
688.064	3299
688.389	3273
688.714	3243
689.039	3210
689.363	3175
689.688	3137
690.013	3100
690.337	3067
690.662	3040
690.986	3015
691.311	2991
691.635	2966
691.959	2943
692.284	2927
692.608	2923
692.932	2927
693.256	2937
693.580	2949
693.904	2964
694.228	2983
694.552	2999
694.876	3007
695.200	3004
695.524	2990
695.848	2971
696.172	2946
696.495	2920
696.819	2894
697.143	2866
697.466	2838
697.790	2814
698.113	2797
698.437	2789
698.760	2787
699.083	2785
699.407	2777
699.730	2763
700.053	2740
700.376	2708
700.699	2664
701.022	2608
701.345	2549
701.668	2493
701.991	2446
702.314	2413
702.637	2398
702.960	2404
703.283	2429
703.605	2472
703.928	2531
704.251	2599
704.573	2666
704.896	2727
705.218	2776
705.540	2815
705.863	2847
706.185	2872
706.507	2894
706.830	2915
707.152	2937
707.474	2961
707.796	2988
708.118	3016
708.440	3043
708.762	3066
709.084	3085
709.406	3095
709.728	3096
710.049	3090
710.371	3076
710.693	3056
711.014	3033
711.336	3010
711.658	2990
711.979	2972
712.301	2955
712.622	2938
712.943	2917
713.265	2891
713.586	2865
713.907	2840
714.228	2818
714.549	2800
714.870	2787
715.191	2782
715.512	2780
715.833	2776
716.154	2768
716.475	2756
716.796	2738
717.117	2712
717.437	2681
717.758	2647
718.078	2612
718.399	2578
718.719	2548
719.040	2521
719.360	2500
719.681	2486
720.001	2476
720.321	2471
720.642	2468
720.962	2470
721.282	2476
721.602	2483
721.922	2492
722.242	2504
722.562	2520
722.882	2539
723.202	2557
723.521	2573
723.841	2590
724.161	2607
724.481	2624
724.800	2641
725.120	2664
725.439	2692
725.759	2723
726.078	2759
726.398	2803
726.717	2857
727.036	2918
727.355	2983
727.675	3046
727.994	3105
728.313	3162
728.632	3212
728.951	3252
729.270	3287
729.589	3320
729.908	3361
730.226	3407
730.545	3458
730.864	3513
731.182	3573
731.501	3633
731.820	3690
732.138	3740
732.457	3784
732.775	3823
733.093	3856
733.412	3874
733.730	3879
734.048	3870
734.367	3853
734.685	3829
735.003	3802
735.321	3778
735.639	3759
735.957	3744
736.275	3730
736.593	3708
736.910	3677
737.228	3632
737.546	3576
737.863	3509
738.181	3437
738.499	3360
738.816	3285
739.134	3211
739.451	3137
739.768	3062
740.086	2989
740.403	2922
740.720	2860
741.038	2801
741.355	2745
741.672	2689
741.989	2632
742.306	2572
742.623	2511
742.940	2451
743.257	2397
743.573	2349
743.890	2310
744.207	2281
744.523	2261
744.840	2247
745.157	2239
745.473	2238
745.790	2246
746.106	2263
746.422	2290
746.739	2323
747.055	2363
747.371	2408
747.687	2455
748.004	2499
748.320	2538
748.636	2574
748.952	2609
749.268	2644
749.584	2678
749.899	2708
750.215	2739
750.531	2775
750.847	2814
751.162	2854
751.478	2892
751.793	2933
752.109	2976
752.424	3022
752.740	3069
753.055	3122
753.370	3186
753.686	3260
754.001	3340
754.316	3424
754.631	3512
754.946	3607
755.261	3707
755.576	3802
755.891	3895
756.206	3988
756.521	4085
756.836	4184
757.150	4280
757.465	4363
757.780	4435
758.094	4496
758.409	4542
758.723	4572
759.038	4585
759.352	4586
759.667	4573
759.981	4551
760.295	4529
760.609	4512
760.923	4501
761.238	4495
761.552	4491
761.866	4485
762.180	4477
762.493	4453
762.807	4406
763.121	4335
763.435	4246
763.749	4148
764.062	4056
764.376	3980
764.689	3927
765.003	3899
765.316	3895
765.630	3908
765.943	3930
766.257	3957
766.570	3979
766.883	3985
767.196	3976
767.509	3952
767.822	3914
768.135	3866
768.448	3813
768.761	3758
769.074	3710
769.387	3673
769.700	3651
770.013	3637
770.325	3627
770.638	3611
770.950	3581
771.263	3533
771.575	3467
771.888	3382
772.200	3283
772.513	3176
772.825	3063
773.137	2947
773.449	2834
773.761	2723
774.074	2621
774.386	2529
774.698	2454
775.010	2391
775.321	2346
775.633	2317
775.945	2301
776.257	2291
776.568	2289
776.880	2297
777.192	2314
777.503	2340
777.815	2371
778.126	2412
778.438	2461
778.749	2514
779.060	2565
779.372	2613
779.683	2659
779.994	2701
780.305	2735
780.616	2757
780.927	2772
781.238	2776
781.549	2770
781.860	2752
782.171	2727
782.481	2699
782.792	2671
783.103	2642
783.413	2612
783.724	2580
784.034	2548
784.345	2520
784.655	2494
784.966	2468
785.276	2439
785.586	2413
785.896	2385
786.207	2356
786.517	2326
786.827	2296
787.137	2268
787.447	2241
787.757	2215
788.066	2191
788.376	2167
788.686	2143
788.996	2119
789.305	2095
789.615	2076
789.925	2065
790.234	2062
790.544	2068
790.853	2078
791.162	2089
791.472	2098
791.781	2103
792.090	2098
792.399	2086
792.708	2066
793.017	2045
793.326	2023
793.635	2003
793.944	1984
794.253	1968
794.562	1958
794.871	1951
795.179	1946
795.488	1940
795.797	1930
796.105	1912
796.414	1884
796.722	1846
797.031	1796
797.339	1737
797.647	1670
797.956	1601
798.264	1536
798.572	1482
798.880	1441
799.188	1410
799.496	1388
799.804	1372
800.112	1359
800.420	1349
800.728	1338
801.035	1324
801.343	1308
801.651	1296
801.958	1292
802.266	1298
802.573	1308
802.881	1323
803.188	1340
803.496	1360
803.803	1379
804.110	1397
804.417	1413
804.724	1427
805.032	1441
805.339	1452
805.646	1459
805.953	1463
806.259	1464
806.566	1462
806.873	1456
807.180	1449
807.486	1442
807.793	1432
808.100	1418
808.406	1394
808.713	1362
809.019	1326
809.326	1288
809.632	1252
809.938	1218
810.244	1188
810.551	1163
810.857	1141
811.163	1122
811.469	1102
811.775	1081
812.081	1058
812.387	1038
812.692	1022
812.998	1010
813.304	1000
813.610	992
813.915	986
814.221	981
814.526	976
814.832	972
815.137	968
815.443	962
815.748	952
816.053	940
816.358	927
816.664	915
816.969	904
817.274	895
817.579	887
817.884	883
818.189	882
818.493	881
818.798	879
819.103	873
819.408	865
819.712	855
820.017	844
820.321	833
820.626	821
820.930	811
821.235	805
821.539	801
821.843	801
822.148	803
822.452	804
822.756	803
823.060	800
823.364	795
823.668	788
823.972	780
824.276	771
824.580	764
824.883	761
825.187	759
825.491	759
825.795	759
826.098	759
826.402	758
826.705	755
827.008	750
827.312	742
827.615	729
827.918	714
828.222	697
828.525	679
828.828	663
829.131	646
829.434	630
829.737	615
830.040	602
830.343	592
830.645	584
830.948	574
831.251	566
831.553	558
831.856	552
832.159	546
832.461	539
832.764	531
833.066	523
833.368	517
833.671	512
833.973	509
834.275	506
834.577	503
834.879	499
835.181	494
835.483	488
835.785	482
836.087	473
836.389	463
836.690	451
836.992	439
837.294	426
837.595	413
837.897	398
838.198	384
838.500	371
838.801	359
839.103	348
839.404	340
839.705	332
840.006	326
840.307	321
840.608	317
840.910	314
841.210	312
841.511	309
841.812	306
842.113	302
842.414	298
842.715	292
843.015	286
843.316	280
843.616	274
843.917	268
844.217	263
844.518	259
844.818	256
845.118	254
845.419	253
845.719	251
846.019	250
846.319	248
846.619	247
846.919	246
847.219	245
847.519	243
847.819	242
848.118	242
848.418	245
848.718	253
849.017	265
849.317	283
849.616	304
849.916	328
850.215	355
850.515	384
850.814	412
851.113	438
851.412	461
851.712	482
852.011	502
852.310	521
852.609	537
852.908	552
853.206	564
853.505	576
853.804	587
854.103	596
854.401	602
854.700	605
854.999	602
855.297	595
855.595	582
855.894	565
856.192	544
856.491	521
856.789	495
857.087	469
857.385	444
857.683	421
857.981	401
858.279	382
858.577	364
858.875	349
859.173	336
859.471	326
859.768	317
860.066	310
860.363	304
860.661	299
860.959	295
861.256	291
861.553	286
861.851	281
862.148	275
862.445	270
862.742	265
863.039	260
863.337	256
863.634	253
863.931	252
864.227	250
864.524	250
864.821	250
865.118	249
865.415	247
865.711	244
866.008	239
866.304	235
866.601	230
866.897	226
867.194	223
867.490	220
867.786	219
868.082	219
868.379	220
868.675	220
868.971	221
869.267	221
869.563	221
869.859	220
870.154	219
870.450	218
870.746	216
871.042	215
871.337	215
871.633	215
871.928	216
872.224	217
872.519	219
872.815	221
873.110	221
873.405	221
873.700	220
873.995	220
874.291	220
874.586	220
874.881	222
875.175	224
875.470	227
875.765	231
876.060	236
876.355	240
876.649	245
876.944	249
877.238	254
877.533	258
877.827	260
878.122	263
878.416	264
878.710	263
879.005	263
879.299	262
879.593	261
879.887	260
880.181	259
880.475	257
880.769	255
881.063	253
881.356	250
881.650	246
881.944	243
882.238	205
882.531	193
882.825	191
883.118	198
883.412	193
883.705	192
883.998	194
884.291	206
884.585	207
884.878	215
>>>>>>>>>> END of Data <<<<<<<<<<