Date	2021年06月15日火曜日 05時06分47秒
Spectrometers	USB2+H05879
ダーク	使用
リファレンス	使用
積分時間[msec]	10
平均回数	280
ｽﾑｰｼﾞﾝｸﾞ	10
Electrical Dark	USE
ピクセル数	2048
計測モード	吸光度
保存開始波長[nm]	190.664
保存終了波長[nm]	884.878
保存ﾋﾟｯﾁ波長[nm]	全波長

>>>>>>>>>> Data Start <<<<<<<<<<<<
190.664	0.000000
191.040	0.000000
191.415	0.000000
191.791	-2.615800
192.166	-0.705437
192.542	-0.902397
192.917	0.000000
193.293	-0.249483
193.668	-0.586341
194.044	-0.965599
194.419	0.000000
194.794	-1.394627
195.170	-1.308531
195.545	-1.220283
195.920	-1.086431
196.296	-0.966076
196.671	-0.800266
197.046	-0.639417
197.421	-0.591140
197.796	-0.583237
198.171	-0.553960
198.546	-0.520663
198.922	-0.467332
199.297	-0.443169
199.672	-0.424884
200.047	-0.403049
200.422	-0.367384
200.796	-0.357940
201.171	-0.341306
201.546	-0.334370
201.921	-0.318902
202.296	-0.293658
202.671	-0.268034
203.045	-0.240049
203.420	-0.222817
203.795	-0.207100
204.170	-0.192724
204.544	-0.190831
204.919	-0.188951
205.294	-0.184125
205.668	-0.170482
206.043	-0.155847
206.417	-0.147630
206.792	-0.137892
207.166	-0.125865
207.541	-0.118567
207.915	-0.116559
208.289	-0.104969
208.664	-0.095295
209.038	-0.092214
209.412	-0.085813
209.787	-0.070963
210.161	-0.069843
210.535	-0.081005
210.909	-0.076636
211.284	-0.074025
211.658	-0.081340
212.032	-0.084274
212.406	-0.083674
212.780	-0.085611
213.154	-0.087950
213.528	-0.090831
213.902	-0.087222
214.276	-0.089196
214.650	-0.088387
215.024	-0.090409
215.398	-0.084308
215.772	-0.074840
216.145	-0.074330
216.519	-0.069076
216.893	-0.062235
217.267	-0.059321
217.640	-0.071101
218.014	-0.064609
218.388	-0.055953
218.761	-0.059178
219.135	-0.057414
219.508	-0.046490
219.882	-0.050418
220.256	-0.048313
220.629	-0.034695
221.003	-0.035571
221.376	-0.025933
221.749	-0.022964
222.123	-0.016362
222.496	-0.029707
222.869	-0.028510
223.243	-0.029617
223.616	-0.036875
223.989	-0.042147
224.362	-0.037167
224.736	-0.038527
225.109	-0.037937
225.482	-0.031200
225.855	-0.030655
226.228	-0.034323
226.601	-0.034358
226.974	-0.028359
227.347	-0.027241
227.720	-0.027608
228.093	-0.027624
228.466	-0.035742
228.839	-0.031242
229.212	-0.044337
229.585	-0.060004
229.957	-0.064341
230.330	-0.058284
230.703	-0.053908
231.076	-0.058622
231.448	-0.056708
231.821	-0.061798
232.194	-0.067072
232.566	-0.067328
232.939	-0.067918
233.311	-0.068489
233.684	-0.069061
234.056	-0.069819
234.429	-0.066039
234.801	-0.061981
235.174	-0.061553
235.546	-0.057944
235.918	-0.062884
236.291	-0.064970
236.663	-0.053995
237.035	-0.039325
237.408	-0.021926
237.780	-0.012307
238.152	-0.009774
238.524	-0.018196
238.896	-0.009024
239.268	-0.004456
239.641	0.000562
240.013	0.013613
240.385	0.019024
240.757	0.023045
241.129	0.027518
241.500	0.032379
241.872	0.043944
242.244	0.047402
242.616	0.042648
242.988	0.047724
243.360	0.052961
243.731	0.064893
244.103	0.065302
244.475	0.063185
244.847	0.061267
245.218	0.062976
245.590	0.066785
245.961	0.076790
246.333	0.085032
246.705	0.083751
247.076	0.085740
247.448	0.092318
247.819	0.085192
248.190	0.089132
248.562	0.083146
248.933	0.083703
249.305	0.086705
249.676	0.089106
250.047	0.086251
250.418	0.093261
250.790	0.092225
251.161	0.090832
251.532	0.088852
251.903	0.091405
252.274	0.094764
252.645	0.099203
253.016	0.098226
253.387	0.088135
253.758	0.081323
254.129	0.080150
254.500	0.081562
254.871	0.079025
255.242	0.069404
255.613	0.065765
255.984	0.054838
256.355	0.058500
256.725	0.056650
257.096	0.055288
257.467	0.048909
257.838	0.045120
258.208	0.045861
258.579	0.050052
258.949	0.047493
259.320	0.048887
259.690	0.048935
260.061	0.046471
260.431	0.051963
260.802	0.055295
261.172	0.063740
261.543	0.071426
261.913	0.071669
262.283	0.069974
262.654	0.074364
263.024	0.076650
263.394	0.080027
263.764	0.094078
264.135	0.097952
264.505	0.093415
264.875	0.096302
265.245	0.096783
265.615	0.102429
265.985	0.104665
266.355	0.102085
266.725	0.102268
267.095	0.102501
267.465	0.105055
267.835	0.100668
268.205	0.084205
268.575	0.085715
268.944	0.086296
269.314	0.082545
269.684	0.090153
270.054	0.081904
270.423	0.081816
270.793	0.085578
271.163	0.086880
271.532	0.076497
271.902	0.076469
272.271	0.086294
272.641	0.078837
273.010	0.076464
273.380	0.073083
273.749	0.070273
274.119	0.077263
274.488	0.082103
274.857	0.081110
275.227	0.080038
275.596	0.086363
275.965	0.095822
276.335	0.084995
276.704	0.080014
277.073	0.083340
277.442	0.079799
277.811	0.088584
278.180	0.089103
278.549	0.090616
278.918	0.093036
279.287	0.096402
279.656	0.101210
280.025	0.095820
280.394	0.099849
280.763	0.102738
281.132	0.109403
281.501	0.108042
281.869	0.103155
282.238	0.105301
282.607	0.104267
282.976	0.107258
283.344	0.101487
283.713	0.103468
284.081	0.109456
284.450	0.117598
284.819	0.109768
285.187	0.122631
285.556	0.121175
285.924	0.125454
286.292	0.117165
286.661	0.115135
287.029	0.115683
287.398	0.109822
287.766	0.109575
288.134	0.110911
288.502	0.110621
288.871	0.110418
289.239	0.113670
289.607	0.108757
289.975	0.110552
290.343	0.116654
290.711	0.116104
291.079	0.119722
291.447	0.119278
291.815	0.121665
292.183	0.122055
292.551	0.129543
292.919	0.127434
293.287	0.133197
293.655	0.132075
294.022	0.131467
294.390	0.136575
294.758	0.137235
295.126	0.138802
295.493	0.140198
295.861	0.145553
296.229	0.144335
296.596	0.156633
296.964	0.161269
297.331	0.165847
297.699	0.164500
298.066	0.164918
298.434	0.161367
298.801	0.163029
299.168	0.165631
299.536	0.169994
299.903	0.164417
300.270	0.168446
300.638	0.173249
301.005	0.179888
301.372	0.180005
301.739	0.197896
302.106	0.201034
302.473	0.207659
302.840	0.222758
303.207	0.244222
303.574	0.256509
303.941	0.272646
304.308	0.278596
304.675	0.290492
305.042	0.306018
305.409	0.329885
305.776	0.348385
306.143	0.377163
306.509	0.401138
306.876	0.430232
307.243	0.448705
307.610	0.478741
307.976	0.501363
308.343	0.521241
308.709	0.548256
309.076	0.590055
309.442	0.620537
309.809	0.659637
310.175	0.694681
310.542	0.716196
310.908	0.741646
311.275	0.761852
311.641	0.786517
312.007	0.818988
312.373	0.850163
312.740	0.880265
313.106	0.905482
313.472	0.936766
313.838	0.964921
314.204	0.994139
314.570	1.009971
314.936	1.041363
315.302	1.062290
315.668	1.087301
316.034	1.119817
316.400	1.145048
316.766	1.159894
317.132	1.185772
317.498	1.203919
317.864	1.221619
318.230	1.243098
318.595	1.261870
318.961	1.286585
319.327	1.314122
319.692	1.321202
320.058	1.329654
320.424	1.347884
320.789	1.361456
321.155	1.381322
321.520	1.397610
321.886	1.416057
322.251	1.434825
322.616	1.450777
322.982	1.471121
323.347	1.484694
323.712	1.499005
324.078	1.510175
324.443	1.520878
324.808	1.525496
325.173	1.535111
325.539	1.545996
325.904	1.553701
326.269	1.562515
326.634	1.571260
326.999	1.579375
327.364	1.590674
327.729	1.602396
328.094	1.609724
328.459	1.622039
328.823	1.623262
329.188	1.632010
329.553	1.632555
329.918	1.639105
330.283	1.645374
330.647	1.655129
331.012	1.661670
331.377	1.663281
331.741	1.669780
332.106	1.678495
332.470	1.681662
332.835	1.683303
333.199	1.686467
333.564	1.694777
333.928	1.701670
334.293	1.706718
334.657	1.708785
335.021	1.714293
335.386	1.716842
335.750	1.717965
336.114	1.716155
336.478	1.722621
336.843	1.721025
337.207	1.724978
337.571	1.731760
337.935	1.731143
338.299	1.726476
338.663	1.726078
339.027	1.729792
339.391	1.730202
339.755	1.729414
340.119	1.730042
340.483	1.731433
340.846	1.735764
341.210	1.737200
341.574	1.734908
341.938	1.732375
342.301	1.732167
342.665	1.733074
343.029	1.734287
343.392	1.737180
343.756	1.737894
344.119	1.736258
344.483	1.739978
344.846	1.740593
345.210	1.741038
345.573	1.739786
345.937	1.742099
346.300	1.744924
346.663	1.742112
347.027	1.743541
347.390	1.744076
347.753	1.744851
348.116	1.746600
348.479	1.746324
348.843	1.744591
349.206	1.744874
349.569	1.747519
349.932	1.748487
350.295	1.748038
350.658	1.748721
351.021	1.749740
351.383	1.753787
351.746	1.754526
352.109	1.753480
352.472	1.753598
352.835	1.751351
353.197	1.754542
353.560	1.756721
353.923	1.754545
354.285	1.756962
354.648	1.754631
355.011	1.753230
355.373	1.753621
355.736	1.751869
356.098	1.751520
356.461	1.752763
356.823	1.753715
357.185	1.756127
357.548	1.756655
357.910	1.756412
358.272	1.755831
358.635	1.754819
358.997	1.751668
359.359	1.754809
359.721	1.753746
360.083	1.753523
360.445	1.753639
360.807	1.753403
361.169	1.752027
361.531	1.753608
361.893	1.752943
362.255	1.755911
362.617	1.757920
362.979	1.760154
363.341	1.760052
363.703	1.759895
364.064	1.759890
364.426	1.760651
364.788	1.756893
365.149	1.756459
365.511	1.756753
365.873	1.758240
366.234	1.757396
366.596	1.759276
366.957	1.757360
367.319	1.758393
367.680	1.759410
368.042	1.760287
368.403	1.760952
368.764	1.762343
369.126	1.761161
369.487	1.761772
369.848	1.760851
370.209	1.761228
370.570	1.758854
370.931	1.761457
371.293	1.761594
371.654	1.762601
372.015	1.763043
372.376	1.765528
372.737	1.766522
373.098	1.766604
373.458	1.766955
373.819	1.768428
374.180	1.769946
374.541	1.771301
374.902	1.771815
375.263	1.772100
375.623	1.771910
375.984	1.774151
376.345	1.772115
376.705	1.773351
377.066	1.775989
377.426	1.777260
377.787	1.778251
378.147	1.781748
378.508	1.781264
378.868	1.782811
379.228	1.781933
379.589	1.781913
379.949	1.782475
380.309	1.783676
380.670	1.785327
381.030	1.784271
381.390	1.785394
381.750	1.783161
382.110	1.782662
382.470	1.783936
382.830	1.784589
383.190	1.786299
383.550	1.784569
383.910	1.787712
384.270	1.788862
384.630	1.788136
384.990	1.788427
385.350	1.788496
385.709	1.787208
386.069	1.788615
386.429	1.787555
386.788	1.789665
387.148	1.791991
387.508	1.792446
387.867	1.792187
388.227	1.792235
388.586	1.794001
388.946	1.795677
389.305	1.797303
389.665	1.799263
390.024	1.799884
390.383	1.801383
390.743	1.800903
391.102	1.801533
391.461	1.799888
391.820	1.800160
392.179	1.799783
392.539	1.800130
392.898	1.802042
393.257	1.804583
393.616	1.805842
393.975	1.805804
394.334	1.805642
394.693	1.805246
395.051	1.807137
395.410	1.808083
395.769	1.808697
396.128	1.809879
396.487	1.808483
396.845	1.808975
397.204	1.807445
397.563	1.806948
397.921	1.807077
398.280	1.807363
398.638	1.806318
398.997	1.807407
399.355	1.805866
399.714	1.805826
400.072	1.803770
400.431	1.802039
400.789	1.801061
401.147	1.799757
401.506	1.800574
401.864	1.800219
402.222	1.799781
402.580	1.797476
402.938	1.798653
403.297	1.797114
403.655	1.795046
404.013	1.795740
404.371	1.794812
404.729	1.793644
405.087	1.793469
405.444	1.792473
405.802	1.791286
406.160	1.792957
406.518	1.792875
406.876	1.793374
407.233	1.793683
407.591	1.794926
407.949	1.796384
408.306	1.795360
408.664	1.795692
409.022	1.796504
409.379	1.797619
409.737	1.797148
410.094	1.796591
410.451	1.796492
410.809	1.797172
411.166	1.797411
411.523	1.797096
411.881	1.797600
412.238	1.799156
412.595	1.798308
412.952	1.798820
413.310	1.799318
413.667	1.800163
414.024	1.801403
414.381	1.801423
414.738	1.801148
415.095	1.800125
415.452	1.798386
415.809	1.798660
416.165	1.798927
416.522	1.797612
416.879	1.796937
417.236	1.797189
417.593	1.796156
417.949	1.794681
418.306	1.795329
418.663	1.797197
419.019	1.797760
419.376	1.796761
419.732	1.794592
420.089	1.796254
420.445	1.795671
420.802	1.796632
421.158	1.794470
421.514	1.792652
421.871	1.792305
422.227	1.791079
422.583	1.791351
422.939	1.790464
423.295	1.789513
423.652	1.788810
424.008	1.787447
424.364	1.786541
424.720	1.785465
425.076	1.785938
425.432	1.785337
425.788	1.785302
426.143	1.783583
426.499	1.782042
426.855	1.782402
427.211	1.782611
427.567	1.780884
427.922	1.779897
428.278	1.776768
428.634	1.777128
428.989	1.775743
429.345	1.774989
429.700	1.773696
430.056	1.773759
430.411	1.773753
430.767	1.773856
431.122	1.772743
431.478	1.772704
431.833	1.771495
432.188	1.769141
432.543	1.768613
432.899	1.766795
433.254	1.764387
433.609	1.763522
433.964	1.761984
434.319	1.760072
434.674	1.757634
435.029	1.756266
435.384	1.755013
435.739	1.754244
436.094	1.753294
436.449	1.752848
436.804	1.751750
437.158	1.751047
437.513	1.749912
437.868	1.748359
438.223	1.746900
438.577	1.744511
438.932	1.744103
439.287	1.742848
439.641	1.742349
439.996	1.741026
440.350	1.740454
440.704	1.739437
441.059	1.738574
441.413	1.736482
441.768	1.734107
442.122	1.733369
442.476	1.731948
442.830	1.730364
443.185	1.729446
443.539	1.726195
443.893	1.724368
444.247	1.721936
444.601	1.720670
444.955	1.717091
445.309	1.715267
445.663	1.712344
446.017	1.709781
446.371	1.706454
446.724	1.703820
447.078	1.701486
447.432	1.698473
447.786	1.694896
448.139	1.691243
448.493	1.687329
448.847	1.684892
449.200	1.682031
449.554	1.679585
449.907	1.676695
450.261	1.672441
450.614	1.668917
450.968	1.666255
451.321	1.662459
451.674	1.659294
452.027	1.655359
452.381	1.652816
452.734	1.648762
453.087	1.645368
453.440	1.641924
453.793	1.638573
454.146	1.634467
454.499	1.630870
454.852	1.627316
455.205	1.623826
455.558	1.621491
455.911	1.617595
456.264	1.613876
456.617	1.610623
456.970	1.606649
457.322	1.602838
457.675	1.600934
458.028	1.597737
458.380	1.594662
458.733	1.591640
459.086	1.588823
459.438	1.585705
459.791	1.581846
460.143	1.578580
460.496	1.575326
460.848	1.571729
461.200	1.567915
461.553	1.564778
461.905	1.562067
462.257	1.558302
462.609	1.555175
462.961	1.551262
463.314	1.548380
463.666	1.545215
464.018	1.542275
464.370	1.539065
464.722	1.535565
465.074	1.531337
465.426	1.528242
465.777	1.524577
466.129	1.521096
466.481	1.517781
466.833	1.514384
467.184	1.511424
467.536	1.507937
467.888	1.504557
468.239	1.501704
468.591	1.498094
468.943	1.494104
469.294	1.489738
469.646	1.485803
469.997	1.481231
470.348	1.477349
470.700	1.473463
471.051	1.470464
471.402	1.467034
471.754	1.463742
472.105	1.460957
472.456	1.458733
472.807	1.455451
473.158	1.452865
473.509	1.450293
473.860	1.447308
474.211	1.444687
474.562	1.442766
474.913	1.439952
475.264	1.437085
475.615	1.434324
475.966	1.431677
476.316	1.428858
476.667	1.426064
477.018	1.423583
477.368	1.421118
477.719	1.418320
478.070	1.415741
478.420	1.412574
478.771	1.409824
479.121	1.407474
479.472	1.404963
479.822	1.401935
480.172	1.399595
480.523	1.396850
480.873	1.393860
481.223	1.390383
481.573	1.387591
481.924	1.384374
482.274	1.381590
482.624	1.379213
482.974	1.376967
483.324	1.374982
483.674	1.373162
484.024	1.371400
484.374	1.369828
484.724	1.368047
485.073	1.366436
485.423	1.364538
485.773	1.362912
486.123	1.361263
486.472	1.359390
486.822	1.357577
487.172	1.355936
487.521	1.353925
487.871	1.352103
488.220	1.350247
488.570	1.348504
488.919	1.345858
489.268	1.342658
489.618	1.339359
489.967	1.335512
490.316	1.331029
490.666	1.326684
491.015	1.322687
491.364	1.318602
491.713	1.314827
492.062	1.311725
492.411	1.308571
492.760	1.305802
493.109	1.302876
493.458	1.299843
493.807	1.296971
494.156	1.294069
494.505	1.290998
494.853	1.288204
495.202	1.285173
495.551	1.282242
495.900	1.279147
496.248	1.276326
496.597	1.273650
496.945	1.270923
497.294	1.268004
497.642	1.265256
497.991	1.262244
498.339	1.259126
498.688	1.256680
499.036	1.254264
499.384	1.251513
499.732	1.248733
500.081	1.246103
500.429	1.243371
500.777	1.240646
501.125	1.238136
501.473	1.235423
501.821	1.232834
502.169	1.230306
502.517	1.227872
502.865	1.225458
503.213	1.223024
503.561	1.220586
503.908	1.218004
504.256	1.215311
504.604	1.212604
504.952	1.209997
505.299	1.207493
505.647	1.205136
505.994	1.202579
506.342	1.199815
506.689	1.197538
507.037	1.195335
507.384	1.192574
507.732	1.190055
508.079	1.187604
508.426	1.185210
508.774	1.182575
509.121	1.180142
509.468	1.177904
509.815	1.175562
510.162	1.173099
510.509	1.170772
510.856	1.168298
511.203	1.166056
511.550	1.163716
511.897	1.161550
512.244	1.159526
512.591	1.157012
512.938	1.154900
513.284	1.152575
513.631	1.150382
513.978	1.148057
514.324	1.145638
514.671	1.143520
515.018	1.141274
515.364	1.139187
515.711	1.136937
516.057	1.134841
516.403	1.132667
516.750	1.130340
517.096	1.128247
517.443	1.126155
517.789	1.124015
518.135	1.122002
518.481	1.120094
518.827	1.118307
519.173	1.116376
519.519	1.114308
519.865	1.112435
520.211	1.110409
520.557	1.108331
520.903	1.106297
521.249	1.103959
521.595	1.101936
521.941	1.099686
522.287	1.097498
522.632	1.095255
522.978	1.093070
523.324	1.090950
523.669	1.088817
524.015	1.086697
524.360	1.084530
524.706	1.082372
525.051	1.080466
525.397	1.078367
525.742	1.076006
526.087	1.074146
526.433	1.072134
526.778	1.070332
527.123	1.068824
527.468	1.066824
527.813	1.065126
528.158	1.063320
528.504	1.061484
528.849	1.059418
529.193	1.057615
529.538	1.055891
529.883	1.053736
530.228	1.051658
530.573	1.049740
530.918	1.047821
531.263	1.045797
531.607	1.043855
531.952	1.041930
532.296	1.039809
532.641	1.038013
532.986	1.036050
533.330	1.033510
533.675	1.031769
534.019	1.029515
534.363	1.027192
534.708	1.025080
535.052	1.022770
535.396	1.020576
535.741	1.018610
536.085	1.016342
536.429	1.014005
536.773	1.011535
537.117	1.009270
537.461	1.006803
537.805	1.004405
538.149	1.001915
538.493	0.999291
538.837	0.996713
539.181	0.994134
539.524	0.991435
539.868	0.988612
540.212	0.986065
540.556	0.983862
540.899	0.981075
541.243	0.978517
541.586	0.975890
541.930	0.973069
542.273	0.970497
542.617	0.967705
542.960	0.964754
543.304	0.961801
543.647	0.958961
543.990	0.955940
544.333	0.952994
544.677	0.950200
545.020	0.947104
545.363	0.943925
545.706	0.940994
546.049	0.937913
546.392	0.934944
546.735	0.932015
547.078	0.928779
547.421	0.925428
547.764	0.921926
548.106	0.918436
548.449	0.914793
548.792	0.911218
549.135	0.907815
549.477	0.904327
549.820	0.900863
550.162	0.897423
550.505	0.894038
550.847	0.890402
551.190	0.886685
551.532	0.882737
551.875	0.878579
552.217	0.874510
552.559	0.870568
552.901	0.866556
553.244	0.862615
553.586	0.858802
553.928	0.855038
554.270	0.851416
554.612	0.847892
554.954	0.844266
555.296	0.840517
555.638	0.836745
555.980	0.832724
556.322	0.828373
556.663	0.823867
557.005	0.819296
557.347	0.814928
557.689	0.810524
558.030	0.806221
558.372	0.801961
558.713	0.797757
559.055	0.793401
559.396	0.789141
559.738	0.784617
560.079	0.780193
560.421	0.775845
560.762	0.771575
561.103	0.767277
561.444	0.763127
561.786	0.758944
562.127	0.754773
562.468	0.750553
562.809	0.746307
563.150	0.741909
563.491	0.737575
563.832	0.732977
564.173	0.728250
564.514	0.723260
564.855	0.718229
565.195	0.713164
565.536	0.708075
565.877	0.703123
566.218	0.698304
566.558	0.693492
566.899	0.688985
567.239	0.684607
567.580	0.680521
567.920	0.676637
568.261	0.673034
568.601	0.669567
568.941	0.666250
569.282	0.663076
569.622	0.659972
569.962	0.656831
570.302	0.653721
570.643	0.650699
570.983	0.647828
571.323	0.645020
571.663	0.642282
572.003	0.639534
572.343	0.636745
572.683	0.633835
573.022	0.630805
573.362	0.627701
573.702	0.624585
574.042	0.621488
574.381	0.618442
574.721	0.615404
575.061	0.612476
575.400	0.609731
575.740	0.607007
576.079	0.604354
576.419	0.601553
576.758	0.598664
577.097	0.595700
577.437	0.592660
577.776	0.589575
578.115	0.586497
578.454	0.583554
578.794	0.580877
579.133	0.578422
579.472	0.576137
579.811	0.574002
580.150	0.571893
580.489	0.569709
580.828	0.567400
581.167	0.565064
581.505	0.562718
581.844	0.560408
582.183	0.558075
582.522	0.555770
582.860	0.553552
583.199	0.551423
583.538	0.549400
583.876	0.547388
584.215	0.545379
584.553	0.543332
584.891	0.541255
585.230	0.539117
585.568	0.536935
585.906	0.534656
586.245	0.532465
586.583	0.530383
586.921	0.528545
587.259	0.526834
587.597	0.525202
587.935	0.523512
588.273	0.521630
588.611	0.519582
588.949	0.517434
589.287	0.515254
589.625	0.513037
589.963	0.510918
590.300	0.508840
590.638	0.506869
590.976	0.504907
591.313	0.502908
591.651	0.500901
591.989	0.498931
592.326	0.497114
592.664	0.495402
593.001	0.493767
593.338	0.492285
593.676	0.490928
594.013	0.489523
594.350	0.488198
594.687	0.486949
595.025	0.485739
595.362	0.484486
595.699	0.483156
596.036	0.481761
596.373	0.480346
596.710	0.478915
597.047	0.477417
597.384	0.475959
597.720	0.474515
598.057	0.473120
598.394	0.471706
598.731	0.470344
599.067	0.468966
599.404	0.467572
599.741	0.466286
600.077	0.465075
600.414	0.463865
600.750	0.462785
601.087	0.461740
601.423	0.460645
601.759	0.459487
602.096	0.458359
602.432	0.457285
602.768	0.456183
603.104	0.455074
603.440	0.453957
603.776	0.452903
604.112	0.451875
604.448	0.450886
604.784	0.449893
605.120	0.448895
605.456	0.447989
605.792	0.447037
606.128	0.446116
606.463	0.445245
606.799	0.444289
607.135	0.443373
607.470	0.442489
607.806	0.441532
608.142	0.440599
608.477	0.439703
608.812	0.438825
609.148	0.437981
609.483	0.437096
609.819	0.436211
610.154	0.435301
610.489	0.434382
610.824	0.433460
611.159	0.432625
611.494	0.431731
611.830	0.430977
612.165	0.430328
612.500	0.429635
612.834	0.428955
613.169	0.428261
613.504	0.427475
613.839	0.426721
614.174	0.425927
614.509	0.425160
614.843	0.424406
615.178	0.423719
615.512	0.423092
615.847	0.422462
616.182	0.421780
616.516	0.421162
616.850	0.420506
617.185	0.419909
617.519	0.419296
617.853	0.418698
618.188	0.417930
618.522	0.417226
618.856	0.416470
619.190	0.415702
619.524	0.414944
619.858	0.414204
620.192	0.413545
620.526	0.412930
620.860	0.412333
621.194	0.411725
621.528	0.411099
621.862	0.410534
622.195	0.409966
622.529	0.409278
622.863	0.408683
623.196	0.408073
623.530	0.407474
623.864	0.406964
624.197	0.406447
624.530	0.405874
624.864	0.405352
625.197	0.404913
625.531	0.404411
625.864	0.403832
626.197	0.403190
626.530	0.402619
626.863	0.402006
627.196	0.401322
627.529	0.400667
627.862	0.400001
628.195	0.399336
628.528	0.398728
628.861	0.398046
629.194	0.397414
629.527	0.396882
629.860	0.396328
630.192	0.395731
630.525	0.395126
630.858	0.394427
631.190	0.393753
631.523	0.393057
631.855	0.392264
632.188	0.391625
632.520	0.390954
632.852	0.390387
633.185	0.389815
633.517	0.389153
633.849	0.388631
634.182	0.388179
634.514	0.387676
634.846	0.387204
635.178	0.386828
635.510	0.386372
635.842	0.385975
636.174	0.385554
636.506	0.385137
636.837	0.384613
637.169	0.384192
637.501	0.383689
637.833	0.383345
638.164	0.382864
638.496	0.382483
638.828	0.381903
639.159	0.381337
639.491	0.380762
639.822	0.380086
640.154	0.379343
640.485	0.378646
640.816	0.377928
641.147	0.377259
641.479	0.376586
641.810	0.375882
642.141	0.375210
642.472	0.374512
642.803	0.373851
643.134	0.373089
643.465	0.372435
643.796	0.371970
644.127	0.371437
644.458	0.370908
644.789	0.370520
645.119	0.370253
645.450	0.370108
645.781	0.370228
646.111	0.370213
646.442	0.370217
646.773	0.370062
647.103	0.369916
647.433	0.369744
647.764	0.369580
648.094	0.369241
648.425	0.369065
648.755	0.368934
649.085	0.368714
649.415	0.368557
649.745	0.368484
650.075	0.368481
650.405	0.368248
650.735	0.366358
651.065	0.357585
651.395	0.351136
651.725	0.336946
652.055	0.295722
652.385	0.256380
652.715	0.223480
653.044	0.196847
653.374	0.183450
653.704	0.186211
654.033	0.200812
654.363	0.209374
654.692	0.214249
655.022	0.217058
655.351	0.218744
655.680	0.219737
656.010	0.220257
656.339	0.220466
656.668	0.220489
656.997	0.220409
657.326	0.220260
657.655	0.220029
657.984	0.218530
658.313	0.212284
658.642	0.203180
658.971	0.203960
659.300	0.214093
659.629	0.235181
659.958	0.271920
660.286	0.317710
660.615	0.351626
660.944	0.348944
661.272	0.346500
661.601	0.346057
661.929	0.347382
662.258	0.349548
662.586	0.351429
662.915	0.352504
663.243	0.352946
663.571	0.352922
663.899	0.352734
664.228	0.352553
664.556	0.352199
664.884	0.351838
665.212	0.351765
665.540	0.351512
665.868	0.351291
666.196	0.351183
666.524	0.350979
666.852	0.350613
667.179	0.350393
667.507	0.350135
667.835	0.350038
668.162	0.349860
668.490	0.349743
668.818	0.349734
669.145	0.349547
669.473	0.349495
669.800	0.349427
670.127	0.349316
670.455	0.349203
670.782	0.349051
671.109	0.348902
671.436	0.348859
671.764	0.348781
672.091	0.348608
672.418	0.348579
672.745	0.348393
673.072	0.348224
673.399	0.347985
673.726	0.347878
674.053	0.347713
674.379	0.347543
674.706	0.347277
675.033	0.346972
675.359	0.346618
675.686	0.346197
676.013	0.345895
676.339	0.345543
676.666	0.345272
676.992	0.345095
677.318	0.344899
677.645	0.344729
677.971	0.344523
678.297	0.344302
678.624	0.344181
678.950	0.343929
679.276	0.343514
679.602	0.343294
679.928	0.342966
680.254	0.342742
680.580	0.342548
680.906	0.342339
681.232	0.342194
681.558	0.342153
681.883	0.342174
682.209	0.342181
682.535	0.342142
682.860	0.342072
683.186	0.341961
683.511	0.341747
683.837	0.341509
684.162	0.341318
684.488	0.341142
684.813	0.340881
685.138	0.340706
685.464	0.340473
685.789	0.340251
686.114	0.340149
686.439	0.339917
686.764	0.339816
687.089	0.339631
687.414	0.339470
687.739	0.339365
688.064	0.339202
688.389	0.338962
688.714	0.338603
689.039	0.338127
689.363	0.337751
689.688	0.337476
690.013	0.337101
690.337	0.336881
690.662	0.336628
690.986	0.336418
691.311	0.336106
691.635	0.335964
691.959	0.335805
692.284	0.335506
692.608	0.335271
692.932	0.335061
693.256	0.335067
693.580	0.334996
693.904	0.335013
694.228	0.334963
694.552	0.334933
694.876	0.334804
695.200	0.334483
695.524	0.334272
695.848	0.334034
696.172	0.333684
696.495	0.333173
696.819	0.332916
697.143	0.332527
697.466	0.332230
697.790	0.331825
698.113	0.331597
698.437	0.331288
698.760	0.331041
699.083	0.330934
699.407	0.330847
699.730	0.330643
700.053	0.330430
700.376	0.330132
700.699	0.329640
701.022	0.329118
701.345	0.328443
701.668	0.327640
701.991	0.327072
702.314	0.326298
702.637	0.325742
702.960	0.325347
703.283	0.325030
703.605	0.324668
703.928	0.324652
704.251	0.324722
704.573	0.324650
704.896	0.324569
705.218	0.324292
705.540	0.324015
705.863	0.323607
706.185	0.323163
706.507	0.322725
706.830	0.322100
707.152	0.321509
707.474	0.321094
707.796	0.320627
708.118	0.320177
708.440	0.319982
708.762	0.319687
709.084	0.319543
709.406	0.319333
709.728	0.319070
710.049	0.318765
710.371	0.318530
710.693	0.318127
711.014	0.317576
711.336	0.317269
711.658	0.316901
711.979	0.316757
712.301	0.316479
712.622	0.316343
712.943	0.316139
713.265	0.315973
713.586	0.315803
713.907	0.315705
714.228	0.315665
714.549	0.315608
714.870	0.315615
715.191	0.315607
715.512	0.315585
715.833	0.315598
716.154	0.315496
716.475	0.315345
716.796	0.315137
717.117	0.314760
717.437	0.314303
717.758	0.313920
718.078	0.313403
718.399	0.313016
718.719	0.312530
719.040	0.312171
719.360	0.311804
719.681	0.311538
720.001	0.311373
720.321	0.311336
720.642	0.311178
720.962	0.310869
721.282	0.310691
721.602	0.310495
721.922	0.310296
722.242	0.310150
722.562	0.309881
722.882	0.309739
723.202	0.309568
723.521	0.309589
723.841	0.309536
724.161	0.309472
724.481	0.309361
724.800	0.309285
725.120	0.309161
725.439	0.309185
725.759	0.309099
726.078	0.309139
726.398	0.309090
726.717	0.309117
727.036	0.309094
727.355	0.309173
727.675	0.309386
727.994	0.309521
728.313	0.309703
728.632	0.309805
728.951	0.309901
729.270	0.309763
729.589	0.309544
729.908	0.309347
730.226	0.309186
730.545	0.309047
730.864	0.308937
731.182	0.308915
731.501	0.308869
731.820	0.308862
732.138	0.308768
732.457	0.308569
732.775	0.308367
733.093	0.308239
733.412	0.308055
733.730	0.307891
734.048	0.307668
734.367	0.307247
734.685	0.306878
735.003	0.306412
735.321	0.306052
735.639	0.305651
735.957	0.305477
736.275	0.305344
736.593	0.305322
736.910	0.305152
737.228	0.305021
737.546	0.304808
737.863	0.304479
738.181	0.304213
738.499	0.303813
738.816	0.303483
739.134	0.303217
739.451	0.302995
739.768	0.302823
740.086	0.302510
740.403	0.302141
740.720	0.301843
741.038	0.301667
741.355	0.301345
741.672	0.301029
741.989	0.300647
742.306	0.300344
742.623	0.299934
742.940	0.299401
743.257	0.298731
743.573	0.298160
743.890	0.297574
744.207	0.297127
744.523	0.296913
744.840	0.296565
745.157	0.296354
745.473	0.296046
745.790	0.295971
746.106	0.295797
746.422	0.295502
746.739	0.295349
747.055	0.295300
747.371	0.295173
747.687	0.295109
748.004	0.295194
748.320	0.295241
748.636	0.295245
748.952	0.295235
749.268	0.295254
749.584	0.295356
749.899	0.295493
750.215	0.295478
750.531	0.295544
750.847	0.295696
751.162	0.295670
751.478	0.295783
751.793	0.295694
752.109	0.295642
752.424	0.295560
752.740	0.295573
753.055	0.295705
753.370	0.295786
753.686	0.296038
754.001	0.296465
754.316	0.296777
754.631	0.297060
754.946	0.297255
755.261	0.297435
755.576	0.297528
755.891	0.297492
756.206	0.297421
756.521	0.297387
756.836	0.297490
757.150	0.297523
757.465	0.297510
757.780	0.297497
758.094	0.297534
758.409	0.297563
758.723	0.297642
759.038	0.297650
759.352	0.297561
759.667	0.297436
759.981	0.297291
760.295	0.297034
760.609	0.296681
760.923	0.296423
761.238	0.296074
761.552	0.295821
761.866	0.295569
762.180	0.295430
762.493	0.295437
762.807	0.295393
763.121	0.295223
763.435	0.294911
763.749	0.294534
764.062	0.294196
764.376	0.293920
764.689	0.293494
765.003	0.293264
765.316	0.293187
765.630	0.293239
765.943	0.293237
766.257	0.293094
766.570	0.292999
766.883	0.292762
767.196	0.292531
767.509	0.292116
767.822	0.291829
768.135	0.291523
768.448	0.291250
768.761	0.290808
769.074	0.290444
769.387	0.290154
769.700	0.289860
770.013	0.289708
770.325	0.289656
770.638	0.289565
770.950	0.289401
771.263	0.289254
771.575	0.288994
771.888	0.288495
772.200	0.287889
772.513	0.287304
772.825	0.286894
773.137	0.286379
773.449	0.286004
773.761	0.285499
774.074	0.285204
774.386	0.284828
774.698	0.284506
775.010	0.284054
775.321	0.283757
775.633	0.283443
775.945	0.283220
776.257	0.283193
776.568	0.282982
776.880	0.282860
777.192	0.282690
777.503	0.282546
777.815	0.282629
778.126	0.282701
778.438	0.282864
778.749	0.283195
779.060	0.283367
779.372	0.283460
779.683	0.283635
779.994	0.283771
780.305	0.283869
780.616	0.283900
780.927	0.283953
781.238	0.283759
781.549	0.283729
781.860	0.283736
782.171	0.283713
782.481	0.283616
782.792	0.283406
783.103	0.283431
783.413	0.283391
783.724	0.283176
784.034	0.283087
784.345	0.282773
784.655	0.282552
784.966	0.282272
785.276	0.281994
785.586	0.281753
785.896	0.281571
786.207	0.281423
786.517	0.281332
786.827	0.281244
787.137	0.281120
787.447	0.280954
787.757	0.281044
788.066	0.280943
788.376	0.280914
788.686	0.280781
788.996	0.280721
789.305	0.280684
789.615	0.280415
789.925	0.280223
790.234	0.280287
790.544	0.280192
790.853	0.280279
791.162	0.280303
791.472	0.280413
791.781	0.280399
792.090	0.280528
792.399	0.280428
792.708	0.280264
793.017	0.280072
793.326	0.279814
793.635	0.279592
793.944	0.279379
794.253	0.279010
794.562	0.278791
794.871	0.278626
795.179	0.278535
795.488	0.278383
795.797	0.278303
796.105	0.278163
796.414	0.277961
796.722	0.277842
797.031	0.277698
797.339	0.277240
797.647	0.276794
797.956	0.276160
798.264	0.275534
798.572	0.274786
798.880	0.274411
799.188	0.273882
799.496	0.273389
799.804	0.273308
800.112	0.273110
800.420	0.272820
800.728	0.272696
801.035	0.272483
801.343	0.271988
801.651	0.271240
801.958	0.270805
802.266	0.270447
802.573	0.270533
802.881	0.270696
803.188	0.270546
803.496	0.270676
803.803	0.271017
804.110	0.271054
804.417	0.270908
804.724	0.270729
805.032	0.270638
805.339	0.270409
805.646	0.270253
805.953	0.270065
806.259	0.269834
806.566	0.269680
806.873	0.269531
807.180	0.269496
807.486	0.269475
807.793	0.269618
808.100	0.269652
808.406	0.269532
808.713	0.269412
809.019	0.268838
809.326	0.268225
809.632	0.267741
809.938	0.266869
810.244	0.265923
810.551	0.265216
810.857	0.264820
811.163	0.264570
811.469	0.264318
811.775	0.263941
812.081	0.263681
812.387	0.263444
812.692	0.263047
812.998	0.262853
813.304	0.262836
813.610	0.262749
813.915	0.262536
814.221	0.262183
814.526	0.262198
814.832	0.262013
815.137	0.261869
815.443	0.261774
815.748	0.261707
816.053	0.261409
816.358	0.261192
816.664	0.261144
816.969	0.261176
817.274	0.261115
817.579	0.260788
817.884	0.260603
818.189	0.260536
818.493	0.260530
818.798	0.260447
819.103	0.260392
819.408	0.259923
819.712	0.259523
820.017	0.259086
820.321	0.258792
820.626	0.258567
820.930	0.257985
821.235	0.257494
821.539	0.257184
821.843	0.256933
822.148	0.256659
822.452	0.256677
822.756	0.256697
823.060	0.256279
823.364	0.256089
823.668	0.255806
823.972	0.255618
824.276	0.255132
824.580	0.255088
824.883	0.255145
825.187	0.254896
825.491	0.254672
825.795	0.254773
826.098	0.254958
826.402	0.254666
826.705	0.254568
827.008	0.254104
827.312	0.253879
827.615	0.253858
827.918	0.253088
828.222	0.252969
828.525	0.252690
828.828	0.252513
829.131	0.252143
829.434	0.251930
829.737	0.251080
830.040	0.250206
830.343	0.249561
830.645	0.249410
830.948	0.248746
831.251	0.247935
831.553	0.247578
831.856	0.247043
832.159	0.247000
832.461	0.246347
832.764	0.246424
833.066	0.245902
833.368	0.246045
833.671	0.246121
833.973	0.245657
834.275	0.245858
834.577	0.245166
834.879	0.244926
835.181	0.244314
835.483	0.243810
835.785	0.243413
836.087	0.243068
836.389	0.242602
836.690	0.241651
836.992	0.240806
837.294	0.238908
837.595	0.237763
837.897	0.236642
838.198	0.235835
838.500	0.234497
838.801	0.233472
839.103	0.232302
839.404	0.231205
839.705	0.230068
840.006	0.229105
840.307	0.229379
840.608	0.228650
840.910	0.229046
841.210	0.228340
841.511	0.228126
841.812	0.228293
842.113	0.228024
842.414	0.227779
842.715	0.227434
843.015	0.226929
843.316	0.225708
843.616	0.226071
843.917	0.224475
844.217	0.223774
844.518	0.222535
844.818	0.221265
845.118	0.220154
845.419	0.220272
845.719	0.220310
846.019	0.219718
846.319	0.219507
846.619	0.218243
846.919	0.218949
847.219	0.218163
847.519	0.217796
847.819	0.217429
848.118	0.216275
848.418	0.215741
848.718	0.216166
849.017	0.217004
849.317	0.217888
849.616	0.219154
849.916	0.220697
850.215	0.222640
850.515	0.223883
850.814	0.225549
851.113	0.226784
851.412	0.227466
851.712	0.227468
852.011	0.227566
852.310	0.228261
852.609	0.228549
852.908	0.229003
853.206	0.228953
853.505	0.229150
853.804	0.229469
854.103	0.229495
854.401	0.229682
854.700	0.229839
854.999	0.229420
855.297	0.229141
855.595	0.229145
855.894	0.228907
856.192	0.228439
856.491	0.227840
856.789	0.227130
857.087	0.226019
857.385	0.224757
857.683	0.224490
857.981	0.223447
858.279	0.222648
858.577	0.221065
858.875	0.219995
859.173	0.218870
859.471	0.218712
859.768	0.218467
860.066	0.217696
860.363	0.216699
860.661	0.216020
860.959	0.215858
861.256	0.216338
861.553	0.216458
861.851	0.214796
862.148	0.214219
862.445	0.213113
862.742	0.212272
863.039	0.211400
863.337	0.210399
863.634	0.209830
863.931	0.208904
864.227	0.208657
864.524	0.209122
864.821	0.209386
865.118	0.208771
865.415	0.208242
865.711	0.206819
866.008	0.205141
866.304	0.204535
866.601	0.205036
866.897	0.204602
867.194	0.203868
867.490	0.202858
867.786	0.201887
868.082	0.203046
868.379	0.203283
868.675	0.203736
868.971	0.203791
869.267	0.204180
869.563	0.205111
869.859	0.204420
870.154	0.204441
870.450	0.205051
870.746	0.203691
871.042	0.203360
871.337	0.203748
871.633	0.203852
871.928	0.204101
872.224	0.204168
872.519	0.203217
872.815	0.202741
873.110	0.202655
873.405	0.201778
873.700	0.200557
873.995	0.200204
874.291	0.199746
874.586	0.199178
874.881	0.199170
875.175	0.198787
875.470	0.198900
875.765	0.198862
876.060	0.199920
876.355	0.199935
876.649	0.199964
876.944	0.200682
877.238	0.201224
877.533	0.201788
877.827	0.202248
878.122	0.202688
878.416	0.203210
878.710	0.203973
879.005	0.203022
879.299	0.202820
879.593	0.202535
879.887	0.202933
880.181	0.202683
880.475	0.202484
880.769	0.201938
881.063	0.201439
881.356	0.201973
881.650	0.201232
881.944	0.200178
882.238	0.196580
882.531	0.184250
882.825	0.186652
883.118	0.183998
883.412	0.193500
883.705	0.186909
883.998	0.191748
884.291	0.202926
884.585	0.191686
884.878	0.185922
>>>>>>>>>> END of Data <<<<<<<<<<
>>>>>>>>>> Raw Data Start <<<<<<<<
190.664	-407
191.040	9
191.415	9
191.791	8
192.166	11
192.542	10
192.917	8
193.293	5
193.668	8
194.044	7
194.419	-10
194.794	10
195.170	10
195.545	10
195.920	10
196.296	11
196.671	11
197.046	11
197.421	12
197.796	12
198.171	13
198.546	14
198.922	14
199.297	14
199.672	15
200.047	15
200.422	15
200.796	15
201.171	16
201.546	15
201.921	15
202.296	15
202.671	15
203.045	15
203.420	15
203.795	15
204.170	15
204.544	15
204.919	15
205.294	15
205.668	15
206.043	14
206.417	14
206.792	14
207.166	13
207.541	13
207.915	12
208.289	13
208.664	12
209.038	12
209.412	13
209.787	13
210.161	13
210.535	13
210.909	13
211.284	13
211.658	13
212.032	13
212.406	13
212.780	13
213.154	13
213.528	13
213.902	13
214.276	13
214.650	13
215.024	14
215.398	14
215.772	13
216.145	13
216.519	13
216.893	13
217.267	13
217.640	13
218.014	14
218.388	14
218.761	14
219.135	14
219.508	14
219.882	14
220.256	14
220.629	14
221.003	14
221.376	14
221.749	14
222.123	13
222.496	14
222.869	14
223.243	14
223.616	14
223.989	14
224.362	14
224.736	14
225.109	15
225.482	15
225.855	14
226.228	14
226.601	14
226.974	14
227.347	14
227.720	14
228.093	14
228.466	14
228.839	14
229.212	14
229.585	14
229.957	14
230.330	15
230.703	15
231.076	15
231.448	15
231.821	15
232.194	15
232.566	15
232.939	15
233.311	14
233.684	15
234.056	15
234.429	15
234.801	14
235.174	15
235.546	15
235.918	15
236.291	15
236.663	15
237.035	15
237.408	15
237.780	15
238.152	15
238.524	15
238.896	15
239.268	14
239.641	15
240.013	14
240.385	14
240.757	14
241.129	14
241.500	14
241.872	14
242.244	14
242.616	14
242.988	13
243.360	14
243.731	13
244.103	14
244.475	13
244.847	14
245.218	14
245.590	14
245.961	13
246.333	13
246.705	13
247.076	13
247.448	13
247.819	13
248.190	14
248.562	14
248.933	14
249.305	14
249.676	14
250.047	14
250.418	14
250.790	14
251.161	14
251.532	14
251.903	14
252.274	14
252.645	14
253.016	13
253.387	14
253.758	14
254.129	14
254.500	14
254.871	15
255.242	15
255.613	15
255.984	15
256.355	15
256.725	15
257.096	15
257.467	15
257.838	15
258.208	15
258.579	15
258.949	15
259.320	16
259.690	16
260.061	16
260.431	16
260.802	16
261.172	16
261.543	15
261.913	16
262.283	16
262.654	15
263.024	15
263.394	15
263.764	15
264.135	15
264.505	15
264.875	15
265.245	15
265.615	15
265.985	15
266.355	15
266.725	15
267.095	15
267.465	15
267.835	15
268.205	15
268.575	15
268.944	15
269.314	15
269.684	15
270.054	15
270.423	15
270.793	15
271.163	15
271.532	15
271.902	15
272.271	15
272.641	15
273.010	15
273.380	15
273.749	16
274.119	16
274.488	16
274.857	15
275.227	16
275.596	16
275.965	16
276.335	16
276.704	16
277.073	16
277.442	16
277.811	17
278.180	17
278.549	16
278.918	17
279.287	17
279.656	17
280.025	17
280.394	17
280.763	17
281.132	17
281.501	17
281.869	17
282.238	16
282.607	16
282.976	16
283.344	16
283.713	16
284.081	16
284.450	15
284.819	16
285.187	16
285.556	16
285.924	15
286.292	16
286.661	16
287.029	15
287.398	16
287.766	16
288.134	16
288.502	16
288.871	16
289.239	16
289.607	16
289.975	16
290.343	16
290.711	16
291.079	16
291.447	16
291.815	16
292.183	16
292.551	16
292.919	16
293.287	16
293.655	16
294.022	16
294.390	16
294.758	16
295.126	16
295.493	16
295.861	16
296.229	16
296.596	15
296.964	15
297.331	15
297.699	15
298.066	15
298.434	16
298.801	16
299.168	16
299.536	15
299.903	16
300.270	16
300.638	16
301.005	16
301.372	16
301.739	16
302.106	16
302.473	16
302.840	16
303.207	16
303.574	16
303.941	16
304.308	16
304.675	17
305.042	16
305.409	16
305.776	16
306.143	16
306.509	16
306.876	16
307.243	16
307.610	16
307.976	16
308.343	16
308.709	16
309.076	16
309.442	16
309.809	16
310.175	15
310.542	16
310.908	16
311.275	16
311.641	16
312.007	16
312.373	16
312.740	17
313.106	17
313.472	17
313.838	17
314.204	17
314.570	17
314.936	17
315.302	17
315.668	18
316.034	17
316.400	17
316.766	18
317.132	18
317.498	18
317.864	18
318.230	18
318.595	18
318.961	18
319.327	18
319.692	19
320.058	19
320.424	20
320.789	20
321.155	20
321.520	20
321.886	20
322.251	21
322.616	21
322.982	21
323.347	21
323.712	22
324.078	22
324.443	23
324.808	23
325.173	24
325.539	24
325.904	25
326.269	25
326.634	26
326.999	26
327.364	27
327.729	27
328.094	27
328.459	27
328.823	28
329.188	29
329.553	29
329.918	30
330.283	30
330.647	30
331.012	31
331.377	31
331.741	32
332.106	32
332.470	32
332.835	33
333.199	34
333.564	34
333.928	34
334.293	35
334.657	35
335.021	36
335.386	36
335.750	37
336.114	38
336.478	38
336.843	39
337.207	39
337.571	40
337.935	40
338.299	42
338.663	42
339.027	43
339.391	44
339.755	44
340.119	45
340.483	46
340.846	46
341.210	47
341.574	48
341.938	49
342.301	49
342.665	50
343.029	51
343.392	51
343.756	52
344.119	53
344.483	53
344.846	53
345.210	54
345.573	55
345.937	55
346.300	56
346.663	57
347.027	57
347.390	58
347.753	58
348.116	58
348.479	59
348.843	60
349.206	60
349.569	61
349.932	61
350.295	62
350.658	62
351.021	63
351.383	62
351.746	63
352.109	63
352.472	64
352.835	65
353.197	65
353.560	65
353.923	66
354.285	66
354.648	67
355.011	67
355.373	68
355.736	68
356.098	69
356.461	69
356.823	69
357.185	69
357.548	70
357.910	70
358.272	71
358.635	71
358.997	72
359.359	72
359.721	73
360.083	73
360.445	73
360.807	74
361.169	74
361.531	74
361.893	75
362.255	75
362.617	75
362.979	75
363.341	75
363.703	76
364.064	76
364.426	76
364.788	77
365.149	78
365.511	78
365.873	78
366.234	79
366.596	79
366.957	79
367.319	79
367.680	80
368.042	80
368.403	80
368.764	80
369.126	80
369.487	80
369.848	80
370.209	81
370.570	81
370.931	81
371.293	81
371.654	81
372.015	81
372.376	80
372.737	80
373.098	81
373.458	81
373.819	81
374.180	81
374.541	81
374.902	81
375.263	81
375.623	82
375.984	82
376.345	82
376.705	82
377.066	82
377.426	82
377.787	82
378.147	82
378.508	83
378.868	83
379.228	83
379.589	83
379.949	83
380.309	83
380.670	83
381.030	84
381.390	84
381.750	84
382.110	85
382.470	85
382.830	85
383.190	84
383.550	85
383.910	85
384.270	85
384.630	85
384.990	85
385.350	86
385.709	86
386.069	86
386.429	87
386.788	87
387.148	86
387.508	86
387.867	87
388.227	87
388.586	87
388.946	87
389.305	88
389.665	88
390.024	88
390.383	88
390.743	89
391.102	89
391.461	90
391.820	90
392.179	90
392.539	90
392.898	90
393.257	90
393.616	90
393.975	90
394.334	91
394.693	92
395.051	92
395.410	92
395.769	93
396.128	93
396.487	94
396.845	94
397.204	94
397.563	94
397.921	94
398.280	94
398.638	94
398.997	94
399.355	95
399.714	95
400.072	95
400.431	96
400.789	96
401.147	97
401.506	96
401.864	97
402.222	97
402.580	97
402.938	96
403.297	97
403.655	97
404.013	96
404.371	96
404.729	97
405.087	97
405.444	97
405.802	97
406.160	97
406.518	97
406.876	97
407.233	97
407.591	96
407.949	96
408.306	96
408.664	96
409.022	96
409.379	96
409.737	96
410.094	96
410.451	96
410.809	96
411.166	96
411.523	96
411.881	96
412.238	96
412.595	96
412.952	96
413.310	96
413.667	96
414.024	96
414.381	96
414.738	96
415.095	96
415.452	96
415.809	96
416.165	96
416.522	97
416.879	97
417.236	97
417.593	98
417.949	99
418.306	99
418.663	100
419.019	100
419.376	102
419.732	103
420.089	103
420.445	104
420.802	104
421.158	106
421.514	106
421.871	107
422.227	108
422.583	108
422.939	108
423.295	109
423.652	109
424.008	110
424.364	110
424.720	110
425.076	110
425.432	110
425.788	110
426.143	110
426.499	111
426.855	111
427.211	111
427.567	111
427.922	112
428.278	112
428.634	112
428.989	112
429.345	113
429.700	113
430.056	113
430.411	113
430.767	114
431.122	114
431.478	114
431.833	115
432.188	116
432.543	116
432.899	116
433.254	116
433.609	116
433.964	116
434.319	116
434.674	116
435.029	116
435.384	116
435.739	117
436.094	117
436.449	118
436.804	118
437.158	119
437.513	120
437.868	121
438.223	122
438.577	124
438.932	125
439.287	127
439.641	128
439.996	129
440.350	130
440.704	132
441.059	133
441.413	135
441.768	136
442.122	138
442.476	139
442.830	140
443.185	141
443.539	143
443.893	144
444.247	146
444.601	146
444.955	147
445.309	148
445.663	148
446.017	149
446.371	149
446.724	150
447.078	150
447.432	150
447.786	150
448.139	151
448.493	151
448.847	151
449.200	151
449.554	150
449.907	150
450.261	151
450.614	151
450.968	151
451.321	151
451.674	151
452.027	151
452.381	151
452.734	152
453.087	152
453.440	153
453.793	153
454.146	154
454.499	155
454.852	157
455.205	158
455.558	160
455.911	161
456.264	163
456.617	165
456.970	166
457.322	168
457.675	169
458.028	170
458.380	171
458.733	172
459.086	173
459.438	175
459.791	177
460.143	178
460.496	180
460.848	183
461.200	185
461.553	188
461.905	190
462.257	192
462.609	194
462.961	197
463.314	198
463.666	200
464.018	201
464.370	203
464.722	205
465.074	207
465.426	208
465.777	210
466.129	212
466.481	213
466.833	214
467.184	215
467.536	215
467.888	215
468.239	215
468.591	215
468.943	216
469.294	217
469.646	218
469.997	219
470.348	221
470.700	223
471.051	225
471.402	228
471.754	232
472.105	235
472.456	238
472.807	243
473.158	247
473.509	252
473.860	257
474.211	263
474.562	268
474.913	274
475.264	280
475.615	286
475.966	293
476.316	299
476.667	305
477.018	311
477.368	317
477.719	324
478.070	330
478.420	336
478.771	342
479.121	348
479.472	354
479.822	360
480.172	366
480.523	374
480.873	384
481.223	401
481.573	425
481.924	456
482.274	490
482.624	526
482.974	562
483.324	594
483.674	618
484.024	635
484.374	646
484.724	654
485.073	660
485.423	665
485.773	669
486.123	674
486.472	678
486.822	683
487.172	686
487.521	690
487.871	692
488.220	691
488.570	683
488.919	668
489.268	646
489.618	621
489.967	594
490.316	566
490.666	542
491.015	525
491.364	516
491.713	512
492.062	511
492.411	513
492.760	515
493.109	518
493.458	521
493.807	524
494.156	526
494.505	529
494.853	532
495.202	535
495.551	539
495.900	543
496.248	547
496.597	551
496.945	555
497.294	559
497.642	563
497.991	568
498.339	574
498.688	580
499.036	585
499.384	590
499.732	595
500.081	599
500.429	603
500.777	606
501.125	610
501.473	613
501.821	617
502.169	620
502.517	623
502.865	626
503.213	627
503.561	629
503.908	631
504.256	632
504.604	633
504.952	634
505.299	635
505.647	634
505.994	633
506.342	633
506.689	632
507.037	631
507.384	631
507.732	631
508.079	632
508.426	632
508.774	633
509.121	633
509.468	633
509.815	633
510.162	633
510.509	633
510.856	633
511.203	633
511.550	633
511.897	633
512.244	632
512.591	632
512.938	632
513.284	632
513.631	631
513.978	631
514.324	630
514.671	629
515.018	628
515.364	627
515.711	627
516.057	626
516.403	626
516.750	625
517.096	624
517.443	622
517.789	621
518.135	619
518.481	618
518.827	617
519.173	616
519.519	615
519.865	614
520.211	613
520.557	612
520.903	612
521.249	612
521.595	612
521.941	612
522.287	612
522.632	612
522.978	612
523.324	613
523.669	613
524.015	614
524.360	616
524.706	619
525.051	622
525.397	626
525.742	631
526.087	635
526.433	639
526.778	642
527.123	645
527.468	648
527.813	650
528.158	652
528.504	655
528.849	659
529.193	664
529.538	669
529.883	676
530.228	685
530.573	693
530.918	703
531.263	712
531.607	721
531.952	728
532.296	735
532.641	741
532.986	745
533.330	750
533.675	754
534.019	761
534.363	768
534.708	777
535.052	787
535.396	798
535.741	808
536.085	817
536.429	826
536.773	834
537.117	839
537.461	845
537.805	850
538.149	855
538.493	861
538.837	867
539.181	874
539.524	883
539.868	894
540.212	905
540.556	916
540.899	929
541.243	940
541.586	950
541.930	958
542.273	964
542.617	969
542.960	975
543.304	982
543.647	990
543.990	1001
544.333	1013
544.677	1024
545.020	1036
545.363	1047
545.706	1055
546.049	1062
546.392	1067
546.735	1069
547.078	1072
547.421	1074
547.764	1078
548.106	1082
548.449	1087
548.792	1095
549.135	1104
549.477	1115
549.820	1126
550.162	1136
550.505	1144
550.847	1151
551.190	1156
551.532	1161
551.875	1166
552.217	1172
552.559	1179
552.901	1188
553.244	1197
553.586	1208
553.928	1219
554.270	1229
554.612	1238
554.954	1246
555.296	1253
555.638	1260
555.980	1267
556.322	1276
556.663	1288
557.005	1303
557.347	1320
557.689	1339
558.030	1358
558.372	1375
558.713	1391
559.055	1408
559.396	1423
559.738	1440
560.079	1458
560.421	1478
560.762	1500
561.103	1525
561.444	1551
561.786	1579
562.127	1608
562.468	1640
562.809	1675
563.150	1713
563.491	1753
563.832	1799
564.173	1850
564.514	1909
564.855	1979
565.195	2064
565.536	2165
565.877	2282
566.218	2414
566.558	2564
566.899	2728
567.239	2906
567.580	3092
567.920	3285
568.261	3480
568.601	3680
568.941	3887
569.282	4101
569.622	4323
569.962	4556
570.302	4804
570.643	5061
570.983	5321
571.323	5574
571.663	5818
572.003	6053
572.343	6275
572.683	6485
573.022	6700
573.362	6927
573.702	7161
574.042	7397
574.381	7625
574.721	7845
575.061	8057
575.400	8250
575.740	8425
576.079	8582
576.419	8740
576.758	8917
577.097	9124
577.437	9350
577.776	9590
578.115	9842
578.454	10097
578.794	10333
579.133	10520
579.472	10655
579.811	10741
580.150	10782
580.489	10790
580.828	10782
581.167	10776
581.505	10778
581.844	10784
582.183	10790
582.522	10804
582.860	10824
583.199	10842
583.538	10845
583.876	10815
584.215	10739
584.553	10613
584.891	10441
585.230	10225
585.568	9984
585.906	9737
586.245	9514
586.583	9322
586.921	9163
587.259	9019
587.597	8873
587.935	8722
588.273	8568
588.611	8425
588.949	8301
589.287	8198
589.625	8120
589.963	8061
590.300	8016
590.638	7976
590.976	7929
591.313	7873
591.651	7819
591.989	7774
592.326	7738
592.664	7709
593.001	7686
593.338	7675
593.676	7673
594.013	7687
594.350	7724
594.687	7780
595.025	7843
595.362	7901
595.699	7945
596.036	7978
596.373	7994
596.710	7989
597.047	7970
597.384	7945
597.720	7914
598.057	7890
598.394	7876
598.731	7871
599.067	7880
599.404	7903
599.741	7943
600.077	7995
600.414	8055
600.750	8115
601.087	8163
601.423	8191
601.759	8201
602.096	8195
602.432	8179
602.768	8151
603.104	8108
603.440	8053
603.776	7994
604.112	7928
604.448	7861
604.784	7791
605.120	7715
605.456	7640
605.792	7563
606.128	7480
606.463	7394
606.799	7309
607.135	7230
607.470	7153
607.806	7076
608.142	7001
608.477	6929
608.812	6860
609.148	6789
609.483	6716
609.819	6640
610.154	6568
610.489	6502
610.824	6445
611.159	6397
611.494	6349
611.830	6306
612.165	6263
612.500	6215
612.834	6159
613.169	6095
613.504	6025
613.839	5945
614.174	5855
614.509	5764
614.843	5673
615.178	5585
615.512	5498
615.847	5413
616.182	5330
616.516	5244
616.850	5154
617.185	5060
617.519	4964
617.853	4860
618.188	4754
618.522	4656
618.856	4572
619.190	4500
619.524	4438
619.858	4388
620.192	4349
620.526	4314
620.860	4280
621.194	4248
621.528	4216
621.862	4184
622.195	4144
622.529	4103
622.863	4059
623.196	4015
623.530	3971
623.864	3925
624.197	3880
624.530	3836
624.864	3796
625.197	3755
625.531	3708
625.864	3652
626.197	3591
626.530	3526
626.863	3451
627.196	3371
627.529	3289
627.862	3208
628.195	3128
628.528	3048
628.861	2972
629.194	2903
629.527	2837
629.860	2773
630.192	2709
630.525	2649
630.858	2594
631.190	2542
631.523	2491
631.855	2444
632.188	2402
632.520	2364
632.852	2327
633.185	2290
633.517	2254
633.849	2221
634.182	2191
634.514	2163
634.846	2138
635.178	2116
635.510	2096
635.842	2078
636.174	2060
636.506	2043
636.837	2026
637.169	2009
637.501	1991
637.833	1971
638.164	1949
638.496	1924
638.828	1896
639.159	1864
639.491	1830
639.822	1794
640.154	1759
640.485	1723
640.816	1688
641.147	1652
641.479	1618
641.810	1586
642.141	1553
642.472	1523
642.803	1491
643.134	1462
643.465	1437
643.796	1417
644.127	1402
644.458	1395
644.789	1395
645.119	1403
645.450	1416
645.781	1431
646.111	1446
646.442	1459
646.773	1469
647.103	1477
647.433	1485
647.764	1492
648.094	1502
648.425	1515
648.755	1530
649.085	1547
649.415	1565
649.745	1584
650.075	1603
650.405	1625
650.735	1673
651.065	2010
651.395	3045
651.725	4779
652.055	7044
652.385	9667
652.715	12536
653.044	15571
653.374	18377
653.704	20568
654.033	22125
654.363	23208
654.692	23935
655.022	24415
655.351	24733
655.680	24930
656.010	25038
656.339	25088
656.668	25102
656.997	25098
657.326	25081
657.655	25030
657.984	24683
658.313	23633
658.642	21878
658.971	19586
659.300	16933
659.629	14035
659.958	10970
660.286	8140
660.615	5926
660.944	4353
661.272	3254
661.601	2512
661.929	2017
662.258	1681
662.586	1462
662.915	1329
663.243	1252
663.571	1209
663.899	1183
664.228	1166
664.556	1156
664.884	1149
665.212	1143
665.540	1140
665.868	1138
666.196	1137
666.524	1136
666.852	1138
667.179	1143
667.507	1152
667.835	1165
668.162	1182
668.490	1203
668.818	1228
669.145	1254
669.473	1280
669.800	1305
670.127	1327
670.455	1345
670.782	1360
671.109	1374
671.436	1385
671.764	1394
672.091	1402
672.418	1409
672.745	1415
673.072	1420
673.399	1427
673.726	1434
674.053	1440
674.379	1442
674.706	1442
675.033	1441
675.359	1440
675.686	1438
676.013	1437
676.339	1438
676.666	1443
676.992	1454
677.318	1469
677.645	1486
677.971	1502
678.297	1517
678.624	1531
678.950	1545
679.276	1558
679.602	1570
679.928	1584
680.254	1599
680.580	1619
680.906	1645
681.232	1677
681.558	1710
681.883	1743
682.209	1773
682.535	1801
682.860	1827
683.186	1849
683.511	1867
683.837	1878
684.162	1887
684.488	1894
684.813	1902
685.138	1909
685.464	1915
685.789	1920
686.114	1925
686.439	1932
686.764	1939
687.089	1945
687.414	1946
687.739	1940
688.064	1929
688.389	1915
688.714	1898
689.039	1880
689.363	1861
689.688	1839
690.013	1819
690.337	1800
690.662	1785
690.986	1772
691.311	1758
691.635	1744
691.959	1731
692.284	1722
692.608	1720
692.932	1723
693.256	1729
693.580	1736
693.904	1745
694.228	1757
694.552	1767
694.876	1772
695.200	1772
695.524	1764
695.848	1753
696.172	1740
696.495	1726
696.819	1711
697.143	1695
697.466	1679
697.790	1665
698.113	1655
698.437	1650
698.760	1650
699.083	1649
699.407	1644
699.730	1636
700.053	1623
700.376	1605
700.699	1580
701.022	1548
701.345	1513
701.668	1481
701.991	1453
702.314	1434
702.637	1425
702.960	1428
703.283	1443
703.605	1469
703.928	1503
704.251	1543
704.573	1583
704.896	1619
705.218	1649
705.540	1673
705.863	1692
706.185	1708
706.507	1721
706.830	1734
707.152	1748
707.474	1761
707.796	1777
708.118	1794
708.440	1810
708.762	1825
709.084	1836
709.406	1842
709.728	1844
710.049	1841
710.371	1833
710.693	1822
711.014	1809
711.336	1796
711.658	1784
711.979	1774
712.301	1764
712.622	1754
712.943	1742
713.265	1727
713.586	1712
713.907	1697
714.228	1684
714.549	1674
714.870	1667
715.191	1663
715.512	1663
715.833	1660
716.154	1656
716.475	1649
716.796	1638
717.117	1623
717.437	1606
717.758	1586
718.078	1565
718.399	1545
718.719	1527
719.040	1511
719.360	1500
719.681	1491
720.001	1485
720.321	1481
720.642	1480
720.962	1481
721.282	1485
721.602	1490
721.922	1495
722.242	1502
722.562	1512
722.882	1524
723.202	1534
723.521	1544
723.841	1554
724.161	1565
724.481	1575
724.800	1586
725.120	1600
725.439	1617
725.759	1636
726.078	1657
726.398	1683
726.717	1716
727.036	1753
727.355	1791
727.675	1829
727.994	1864
728.313	1899
728.632	1928
728.951	1953
729.270	1974
729.589	1995
729.908	2019
730.226	2047
730.545	2077
730.864	2110
731.182	2145
731.501	2180
731.820	2214
732.138	2244
732.457	2271
732.775	2295
733.093	2315
733.412	2327
733.730	2330
734.048	2325
734.367	2315
734.685	2302
735.003	2286
735.321	2272
735.639	2261
735.957	2251
736.275	2243
736.593	2230
736.910	2211
737.228	2185
737.546	2152
737.863	2113
738.181	2070
738.499	2025
738.816	1980
739.134	1936
739.451	1891
739.768	1845
740.086	1802
740.403	1762
740.720	1724
741.038	1689
741.355	1655
741.672	1621
741.989	1587
742.306	1551
742.623	1514
742.940	1479
743.257	1446
743.573	1417
743.890	1393
744.207	1376
744.523	1363
744.840	1354
745.157	1349
745.473	1348
745.790	1352
746.106	1362
746.422	1378
746.739	1397
747.055	1421
747.371	1447
747.687	1476
748.004	1502
748.320	1525
748.636	1546
748.952	1567
749.268	1588
749.584	1608
749.899	1626
750.215	1645
750.531	1666
750.847	1689
751.162	1713
751.478	1736
751.793	1760
752.109	1786
752.424	1814
752.740	1842
753.055	1873
753.370	1911
753.686	1955
754.001	2002
754.316	2051
754.631	2104
754.946	2160
755.261	2219
755.576	2277
755.891	2332
756.206	2387
756.521	2445
756.836	2503
757.150	2560
757.465	2610
757.780	2653
758.094	2689
758.409	2717
758.723	2734
759.038	2742
759.352	2743
759.667	2736
759.981	2722
760.295	2709
760.609	2699
760.923	2693
761.238	2689
761.552	2687
761.866	2684
762.180	2678
762.493	2663
762.807	2635
763.121	2593
763.435	2541
763.749	2483
764.062	2429
764.376	2383
764.689	2352
765.003	2335
765.316	2332
765.630	2339
765.943	2351
766.257	2367
766.570	2380
766.883	2384
767.196	2379
767.509	2364
767.822	2342
768.135	2312
768.448	2281
768.761	2248
769.074	2219
769.387	2197
769.700	2184
770.013	2175
770.325	2168
770.638	2158
770.950	2140
771.263	2112
771.575	2072
771.888	2022
772.200	1964
772.513	1900
772.825	1833
773.137	1764
773.449	1696
773.761	1631
774.074	1569
774.386	1515
774.698	1469
775.010	1432
775.321	1405
775.633	1388
775.945	1378
776.257	1372
776.568	1370
776.880	1374
777.192	1385
777.503	1400
777.815	1418
778.126	1442
778.438	1471
778.749	1502
779.060	1532
779.372	1561
779.683	1588
779.994	1613
780.305	1633
780.616	1646
780.927	1655
781.238	1659
781.549	1655
781.860	1645
782.171	1630
782.481	1614
782.792	1597
783.103	1580
783.413	1562
783.724	1543
784.034	1525
784.345	1508
784.655	1493
784.966	1477
785.276	1461
785.586	1445
785.896	1429
786.207	1412
786.517	1393
786.827	1376
787.137	1359
787.447	1343
787.757	1327
788.066	1312
788.376	1298
788.686	1284
788.996	1269
789.305	1255
789.615	1244
789.925	1238
790.234	1236
790.544	1239
790.853	1245
791.162	1252
791.472	1257
791.781	1260
792.090	1257
792.399	1250
792.708	1238
793.017	1225
793.326	1213
793.635	1201
793.944	1190
794.253	1181
794.562	1174
794.871	1170
795.179	1167
795.488	1163
795.797	1157
796.105	1147
796.414	1130
796.722	1107
797.031	1077
797.339	1042
797.647	1002
797.956	961
798.264	922
798.572	890
798.880	865
799.188	847
799.496	834
799.804	824
800.112	816
800.420	810
800.728	804
801.035	796
801.343	786
801.651	780
801.958	778
802.266	781
802.573	788
802.881	796
803.188	806
803.496	818
803.803	829
804.110	840
804.417	850
804.724	859
805.032	867
805.339	874
805.646	878
805.953	881
806.259	882
806.566	881
806.873	877
807.180	873
807.486	868
807.793	863
808.100	854
808.406	840
808.713	821
809.019	799
809.326	777
809.632	756
809.938	736
810.244	718
810.551	703
810.857	690
811.163	679
811.469	667
811.775	654
812.081	641
812.387	629
812.692	620
812.998	613
813.304	607
813.610	602
813.915	598
814.221	595
814.526	593
814.832	591
815.137	588
815.443	585
815.748	579
816.053	571
816.358	564
816.664	556
816.969	550
817.274	544
817.579	540
817.884	537
818.189	536
818.493	536
818.798	535
819.103	531
819.408	526
819.712	520
820.017	514
820.321	507
820.626	500
820.930	494
821.235	490
821.539	488
821.843	488
822.148	490
822.452	490
822.756	490
823.060	489
823.364	486
823.668	482
823.972	477
824.276	473
824.580	469
824.883	466
825.187	466
825.491	466
825.795	466
826.098	466
826.402	466
826.705	464
827.008	461
827.312	457
827.615	449
827.918	440
828.222	429
828.525	419
828.828	409
829.131	399
829.434	388
829.737	379
830.040	372
830.343	366
830.645	360
830.948	355
831.251	350
831.553	345
831.856	342
832.159	338
832.461	334
832.764	329
833.066	324
833.368	320
833.671	317
833.973	315
834.275	313
834.577	311
834.879	309
835.181	306
835.483	302
835.785	298
836.087	293
836.389	287
836.690	280
836.992	273
837.294	265
837.595	257
837.897	248
838.198	239
838.500	231
838.801	224
839.103	218
839.404	213
839.705	208
840.006	204
840.307	201
840.608	199
840.910	197
841.210	196
841.511	195
841.812	193
842.113	191
842.414	188
842.715	184
843.015	181
843.316	177
843.616	173
843.917	170
844.217	168
844.518	165
844.818	164
845.118	163
845.419	162
845.719	161
846.019	160
846.319	160
846.619	159
846.919	158
847.219	158
847.519	157
847.819	156
848.118	156
848.418	158
848.718	163
849.017	170
849.317	181
849.616	194
849.916	209
850.215	226
850.515	243
850.814	261
851.113	277
851.412	291
851.712	305
852.011	317
852.310	329
852.609	339
852.908	348
853.206	356
853.505	363
853.804	370
854.103	375
854.401	379
854.700	381
854.999	380
855.297	376
855.595	368
855.894	357
856.192	345
856.491	330
856.789	314
857.087	298
857.385	283
857.683	268
857.981	256
858.279	244
858.577	233
858.875	224
859.173	216
859.471	209
859.768	204
860.066	199
860.363	195
860.661	192
860.959	190
861.256	187
861.553	184
861.851	181
862.148	177
862.445	174
862.742	171
863.039	168
863.337	166
863.634	164
863.931	163
864.227	162
864.524	161
864.821	161
865.118	161
865.415	160
865.711	158
866.008	156
866.304	153
866.601	149
866.897	147
867.194	145
867.490	144
867.786	143
868.082	143
868.379	143
868.675	143
868.971	143
869.267	143
869.563	143
869.859	143
870.154	142
870.450	141
870.746	141
871.042	140
871.337	140
871.633	140
871.928	141
872.224	142
872.519	143
872.815	144
873.110	145
873.405	145
873.700	145
873.995	144
874.291	145
874.586	145
874.881	146
875.175	148
875.470	150
875.765	153
876.060	155
876.355	158
876.649	161
876.944	164
877.238	167
877.533	169
877.827	171
878.122	172
878.416	173
878.710	173
879.005	173
879.299	172
879.593	171
879.887	170
880.181	170
880.475	169
880.769	167
881.063	166
881.356	164
881.650	162
881.944	160
882.238	132
882.531	131
882.825	128
883.118	130
883.412	130
883.705	130
883.998	133
884.291	133
884.585	137
884.878	145
>>>>>>>>>> END of Data <<<<<<<<<<