Date	2021年06月15日火曜日 12時07分11秒
Spectrometers	USB2+H05879
ダーク	使用
リファレンス	使用
積分時間[msec]	10
平均回数	280
ｽﾑｰｼﾞﾝｸﾞ	10
Electrical Dark	USE
ピクセル数	2048
計測モード	吸光度
保存開始波長[nm]	190.664
保存終了波長[nm]	884.878
保存ﾋﾟｯﾁ波長[nm]	全波長

>>>>>>>>>> Data Start <<<<<<<<<<<<
190.664	0.000000
191.040	0.000000
191.415	0.000000
191.791	-2.377947
192.166	-0.529843
192.542	-1.103582
192.917	0.000000
193.293	-0.455842
193.668	-0.263588
194.044	-0.586740
194.419	0.000000
194.794	-1.317047
195.170	-1.228547
195.545	-1.136572
195.920	-1.003231
196.296	-0.870040
196.671	-0.682464
197.046	-0.526886
197.421	-0.457366
197.796	-0.447930
198.171	-0.412743
198.546	-0.353060
198.922	-0.290351
199.297	-0.258487
199.672	-0.236637
200.047	-0.211473
200.422	-0.180252
200.796	-0.166852
201.171	-0.145821
201.546	-0.142128
201.921	-0.143659
202.296	-0.134561
202.671	-0.116496
203.045	-0.091080
203.420	-0.071630
203.795	-0.059735
204.170	-0.063549
204.544	-0.062747
204.919	-0.078556
205.294	-0.083282
205.668	-0.073714
206.043	-0.070135
206.417	-0.076421
206.792	-0.072563
207.166	-0.066410
207.541	-0.061432
207.915	-0.059413
208.289	-0.038170
208.664	-0.033224
209.038	-0.034729
209.412	-0.024320
209.787	-0.004818
210.161	-0.004907
210.535	-0.003459
210.909	-0.007620
211.284	-0.003135
211.658	-0.010455
212.032	-0.010831
212.406	-0.016047
212.780	0.001573
213.154	-0.008591
213.528	-0.018969
213.902	-0.013658
214.276	-0.006170
214.650	-0.004489
215.024	-0.004724
215.398	-0.003511
215.772	0.008335
216.145	-0.003782
216.519	0.001984
216.893	-0.001215
217.267	-0.003146
217.640	-0.008796
218.014	0.004413
218.388	0.014763
218.761	0.021871
219.135	0.024037
219.508	0.021795
219.882	0.022110
220.256	0.028948
220.629	0.035709
221.003	0.039253
221.376	0.052470
221.749	0.041472
222.123	0.034699
222.496	0.028081
222.869	0.041450
223.243	0.039340
223.616	0.039227
223.989	0.031861
224.362	0.036869
224.736	0.045111
225.109	0.048237
225.482	0.055118
225.855	0.050304
226.228	0.045563
226.601	0.045715
226.974	0.046751
227.347	0.069147
227.720	0.069029
228.093	0.066674
228.466	0.053159
228.839	0.063945
229.212	0.056591
229.585	0.056294
229.957	0.060892
230.330	0.069245
230.703	0.063099
231.076	0.069264
231.448	0.063241
231.821	0.078432
232.194	0.077404
232.566	0.068863
232.939	0.064315
233.311	0.054468
233.684	0.069054
234.056	0.069508
234.429	0.074022
234.801	0.076749
235.174	0.071225
235.546	0.069411
235.918	0.060664
236.291	0.075340
236.663	0.073154
237.035	0.074648
237.408	0.085087
237.780	0.086385
238.152	0.078293
238.524	0.067759
238.896	0.070562
239.268	0.067091
239.641	0.060361
240.013	0.064896
240.385	0.076809
240.757	0.082515
241.129	0.084750
241.500	0.074046
241.872	0.075889
242.244	0.077750
242.616	0.075522
242.988	0.073584
243.360	0.087723
243.731	0.104427
244.103	0.097525
244.475	0.085670
244.847	0.090304
245.218	0.095699
245.590	0.098983
245.961	0.093785
246.333	0.100497
246.705	0.090245
247.076	0.103267
247.448	0.103417
247.819	0.100393
248.190	0.096085
248.562	0.091200
248.933	0.100851
249.305	0.108334
249.676	0.111884
250.047	0.107363
250.418	0.109582
250.790	0.111834
251.161	0.106785
251.532	0.104767
251.903	0.105509
252.274	0.125688
252.645	0.127666
253.016	0.122074
253.387	0.108278
253.758	0.119584
254.129	0.122887
254.500	0.137715
254.871	0.130134
255.242	0.135219
255.613	0.135126
255.984	0.139494
256.355	0.153792
256.725	0.154960
257.096	0.151860
257.467	0.148699
257.838	0.147788
258.208	0.145972
258.579	0.144705
258.949	0.138214
259.320	0.129111
259.690	0.132707
260.061	0.129377
260.431	0.129311
260.802	0.132414
261.172	0.146369
261.543	0.149866
261.913	0.149345
262.283	0.140936
262.654	0.144144
263.024	0.139531
263.394	0.141536
263.764	0.137673
264.135	0.131215
264.505	0.127999
264.875	0.136350
265.245	0.143541
265.615	0.150764
265.985	0.150474
266.355	0.154080
266.725	0.144656
267.095	0.148852
267.465	0.146308
267.835	0.142037
268.205	0.134353
268.575	0.131838
268.944	0.131770
269.314	0.124808
269.684	0.123160
270.054	0.122433
270.423	0.117833
270.793	0.120834
271.163	0.116246
271.532	0.115564
271.902	0.113163
272.271	0.123840
272.641	0.118489
273.010	0.103766
273.380	0.096690
273.749	0.095406
274.119	0.093366
274.488	0.110025
274.857	0.110945
275.227	0.112474
275.596	0.113154
275.965	0.125710
276.335	0.125784
276.704	0.120803
277.073	0.127066
277.442	0.137633
277.811	0.130334
278.180	0.134721
278.549	0.134013
278.918	0.139232
279.287	0.136218
279.656	0.144612
280.025	0.129761
280.394	0.126149
280.763	0.140016
281.132	0.139915
281.501	0.143764
281.869	0.141321
282.238	0.141120
282.607	0.135455
282.976	0.137693
283.344	0.136221
283.713	0.133535
284.081	0.135811
284.450	0.146963
284.819	0.147987
285.187	0.144764
285.556	0.147122
285.924	0.150093
286.292	0.146031
286.661	0.139327
287.029	0.142379
287.398	0.134306
287.766	0.139061
288.134	0.138462
288.502	0.132873
288.871	0.147201
289.239	0.155684
289.607	0.160093
289.975	0.161929
290.343	0.171472
290.711	0.169707
291.079	0.179464
291.447	0.178498
291.815	0.174051
292.183	0.168309
292.551	0.163325
292.919	0.159189
293.287	0.160852
293.655	0.160880
294.022	0.164523
294.390	0.176719
294.758	0.183715
295.126	0.183137
295.493	0.186723
295.861	0.192061
296.229	0.195378
296.596	0.187114
296.964	0.185867
297.331	0.181974
297.699	0.178776
298.066	0.177600
298.434	0.180354
298.801	0.176320
299.168	0.173853
299.536	0.185207
299.903	0.183430
300.270	0.192740
300.638	0.200720
301.005	0.214160
301.372	0.220960
301.739	0.229019
302.106	0.221789
302.473	0.227492
302.840	0.238749
303.207	0.256241
303.574	0.275913
303.941	0.287153
304.308	0.303832
304.675	0.309204
305.042	0.332801
305.409	0.351935
305.776	0.367539
306.143	0.389573
306.509	0.408897
306.876	0.442142
307.243	0.461269
307.610	0.492404
307.976	0.512451
308.343	0.538388
308.709	0.564889
309.076	0.596177
309.442	0.624677
309.809	0.665607
310.175	0.701879
310.542	0.729246
310.908	0.751428
311.275	0.773105
311.641	0.802702
312.007	0.825849
312.373	0.864281
312.740	0.886593
313.106	0.914083
313.472	0.950662
313.838	0.978832
314.204	1.004031
314.570	1.017078
314.936	1.040231
315.302	1.065924
315.668	1.091080
316.034	1.122731
316.400	1.153975
316.766	1.172366
317.132	1.207528
317.498	1.224504
317.864	1.234451
318.230	1.255118
318.595	1.278367
318.961	1.291989
319.327	1.316023
319.692	1.330740
320.058	1.337142
320.424	1.359126
320.789	1.374501
321.155	1.388661
321.520	1.403978
321.886	1.423729
322.251	1.441747
322.616	1.460291
322.982	1.466260
323.347	1.477214
323.712	1.490013
324.078	1.498547
324.443	1.504989
324.808	1.503482
325.173	1.515215
325.539	1.524698
325.904	1.532358
326.269	1.535778
326.634	1.544468
326.999	1.548905
327.364	1.553096
327.729	1.561384
328.094	1.565743
328.459	1.572574
328.823	1.575788
329.188	1.581712
329.553	1.583231
329.918	1.591494
330.283	1.593443
330.647	1.604499
331.012	1.609226
331.377	1.610575
331.741	1.610158
332.106	1.614792
332.470	1.617923
332.835	1.618365
333.199	1.620286
333.564	1.623733
333.928	1.628866
334.293	1.633307
334.657	1.633264
335.021	1.638270
335.386	1.639424
335.750	1.639525
336.114	1.640820
336.478	1.641495
336.843	1.640696
337.207	1.640235
337.571	1.641081
337.935	1.643040
338.299	1.639700
338.663	1.637815
339.027	1.638478
339.391	1.640728
339.755	1.641949
340.119	1.643217
340.483	1.642973
340.846	1.645387
341.210	1.646172
341.574	1.645263
341.938	1.644926
342.301	1.647747
342.665	1.649286
343.029	1.650752
343.392	1.651916
343.756	1.651366
344.119	1.652388
344.483	1.653875
344.846	1.655617
345.210	1.657648
345.573	1.656767
345.937	1.656946
346.300	1.658766
346.663	1.658700
347.027	1.658018
347.390	1.657134
347.753	1.657452
348.116	1.658164
348.479	1.658325
348.843	1.657655
349.206	1.658066
349.569	1.657378
349.932	1.657042
350.295	1.656449
350.658	1.656937
351.021	1.657554
351.383	1.659041
351.746	1.659541
352.109	1.661470
352.472	1.662771
352.835	1.661020
353.197	1.663168
353.560	1.665758
353.923	1.666655
354.285	1.667015
354.648	1.668696
355.011	1.669164
355.373	1.670357
355.736	1.671439
356.098	1.672026
356.461	1.673248
356.823	1.673829
357.185	1.675959
357.548	1.677031
357.910	1.678232
358.272	1.677020
358.635	1.677078
358.997	1.676217
359.359	1.678714
359.721	1.677265
360.083	1.678648
360.445	1.680135
360.807	1.680021
361.169	1.680324
361.531	1.680329
361.893	1.681105
362.255	1.682098
362.617	1.684836
362.979	1.685276
363.341	1.685114
363.703	1.685808
364.064	1.686287
364.426	1.687417
364.788	1.687123
365.149	1.687644
365.511	1.688262
365.873	1.690538
366.234	1.692064
366.596	1.693158
366.957	1.693520
367.319	1.695183
367.680	1.695575
368.042	1.695296
368.403	1.696654
368.764	1.698021
369.126	1.699437
369.487	1.699777
369.848	1.699903
370.209	1.699976
370.570	1.701071
370.931	1.703191
371.293	1.704479
371.654	1.705765
372.015	1.706668
372.376	1.709370
372.737	1.710008
373.098	1.710174
373.458	1.711694
373.819	1.713243
374.180	1.716464
374.541	1.717397
374.902	1.717783
375.263	1.718223
375.623	1.719130
375.984	1.721282
376.345	1.721205
376.705	1.722858
377.066	1.725502
377.426	1.726752
377.787	1.727964
378.147	1.728441
378.508	1.728437
378.868	1.728564
379.228	1.729039
379.589	1.730567
379.949	1.730497
380.309	1.731181
380.670	1.732547
381.030	1.732051
381.390	1.732243
381.750	1.730626
382.110	1.731278
382.470	1.733262
382.830	1.735164
383.190	1.737968
383.550	1.736746
383.910	1.738529
384.270	1.739929
384.630	1.741367
384.990	1.743106
385.350	1.744115
385.709	1.745118
386.069	1.746833
386.429	1.747331
386.788	1.748712
387.148	1.748745
387.508	1.749877
387.867	1.751079
388.227	1.751561
388.586	1.752431
388.946	1.753506
389.305	1.754711
389.665	1.755385
390.024	1.755901
390.383	1.756578
390.743	1.755283
391.102	1.756128
391.461	1.755027
391.820	1.754698
392.179	1.752984
392.539	1.752136
392.898	1.752773
393.257	1.752959
393.616	1.753321
393.975	1.754173
394.334	1.755419
394.693	1.756902
395.051	1.757836
395.410	1.759012
395.769	1.759823
396.128	1.761235
396.487	1.760609
396.845	1.761169
397.204	1.760918
397.563	1.758891
397.921	1.757132
398.280	1.756572
398.638	1.755624
398.997	1.756722
399.355	1.755626
399.714	1.756491
400.072	1.754936
400.431	1.752896
400.789	1.752690
401.147	1.752541
401.506	1.751886
401.864	1.750628
402.222	1.748292
402.580	1.745852
402.938	1.744721
403.297	1.743510
403.655	1.741497
404.013	1.741795
404.371	1.740193
404.729	1.738647
405.087	1.738466
405.444	1.738723
405.802	1.738013
406.160	1.737795
406.518	1.735126
406.876	1.734642
407.233	1.732958
407.591	1.733454
407.949	1.733268
408.306	1.732605
408.664	1.731305
409.022	1.731104
409.379	1.729552
409.737	1.729260
410.094	1.728656
410.451	1.727295
410.809	1.725851
411.166	1.724864
411.523	1.723416
411.881	1.723663
412.238	1.723422
412.595	1.722443
412.952	1.721155
413.310	1.720816
413.667	1.719869
414.024	1.720728
414.381	1.719463
414.738	1.718172
415.095	1.715815
415.452	1.714222
415.809	1.713056
416.165	1.712022
416.522	1.710477
416.879	1.709112
417.236	1.707313
417.593	1.705293
417.949	1.703420
418.306	1.702344
418.663	1.702079
419.019	1.700829
419.376	1.697895
419.732	1.695022
420.089	1.693682
420.445	1.691816
420.802	1.690270
421.158	1.688543
421.514	1.686220
421.871	1.684772
422.227	1.682193
422.583	1.681332
422.939	1.679114
423.295	1.676316
423.652	1.673851
424.008	1.670920
424.364	1.668784
424.720	1.666563
425.076	1.664912
425.432	1.662826
425.788	1.661311
426.143	1.658057
426.499	1.655179
426.855	1.654121
427.211	1.651687
427.567	1.649091
427.922	1.647053
428.278	1.643442
428.634	1.640984
428.989	1.638365
429.345	1.635820
429.700	1.634194
430.056	1.632163
430.411	1.630355
430.767	1.628175
431.122	1.626161
431.478	1.623916
431.833	1.621327
432.188	1.618355
432.543	1.615917
432.899	1.612534
433.254	1.609284
433.609	1.606199
433.964	1.603284
434.319	1.598959
434.674	1.596434
435.029	1.593041
435.384	1.589361
435.739	1.587065
436.094	1.584134
436.449	1.581278
436.804	1.577923
437.158	1.574797
437.513	1.571516
437.868	1.567682
438.223	1.564409
438.577	1.560380
438.932	1.557746
439.287	1.554728
439.641	1.551343
439.996	1.547296
440.350	1.544013
440.704	1.540716
441.059	1.537288
441.413	1.533464
441.768	1.529857
442.122	1.526852
442.476	1.523588
442.830	1.520287
443.185	1.517022
443.539	1.513311
443.893	1.509636
444.247	1.505649
444.601	1.502417
444.955	1.498124
445.309	1.494186
445.663	1.489820
446.017	1.486060
446.371	1.481456
446.724	1.476959
447.078	1.473443
447.432	1.469717
447.786	1.465268
448.139	1.460214
448.493	1.455837
448.847	1.451540
449.200	1.447333
449.554	1.442725
449.907	1.438605
450.261	1.433859
450.614	1.429480
450.968	1.425191
451.321	1.420951
451.674	1.416896
452.027	1.412001
452.381	1.407752
452.734	1.403532
453.087	1.399269
453.440	1.394216
453.793	1.389667
454.146	1.385332
454.499	1.380558
454.852	1.376004
455.205	1.371783
455.558	1.367906
455.911	1.363611
456.264	1.359218
456.617	1.355194
456.970	1.350657
457.322	1.346435
457.675	1.342543
458.028	1.338240
458.380	1.334338
458.733	1.329983
459.086	1.326561
459.438	1.322659
459.791	1.318523
460.143	1.314882
460.496	1.311565
460.848	1.308116
461.200	1.304427
461.553	1.300343
461.905	1.296778
462.257	1.292614
462.609	1.288701
462.961	1.284903
463.314	1.280967
463.666	1.277382
464.018	1.273508
464.370	1.270109
464.722	1.266524
465.074	1.262711
465.426	1.259336
465.777	1.255835
466.129	1.252614
466.481	1.248697
466.833	1.245443
467.184	1.242475
467.536	1.238897
467.888	1.235120
468.239	1.231396
468.591	1.227420
468.943	1.223546
469.294	1.219037
469.646	1.214886
469.997	1.210721
470.348	1.206624
470.700	1.203092
471.051	1.199360
471.402	1.195768
471.754	1.192214
472.105	1.189041
472.456	1.186096
472.807	1.182861
473.158	1.179836
473.509	1.176982
473.860	1.174407
474.211	1.171452
474.562	1.168545
474.913	1.165536
475.264	1.162636
475.615	1.159832
475.966	1.157126
476.316	1.154244
476.667	1.151734
477.018	1.149182
477.368	1.146468
477.719	1.143691
478.070	1.140845
478.420	1.138176
478.771	1.135479
479.121	1.132729
479.472	1.129810
479.822	1.126964
480.172	1.124297
480.523	1.121620
480.873	1.118965
481.223	1.116243
481.573	1.113826
481.924	1.110721
482.274	1.107627
482.624	1.104664
482.974	1.101694
483.324	1.098548
483.674	1.095788
484.024	1.093162
484.374	1.090919
484.724	1.088875
485.073	1.086905
485.423	1.085036
485.773	1.083099
486.123	1.081241
486.472	1.079339
486.822	1.077498
487.172	1.075690
487.521	1.073803
487.871	1.071807
488.220	1.069604
488.570	1.066988
488.919	1.063638
489.268	1.060230
489.618	1.056651
489.967	1.052437
490.316	1.048128
490.666	1.044362
491.015	1.040962
491.364	1.037796
491.713	1.034724
492.062	1.031805
492.411	1.029053
492.760	1.026271
493.109	1.023368
493.458	1.020436
493.807	1.017650
494.156	1.014794
494.505	1.011912
494.853	1.009017
495.202	1.006216
495.551	1.003398
495.900	1.000576
496.248	0.997812
496.597	0.995003
496.945	0.992251
497.294	0.989609
497.642	0.986877
497.991	0.983960
498.339	0.980974
498.688	0.978314
499.036	0.975663
499.384	0.973056
499.732	0.970296
500.081	0.967490
500.429	0.964706
500.777	0.962198
501.125	0.959545
501.473	0.957030
501.821	0.954627
502.169	0.952271
502.517	0.949837
502.865	0.947332
503.213	0.944770
503.561	0.942381
503.908	0.940104
504.256	0.937566
504.604	0.935099
504.952	0.932783
505.299	0.930515
505.647	0.928210
505.994	0.925791
506.342	0.923368
506.689	0.921089
507.037	0.918734
507.384	0.916411
507.732	0.914241
508.079	0.911974
508.426	0.909821
508.774	0.907474
509.121	0.905147
509.468	0.902894
509.815	0.900618
510.162	0.898432
510.509	0.896264
510.856	0.894078
511.203	0.891943
511.550	0.889842
511.897	0.887834
512.244	0.885847
512.591	0.883638
512.938	0.881712
513.284	0.879685
513.631	0.877602
513.978	0.875299
514.324	0.873414
514.671	0.871492
515.018	0.869471
515.364	0.867416
515.711	0.865424
516.057	0.863407
516.403	0.861422
516.750	0.859384
517.096	0.857571
517.443	0.855680
517.789	0.853851
518.135	0.852028
518.481	0.849969
518.827	0.848063
519.173	0.846190
519.519	0.844177
519.865	0.842225
520.211	0.840376
520.557	0.838429
520.903	0.836476
521.249	0.834796
521.595	0.832759
521.941	0.830620
522.287	0.828482
522.632	0.826475
522.978	0.824369
523.324	0.822401
523.669	0.820390
524.015	0.818353
524.360	0.816171
524.706	0.814208
525.051	0.812217
525.397	0.810160
525.742	0.808245
526.087	0.806319
526.433	0.804334
526.778	0.802395
527.123	0.800581
527.468	0.798407
527.813	0.796669
528.158	0.794742
528.504	0.792593
528.849	0.790397
529.193	0.788563
529.538	0.786649
529.883	0.784556
530.228	0.782379
530.573	0.780292
530.918	0.778123
531.263	0.775935
531.607	0.773748
531.952	0.771529
532.296	0.769325
532.641	0.767157
532.986	0.764856
533.330	0.762644
533.675	0.760561
534.019	0.758143
534.363	0.755839
534.708	0.753656
535.052	0.751217
535.396	0.749024
535.741	0.746827
536.085	0.744559
536.429	0.742091
536.773	0.739533
537.117	0.736948
537.461	0.734346
537.805	0.731634
538.149	0.728910
538.493	0.726180
538.837	0.723537
539.181	0.720833
539.524	0.718090
539.868	0.715388
540.212	0.712732
540.556	0.710034
540.899	0.707162
541.243	0.704470
541.586	0.701636
541.930	0.698708
542.273	0.695882
542.617	0.692936
542.960	0.689932
543.304	0.686935
543.647	0.683942
543.990	0.680985
544.333	0.677784
544.677	0.674725
545.020	0.671512
545.363	0.668328
545.706	0.665243
546.049	0.662040
546.392	0.658855
546.735	0.655711
547.078	0.652479
547.421	0.649192
547.764	0.645863
548.106	0.642474
548.449	0.638963
548.792	0.635516
549.135	0.632100
549.477	0.628506
549.820	0.625069
550.162	0.621555
550.505	0.618042
550.847	0.614403
551.190	0.610634
551.532	0.606910
551.875	0.602924
552.217	0.599040
552.559	0.595147
552.901	0.591270
553.244	0.587463
553.586	0.583727
553.928	0.580083
554.270	0.576480
554.612	0.572948
554.954	0.569350
555.296	0.565660
555.638	0.562020
555.980	0.558185
556.322	0.554252
556.663	0.550235
557.005	0.546079
557.347	0.542038
557.689	0.537910
558.030	0.533815
558.372	0.529726
558.713	0.525650
559.055	0.521656
559.396	0.517601
559.738	0.513585
560.079	0.509505
560.421	0.505521
560.762	0.501678
561.103	0.497799
561.444	0.494052
561.786	0.490305
562.127	0.486645
562.468	0.483042
562.809	0.479397
563.150	0.475674
563.491	0.471837
563.832	0.467911
564.173	0.463957
564.514	0.459922
564.855	0.455834
565.195	0.451743
565.536	0.447610
565.877	0.443610
566.218	0.439614
566.558	0.435705
566.899	0.431802
567.239	0.427978
567.580	0.424303
567.920	0.420755
568.261	0.417486
568.601	0.414367
568.941	0.411422
569.282	0.408550
569.622	0.405787
569.962	0.403063
570.302	0.400385
570.643	0.397686
570.983	0.394989
571.323	0.392375
571.663	0.389769
572.003	0.387238
572.343	0.384680
572.683	0.382176
573.022	0.379663
573.362	0.377099
573.702	0.374421
574.042	0.371746
574.381	0.369107
574.721	0.366533
575.061	0.363976
575.400	0.361525
575.740	0.359150
576.079	0.356838
576.419	0.354628
576.758	0.352423
577.097	0.350166
577.437	0.347734
577.776	0.345257
578.115	0.342851
578.454	0.340448
578.794	0.338110
579.133	0.335906
579.472	0.333865
579.811	0.331941
580.150	0.330075
580.489	0.328245
580.828	0.326411
581.167	0.324574
581.505	0.322716
581.844	0.320816
582.183	0.318969
582.522	0.317180
582.860	0.315425
583.199	0.313740
583.538	0.312029
583.876	0.310267
584.215	0.308468
584.553	0.306637
584.891	0.304802
585.230	0.302886
585.568	0.301009
585.906	0.299267
586.245	0.297637
586.583	0.296161
586.921	0.294828
587.259	0.293485
587.597	0.292111
587.935	0.290717
588.273	0.289282
588.611	0.287733
588.949	0.286194
589.287	0.284620
589.625	0.283033
589.963	0.281512
590.300	0.279960
590.638	0.278395
590.976	0.276819
591.313	0.275203
591.651	0.273707
591.989	0.272281
592.326	0.270956
592.664	0.269736
593.001	0.268590
593.338	0.267515
593.676	0.266522
594.013	0.265585
594.350	0.264706
594.687	0.263821
595.025	0.262862
595.362	0.261789
595.699	0.260696
596.036	0.259573
596.373	0.258404
596.710	0.257221
597.047	0.256023
597.384	0.254893
597.720	0.253833
598.057	0.252817
598.394	0.251850
598.731	0.250887
599.067	0.249970
599.404	0.249066
599.741	0.248208
600.077	0.247330
600.414	0.246510
600.750	0.245651
601.087	0.244726
601.423	0.243807
601.759	0.242910
602.096	0.242033
602.432	0.241178
602.768	0.240320
603.104	0.239430
603.440	0.238554
603.776	0.237722
604.112	0.236922
604.448	0.236141
604.784	0.235353
605.120	0.234607
605.456	0.233882
605.792	0.233156
606.128	0.232374
606.463	0.231681
606.799	0.230922
607.135	0.230197
607.470	0.229451
607.806	0.228735
608.142	0.228053
608.477	0.227373
608.812	0.226636
609.148	0.225951
609.483	0.225258
609.819	0.224594
610.154	0.223933
610.489	0.223330
610.824	0.222711
611.159	0.222076
611.494	0.221410
611.830	0.220807
612.165	0.220203
612.500	0.219570
612.834	0.218909
613.169	0.218274
613.504	0.217595
613.839	0.216937
614.174	0.216284
614.509	0.215719
614.843	0.215188
615.178	0.214628
615.512	0.214106
615.847	0.213603
616.182	0.213081
616.516	0.212547
616.850	0.212025
617.185	0.211492
617.519	0.210926
617.853	0.210368
618.188	0.209841
618.522	0.209422
618.856	0.208993
619.190	0.208489
619.524	0.208010
619.858	0.207578
620.192	0.207160
620.526	0.206612
620.860	0.206111
621.194	0.205631
621.528	0.205139
621.862	0.204593
622.195	0.204084
622.529	0.203567
622.863	0.203159
623.196	0.202664
623.530	0.202235
623.864	0.201732
624.197	0.201264
624.530	0.200866
624.864	0.200513
625.197	0.200065
625.531	0.199552
625.864	0.199086
626.197	0.198648
626.530	0.198120
626.863	0.197562
627.196	0.197021
627.529	0.196606
627.862	0.196150
628.195	0.195707
628.528	0.195226
628.861	0.194846
629.194	0.194526
629.527	0.194160
629.860	0.193769
630.192	0.193387
630.525	0.193004
630.858	0.192677
631.190	0.192374
631.523	0.192021
631.855	0.191598
632.188	0.191295
632.520	0.190928
632.852	0.190506
633.185	0.190046
633.517	0.189717
633.849	0.189419
634.182	0.189097
634.514	0.188795
634.846	0.188587
635.178	0.188348
635.510	0.188078
635.842	0.187808
636.174	0.187519
636.506	0.187205
636.837	0.186850
637.169	0.186616
637.501	0.186314
637.833	0.185992
638.164	0.185615
638.496	0.185248
638.828	0.184880
639.159	0.184459
639.491	0.184080
639.822	0.183707
640.154	0.183377
640.485	0.183000
640.816	0.182542
641.147	0.182202
641.479	0.181772
641.810	0.181348
642.141	0.180941
642.472	0.180502
642.803	0.180106
643.134	0.179738
643.465	0.179467
643.796	0.179274
644.127	0.179042
644.458	0.178962
644.789	0.178906
645.119	0.178936
645.450	0.178801
645.781	0.178705
646.111	0.178577
646.442	0.178306
646.773	0.178019
647.103	0.177704
647.433	0.177523
647.764	0.177303
648.094	0.177131
648.425	0.177089
648.755	0.177070
649.085	0.176835
649.415	0.176742
649.745	0.176598
650.075	0.176467
650.405	0.176382
650.735	0.177454
651.065	0.185947
651.395	0.189773
651.725	0.175100
652.055	0.132280
652.385	0.098935
652.715	0.078133
653.044	0.063918
653.374	0.053617
653.704	0.045814
654.033	0.055865
654.363	0.061844
654.692	0.065157
655.022	0.067151
655.351	0.068435
655.680	0.069224
656.010	0.069668
656.339	0.069855
656.668	0.069890
656.997	0.069838
657.326	0.069719
657.655	0.069368
657.984	0.066935
658.313	0.060249
658.642	0.052052
658.971	0.054750
659.300	0.063723
659.629	0.075676
659.958	0.092367
660.286	0.117315
660.615	0.158811
660.944	0.159227
661.272	0.159410
661.601	0.161826
661.929	0.164369
662.258	0.166169
662.586	0.167171
662.915	0.167421
663.243	0.167418
663.571	0.167239
663.899	0.167128
664.228	0.167044
664.556	0.166888
664.884	0.166734
665.212	0.166618
665.540	0.166503
665.868	0.166433
666.196	0.166363
666.524	0.166113
666.852	0.166043
667.179	0.166058
667.507	0.166104
667.835	0.166021
668.162	0.165995
668.490	0.165882
668.818	0.165964
669.145	0.165762
669.473	0.165591
669.800	0.165521
670.127	0.165306
670.455	0.164998
670.782	0.164847
671.109	0.164683
671.436	0.164621
671.764	0.164489
672.091	0.164335
672.418	0.164202
672.745	0.164060
673.072	0.163989
673.399	0.163865
673.726	0.163653
674.053	0.163502
674.379	0.163270
674.706	0.163169
675.033	0.163024
675.359	0.162932
675.686	0.162682
676.013	0.162565
676.339	0.162314
676.666	0.162132
676.992	0.162138
677.318	0.162103
677.645	0.161866
677.971	0.161607
678.297	0.161352
678.624	0.161187
678.950	0.161003
679.276	0.160829
679.602	0.160685
679.928	0.160571
680.254	0.160574
680.580	0.160586
680.906	0.160618
681.232	0.160509
681.558	0.160364
681.883	0.160184
682.209	0.160019
682.535	0.159825
682.860	0.159605
683.186	0.159416
683.511	0.159106
683.837	0.158734
684.162	0.158555
684.488	0.158399
684.813	0.158330
685.138	0.158176
685.464	0.157952
685.789	0.157732
686.114	0.157639
686.439	0.157554
686.764	0.157446
687.089	0.157208
687.414	0.156919
687.739	0.156619
688.064	0.156443
688.389	0.156190
688.714	0.155977
689.039	0.155619
689.363	0.155293
689.688	0.155105
690.013	0.154937
690.337	0.154896
690.662	0.154835
690.986	0.154713
691.311	0.154564
691.635	0.154298
691.959	0.154218
692.284	0.154244
692.608	0.154286
692.932	0.154124
693.256	0.153975
693.580	0.153799
693.904	0.153737
694.228	0.153585
694.552	0.153335
694.876	0.152999
695.200	0.152613
695.524	0.152261
695.848	0.152051
696.172	0.151839
696.495	0.151514
696.819	0.151308
697.143	0.150976
697.466	0.150809
697.790	0.150683
698.113	0.150637
698.437	0.150573
698.760	0.150363
699.083	0.150135
699.407	0.149833
699.730	0.149639
700.053	0.149375
700.376	0.149014
700.699	0.148491
701.022	0.148125
701.345	0.147789
701.668	0.147570
701.991	0.147470
702.314	0.147343
702.637	0.147400
702.960	0.147458
703.283	0.147579
703.605	0.147576
703.928	0.147724
704.251	0.147608
704.573	0.147351
704.896	0.147030
705.218	0.146699
705.540	0.146441
705.863	0.146145
706.185	0.145871
706.507	0.145544
706.830	0.145327
707.152	0.145096
707.474	0.145028
707.796	0.144794
708.118	0.144569
708.440	0.144367
708.762	0.144189
709.084	0.143984
709.406	0.143644
709.728	0.143400
710.049	0.143057
710.371	0.142766
710.693	0.142371
711.014	0.141998
711.336	0.141778
711.658	0.141539
711.979	0.141426
712.301	0.141180
712.622	0.140958
712.943	0.140700
713.265	0.140463
713.586	0.140223
713.907	0.140086
714.228	0.139891
714.549	0.139820
714.870	0.139793
715.191	0.139673
715.512	0.139519
715.833	0.139379
716.154	0.139122
716.475	0.138811
716.796	0.138563
717.117	0.138203
717.437	0.137870
717.758	0.137581
718.078	0.137234
718.399	0.136982
718.719	0.136705
719.040	0.136491
719.360	0.136356
719.681	0.136181
720.001	0.136036
720.321	0.135895
720.642	0.135725
720.962	0.135506
721.282	0.135315
721.602	0.135123
721.922	0.134933
722.242	0.134700
722.562	0.134392
722.882	0.134117
723.202	0.133976
723.521	0.133797
723.841	0.133628
724.161	0.133447
724.481	0.133300
724.800	0.133078
725.120	0.132941
725.439	0.132812
725.759	0.132623
726.078	0.132487
726.398	0.132447
726.717	0.132439
727.036	0.132258
727.355	0.132127
727.675	0.131995
727.994	0.131807
728.313	0.131609
728.632	0.131378
728.951	0.131136
729.270	0.130891
729.589	0.130780
729.908	0.130549
730.226	0.130307
730.545	0.130123
730.864	0.129917
731.182	0.129686
731.501	0.129520
731.820	0.129254
732.138	0.129028
732.457	0.128797
732.775	0.128574
733.093	0.128319
733.412	0.127998
733.730	0.127731
734.048	0.127437
734.367	0.127152
734.685	0.126940
735.003	0.126615
735.321	0.126426
735.639	0.126312
735.957	0.126244
736.275	0.126079
736.593	0.125868
736.910	0.125604
737.228	0.125380
737.546	0.125149
737.863	0.124979
738.181	0.124729
738.499	0.124524
738.816	0.124333
739.134	0.124207
739.451	0.124034
739.768	0.123820
740.086	0.123690
740.403	0.123507
740.720	0.123374
741.038	0.123257
741.355	0.123022
741.672	0.122945
741.989	0.122691
742.306	0.122384
742.623	0.122043
742.940	0.121734
743.257	0.121454
743.573	0.121314
743.890	0.121104
744.207	0.120913
744.523	0.120811
744.840	0.120728
745.157	0.120654
745.473	0.120593
745.790	0.120656
746.106	0.120604
746.422	0.120607
746.739	0.120573
747.055	0.120624
747.371	0.120484
747.687	0.120410
748.004	0.120208
748.320	0.119920
748.636	0.119792
748.952	0.119644
749.268	0.119625
749.584	0.119586
749.899	0.119495
750.215	0.119437
750.531	0.119471
750.847	0.119459
751.162	0.119384
751.478	0.119281
751.793	0.119235
752.109	0.119114
752.424	0.118932
752.740	0.118825
753.055	0.118861
753.370	0.118815
753.686	0.118806
754.001	0.118783
754.316	0.118647
754.631	0.118617
754.946	0.118642
755.261	0.118562
755.576	0.118449
755.891	0.118269
756.206	0.118124
756.521	0.118068
756.836	0.118028
757.150	0.117901
757.465	0.117710
757.780	0.117522
758.094	0.117428
758.409	0.117231
758.723	0.117086
759.038	0.116909
759.352	0.116760
759.667	0.116569
759.981	0.116466
760.295	0.116344
760.609	0.116301
760.923	0.116278
761.238	0.116141
761.552	0.115945
761.866	0.115802
762.180	0.115625
762.493	0.115407
762.807	0.115132
763.121	0.114830
763.435	0.114533
763.749	0.114259
764.062	0.114187
764.376	0.114161
764.689	0.114158
765.003	0.114178
765.316	0.114237
765.630	0.114401
765.943	0.114381
766.257	0.114321
766.570	0.114152
766.883	0.113910
767.196	0.113573
767.509	0.113163
767.822	0.112945
768.135	0.112769
768.448	0.112607
768.761	0.112469
769.074	0.112403
769.387	0.112398
769.700	0.112386
770.013	0.112342
770.325	0.112306
770.638	0.112170
770.950	0.111909
771.263	0.111624
771.575	0.111372
771.888	0.111012
772.200	0.110598
772.513	0.110238
772.825	0.109926
773.137	0.109657
773.449	0.109396
773.761	0.109253
774.074	0.109261
774.386	0.109208
774.698	0.109234
775.010	0.109203
775.321	0.109273
775.633	0.109326
775.945	0.109362
776.257	0.109461
776.568	0.109599
776.880	0.109704
777.192	0.109650
777.503	0.109621
777.815	0.109708
778.126	0.109800
778.438	0.109939
778.749	0.110006
779.060	0.109966
779.372	0.109838
779.683	0.109716
779.994	0.109611
780.305	0.109370
780.616	0.109236
780.927	0.109157
781.238	0.108923
781.549	0.108754
781.860	0.108603
782.171	0.108535
782.481	0.108467
782.792	0.108349
783.103	0.108201
783.413	0.108124
783.724	0.108073
784.034	0.108191
784.345	0.108186
784.655	0.108106
784.966	0.107884
785.276	0.107786
785.586	0.107754
785.896	0.107723
786.207	0.107706
786.517	0.107681
786.827	0.107764
787.137	0.107782
787.447	0.107657
787.757	0.107672
788.066	0.107635
788.376	0.107656
788.686	0.107545
788.996	0.107541
789.305	0.107539
789.615	0.107599
789.925	0.107607
790.234	0.107694
790.544	0.107770
790.853	0.107821
791.162	0.107853
791.472	0.107855
791.781	0.107736
792.090	0.107573
792.399	0.107327
792.708	0.107015
793.017	0.106859
793.326	0.106731
793.635	0.106659
793.944	0.106549
794.253	0.106498
794.562	0.106500
794.871	0.106543
795.179	0.106509
795.488	0.106293
795.797	0.106154
796.105	0.105922
796.414	0.105744
796.722	0.105485
797.031	0.105147
797.339	0.104762
797.647	0.104405
797.956	0.104054
798.264	0.103859
798.572	0.103797
798.880	0.104012
799.188	0.104299
799.496	0.104372
799.804	0.104552
800.112	0.104530
800.420	0.104606
800.728	0.104536
801.035	0.104418
801.343	0.104175
801.651	0.104250
801.958	0.104483
802.266	0.104615
802.573	0.104972
802.881	0.105077
803.188	0.105271
803.496	0.105475
803.803	0.105445
804.110	0.105474
804.417	0.105493
804.724	0.105386
805.032	0.105409
805.339	0.105321
805.646	0.105174
805.953	0.104994
806.259	0.104788
806.566	0.104621
806.873	0.104596
807.180	0.104548
807.486	0.104600
807.793	0.104459
808.100	0.104203
808.406	0.103959
808.713	0.103718
809.019	0.103141
809.326	0.102960
809.632	0.102884
809.938	0.102313
810.244	0.102188
810.551	0.102042
810.857	0.102124
811.163	0.102221
811.469	0.101971
811.775	0.101721
812.081	0.101725
812.387	0.101862
812.692	0.101899
812.998	0.102075
813.304	0.102042
813.610	0.102155
813.915	0.102064
814.221	0.102033
814.526	0.102137
814.832	0.102081
815.137	0.101915
815.443	0.101854
815.748	0.101572
816.053	0.101198
816.358	0.101359
816.664	0.101471
816.969	0.101564
817.274	0.101683
817.579	0.101598
817.884	0.101653
818.189	0.101813
818.493	0.101545
818.798	0.101505
819.103	0.101350
819.408	0.100994
819.712	0.100788
820.017	0.100461
820.321	0.100263
820.626	0.100301
820.930	0.099949
821.235	0.099911
821.539	0.100094
821.843	0.100227
822.148	0.100116
822.452	0.100342
822.756	0.100296
823.060	0.099881
823.364	0.099719
823.668	0.099316
823.972	0.098923
824.276	0.098979
824.580	0.099122
824.883	0.099333
825.187	0.099162
825.491	0.099221
825.795	0.099356
826.098	0.099361
826.402	0.099375
826.705	0.099334
827.008	0.098909
827.312	0.098857
827.615	0.098554
827.918	0.098165
828.222	0.097678
828.525	0.097569
828.828	0.097131
829.131	0.097058
829.434	0.096804
829.737	0.096485
830.040	0.096297
830.343	0.096071
830.645	0.095789
830.948	0.095367
831.251	0.095172
831.553	0.095214
831.856	0.095125
832.159	0.094885
832.461	0.094623
832.764	0.094409
833.066	0.094051
833.368	0.094452
833.671	0.094297
833.973	0.094449
834.275	0.094301
834.577	0.094439
834.879	0.094289
835.181	0.093917
835.483	0.093648
835.785	0.093557
836.087	0.093504
836.389	0.093553
836.690	0.093262
836.992	0.092892
837.294	0.092151
837.595	0.091429
837.897	0.090735
838.198	0.090390
838.500	0.089852
838.801	0.089771
839.103	0.089640
839.404	0.089979
839.705	0.089561
840.006	0.089458
840.307	0.089297
840.608	0.089086
840.910	0.089372
841.210	0.089551
841.511	0.089521
841.812	0.088917
842.113	0.088775
842.414	0.087825
842.715	0.087183
843.015	0.087221
843.316	0.086816
843.616	0.085934
843.917	0.085583
844.217	0.085134
844.518	0.084664
844.818	0.084633
845.118	0.084445
845.419	0.083849
845.719	0.083041
846.019	0.082541
846.319	0.082857
846.619	0.082679
846.919	0.083322
847.219	0.082656
847.519	0.082691
847.819	0.082956
848.118	0.082937
848.418	0.083495
848.718	0.084448
849.017	0.085859
849.317	0.087166
849.616	0.088372
849.916	0.090221
850.215	0.091354
850.515	0.092345
850.814	0.092564
851.113	0.092552
851.412	0.092361
851.712	0.092456
852.011	0.092287
852.310	0.092373
852.609	0.092225
852.908	0.091934
853.206	0.091505
853.505	0.091796
853.804	0.091551
854.103	0.091400
854.401	0.091335
854.700	0.090946
854.999	0.090463
855.297	0.089734
855.595	0.089087
855.894	0.088486
856.192	0.087797
856.491	0.087069
856.789	0.086338
857.087	0.085365
857.385	0.084970
857.683	0.084501
857.981	0.084242
858.279	0.084299
858.577	0.083684
858.875	0.083088
859.173	0.083419
859.471	0.083789
859.768	0.083430
860.066	0.082912
860.363	0.082413
860.661	0.082099
860.959	0.082283
861.256	0.082323
861.553	0.082049
861.851	0.081355
862.148	0.080952
862.445	0.080546
862.742	0.080283
863.039	0.079357
863.337	0.080033
863.634	0.079482
863.931	0.079775
864.227	0.079309
864.524	0.079094
864.821	0.079290
865.118	0.079237
865.415	0.078282
865.711	0.077480
866.008	0.076118
866.304	0.076463
866.601	0.076791
866.897	0.076307
867.194	0.075773
867.490	0.075793
867.786	0.075947
868.082	0.076180
868.379	0.075905
868.675	0.075344
868.971	0.074539
869.267	0.074906
869.563	0.074999
869.859	0.075178
870.154	0.074616
870.450	0.075161
870.746	0.074601
871.042	0.075274
871.337	0.075384
871.633	0.075214
871.928	0.075270
872.224	0.075530
872.519	0.074565
872.815	0.073895
873.110	0.073906
873.405	0.073511
873.700	0.073312
873.995	0.073103
874.291	0.073783
874.586	0.074294
874.881	0.074651
875.175	0.075194
875.470	0.075603
875.765	0.075316
876.060	0.075555
876.355	0.075976
876.649	0.075610
876.944	0.075872
877.238	0.075321
877.533	0.074952
877.827	0.075386
878.122	0.075448
878.416	0.075463
878.710	0.075881
879.005	0.075653
879.299	0.075066
879.593	0.075034
879.887	0.074511
880.181	0.074203
880.475	0.073994
880.769	0.073632
881.063	0.074034
881.356	0.073594
881.650	0.073034
881.944	0.072334
882.238	0.053275
882.531	0.072266
882.825	0.058146
883.118	0.064673
883.412	0.079240
883.705	0.069807
883.998	0.084128
884.291	0.066733
884.585	0.070457
884.878	0.063768
>>>>>>>>>> END of Data <<<<<<<<<<
>>>>>>>>>> Raw Data Start <<<<<<<<
190.664	-238
191.040	7
191.415	7
191.791	4
192.166	7
192.542	15
192.917	4
193.293	8
193.668	4
194.044	3
194.419	-4
194.794	8
195.170	8
195.545	8
195.920	9
196.296	9
196.671	8
197.046	9
197.421	9
197.796	9
198.171	9
198.546	9
198.922	9
199.297	9
199.672	10
200.047	10
200.422	10
200.796	10
201.171	10
201.546	10
201.921	10
202.296	10
202.671	11
203.045	11
203.420	11
203.795	11
204.170	11
204.544	11
204.919	11
205.294	12
205.668	12
206.043	12
206.417	12
206.792	12
207.166	12
207.541	11
207.915	11
208.289	11
208.664	11
209.038	11
209.412	11
209.787	11
210.161	11
210.535	11
210.909	11
211.284	11
211.658	11
212.032	11
212.406	11
212.780	11
213.154	11
213.528	11
213.902	11
214.276	11
214.650	11
215.024	11
215.398	11
215.772	11
216.145	11
216.519	11
216.893	12
217.267	11
217.640	12
218.014	12
218.388	12
218.761	11
219.135	12
219.508	12
219.882	12
220.256	12
220.629	12
221.003	12
221.376	11
221.749	12
222.123	12
222.496	12
222.869	12
223.243	12
223.616	12
223.989	12
224.362	12
224.736	12
225.109	12
225.482	12
225.855	12
226.228	12
226.601	12
226.974	12
227.347	11
227.720	11
228.093	11
228.466	11
228.839	11
229.212	11
229.585	11
229.957	11
230.330	11
230.703	11
231.076	11
231.448	11
231.821	11
232.194	11
232.566	11
232.939	11
233.311	11
233.684	11
234.056	11
234.429	11
234.801	10
235.174	11
235.546	11
235.918	11
236.291	11
236.663	11
237.035	11
237.408	12
237.780	12
238.152	12
238.524	12
238.896	12
239.268	12
239.641	13
240.013	13
240.385	12
240.757	12
241.129	13
241.500	13
241.872	13
242.244	13
242.616	13
242.988	13
243.360	13
243.731	12
244.103	13
244.475	13
244.847	13
245.218	13
245.590	13
245.961	13
246.333	13
246.705	13
247.076	13
247.448	13
247.819	13
248.190	13
248.562	14
248.933	13
249.305	13
249.676	14
250.047	13
250.418	13
250.790	13
251.161	13
251.532	13
251.903	13
252.274	13
252.645	13
253.016	13
253.387	13
253.758	13
254.129	13
254.500	13
254.871	13
255.242	13
255.613	13
255.984	12
256.355	12
256.725	12
257.096	12
257.467	12
257.838	12
258.208	12
258.579	12
258.949	13
259.320	13
259.690	13
260.061	13
260.431	13
260.802	13
261.172	13
261.543	13
261.913	13
262.283	13
262.654	13
263.024	13
263.394	13
263.764	13
264.135	14
264.505	14
264.875	14
265.245	13
265.615	13
265.985	13
266.355	13
266.725	14
267.095	14
267.465	14
267.835	14
268.205	13
268.575	14
268.944	14
269.314	14
269.684	14
270.054	13
270.423	14
270.793	14
271.163	14
271.532	14
271.902	14
272.271	14
272.641	14
273.010	14
273.380	15
273.749	15
274.119	15
274.488	15
274.857	14
275.227	15
275.596	15
275.965	15
276.335	15
276.704	15
277.073	15
277.442	14
277.811	15
278.180	15
278.549	15
278.918	15
279.287	15
279.656	15
280.025	16
280.394	16
280.763	15
281.132	16
281.501	15
281.869	15
282.238	15
282.607	15
282.976	15
283.344	15
283.713	15
284.081	15
284.450	14
284.819	15
285.187	15
285.556	15
285.924	15
286.292	15
286.661	15
287.029	14
287.398	15
287.766	15
288.134	15
288.502	15
288.871	15
289.239	15
289.607	15
289.975	14
290.343	14
290.711	14
291.079	14
291.447	14
291.815	14
292.183	15
292.551	15
292.919	15
293.287	15
293.655	15
294.022	15
294.390	15
294.758	14
295.126	14
295.493	14
295.861	14
296.229	14
296.596	14
296.964	14
297.331	14
297.699	15
298.066	15
298.434	15
298.801	15
299.168	15
299.536	15
299.903	15
300.270	15
300.638	15
301.005	15
301.372	15
301.739	15
302.106	15
302.473	16
302.840	16
303.207	16
303.574	15
303.941	16
304.308	15
304.675	16
305.042	16
305.409	15
305.776	16
306.143	15
306.509	16
306.876	15
307.243	16
307.610	16
307.976	16
308.343	16
308.709	16
309.076	16
309.442	16
309.809	15
310.175	15
310.542	15
310.908	16
311.275	16
311.641	16
312.007	16
312.373	16
312.740	16
313.106	16
313.472	16
313.838	16
314.204	16
314.570	17
314.936	17
315.302	17
315.668	17
316.034	17
316.400	17
316.766	17
317.132	17
317.498	17
317.864	18
318.230	18
318.595	18
318.961	18
319.327	18
319.692	18
320.058	19
320.424	19
320.789	19
321.155	20
321.520	20
321.886	20
322.251	20
322.616	20
322.982	21
323.347	22
323.712	22
324.078	23
324.443	23
324.808	25
325.173	25
325.539	26
325.904	26
326.269	27
326.634	27
326.999	28
327.364	29
327.729	30
328.094	30
328.459	31
328.823	32
329.188	32
329.553	33
329.918	33
330.283	34
330.647	34
331.012	35
331.377	36
331.741	36
332.106	37
332.470	38
332.835	39
333.199	39
333.564	40
333.928	40
334.293	41
334.657	42
335.021	42
335.386	43
335.750	44
336.114	45
336.478	46
336.843	47
337.207	48
337.571	49
337.935	50
338.299	51
338.663	52
339.027	53
339.391	54
339.755	54
340.119	55
340.483	56
340.846	57
341.210	58
341.574	59
341.938	60
342.301	60
342.665	61
343.029	61
343.392	62
343.756	63
344.119	64
344.483	64
344.846	65
345.210	66
345.573	66
345.937	67
346.300	68
346.663	69
347.027	69
347.390	70
347.753	71
348.116	72
348.479	72
348.843	73
349.206	74
349.569	75
349.932	75
350.295	76
350.658	77
351.021	77
351.383	78
351.746	78
352.109	78
352.472	79
352.835	80
353.197	80
353.560	80
353.923	80
354.285	81
354.648	81
355.011	82
355.373	82
355.736	82
356.098	83
356.461	83
356.823	83
357.185	83
357.548	84
357.910	84
358.272	85
358.635	85
358.997	86
359.359	86
359.721	86
360.083	87
360.445	87
360.807	87
361.169	88
361.531	88
361.893	88
362.255	89
362.617	89
362.979	89
363.341	89
363.703	90
364.064	90
364.426	90
364.788	91
365.149	91
365.511	92
365.873	92
366.234	92
366.596	92
366.957	92
367.319	92
367.680	92
368.042	92
368.403	92
368.764	92
369.126	92
369.487	92
369.848	93
370.209	93
370.570	93
370.931	92
371.293	92
371.654	92
372.015	92
372.376	92
372.737	92
373.098	92
373.458	92
373.819	92
374.180	91
374.541	91
374.902	92
375.263	92
375.623	92
375.984	92
376.345	93
376.705	93
377.066	92
377.426	92
377.787	93
378.147	93
378.508	93
378.868	93
379.228	94
379.589	94
379.949	94
380.309	94
380.670	94
381.030	95
381.390	95
381.750	95
382.110	95
382.470	95
382.830	95
383.190	94
383.550	95
383.910	95
384.270	95
384.630	95
384.990	95
385.350	95
385.709	95
386.069	95
386.429	95
386.788	95
387.148	95
387.508	95
387.867	95
388.227	96
388.586	96
388.946	96
389.305	97
389.665	97
390.024	97
390.383	98
390.743	99
391.102	99
391.461	100
391.820	100
392.179	100
392.539	101
392.898	101
393.257	101
393.616	101
393.975	102
394.334	102
394.693	102
395.051	103
395.410	104
395.769	104
396.128	104
396.487	104
396.845	104
397.204	105
397.563	105
397.921	106
398.280	106
398.638	106
398.997	106
399.355	106
399.714	106
400.072	107
400.431	107
400.789	107
401.147	108
401.506	108
401.864	108
402.222	109
402.580	109
402.938	109
403.297	109
403.655	109
404.013	109
404.371	109
404.729	110
405.087	110
405.444	109
405.802	110
406.160	110
406.518	111
406.876	111
407.233	111
407.591	111
407.949	111
408.306	111
408.664	111
409.022	111
409.379	112
409.737	112
410.094	112
410.451	112
410.809	113
411.166	113
411.523	114
411.881	114
412.238	114
412.595	115
412.952	115
413.310	115
413.667	115
414.024	115
414.381	115
414.738	116
415.095	116
415.452	117
415.809	117
416.165	118
416.522	118
416.879	119
417.236	120
417.593	121
417.949	122
418.306	123
418.663	124
419.019	126
419.376	127
419.732	129
420.089	131
420.445	132
420.802	133
421.158	135
421.514	136
421.871	137
422.227	138
422.583	139
422.939	140
423.295	141
423.652	142
424.008	143
424.364	144
424.720	145
425.076	145
425.432	146
425.788	146
426.143	147
426.499	148
426.855	149
427.211	150
427.567	151
427.922	152
428.278	153
428.634	153
428.989	154
429.345	155
429.700	156
430.056	157
430.411	158
430.767	159
431.122	160
431.478	161
431.833	162
432.188	163
432.543	164
432.899	165
433.254	166
433.609	167
433.964	167
434.319	168
434.674	169
435.029	169
435.384	171
435.739	171
436.094	173
436.449	174
436.804	176
437.158	179
437.513	181
437.868	184
438.223	186
438.577	189
438.932	192
439.287	195
439.641	198
439.996	202
440.350	205
440.704	208
441.059	211
441.413	215
441.768	218
442.122	221
442.476	224
442.830	227
443.185	230
443.539	233
443.893	237
444.247	239
444.601	242
444.955	244
445.309	246
445.663	248
446.017	249
446.371	251
446.724	252
447.078	253
447.432	254
447.786	255
448.139	256
448.493	257
448.847	258
449.200	259
449.554	259
449.907	260
450.261	261
450.614	262
450.968	262
451.321	263
451.674	264
452.027	265
452.381	266
452.734	267
453.087	268
453.440	270
453.793	272
454.146	274
454.499	277
454.852	280
455.205	283
455.558	286
455.911	290
456.264	293
456.617	297
456.970	300
457.322	303
457.675	307
458.028	310
458.380	312
458.733	315
459.086	317
459.438	320
459.791	324
460.143	327
460.496	331
460.848	335
461.200	340
461.553	345
461.905	350
462.257	355
462.609	359
462.961	363
463.314	367
463.666	370
464.018	374
464.370	377
464.722	380
465.074	384
465.426	387
465.777	390
466.129	393
466.481	396
466.833	398
467.184	399
467.536	400
467.888	400
468.239	401
468.591	402
468.943	402
469.294	404
469.646	406
469.997	409
470.348	412
470.700	416
471.051	421
471.402	427
471.754	433
472.105	440
472.456	447
472.807	455
473.158	463
473.509	473
473.860	482
474.211	493
474.562	504
474.913	515
475.264	527
475.615	539
475.966	551
476.316	562
476.667	573
477.018	585
477.368	597
477.719	609
478.070	621
478.420	633
478.771	644
479.121	655
479.472	666
479.822	678
480.172	691
480.523	705
480.873	724
481.223	754
481.573	799
481.924	856
482.274	921
482.624	989
482.974	1059
483.324	1122
483.674	1171
484.024	1205
484.374	1228
484.724	1244
485.073	1256
485.423	1265
485.773	1275
486.123	1284
486.472	1293
486.822	1301
487.172	1309
487.521	1315
487.871	1319
488.220	1318
488.570	1305
488.919	1279
489.268	1239
489.618	1191
489.967	1139
490.316	1086
490.666	1039
491.015	1005
491.364	985
491.713	976
492.062	974
492.411	976
492.760	981
493.109	986
493.458	992
493.807	997
494.156	1002
494.505	1006
494.853	1011
495.202	1017
495.551	1024
495.900	1031
496.248	1039
496.597	1047
496.945	1054
497.294	1062
497.642	1070
497.991	1079
498.339	1089
498.688	1100
499.036	1111
499.384	1120
499.732	1130
500.081	1138
500.429	1145
500.777	1151
501.125	1158
501.473	1164
501.821	1171
502.169	1177
502.517	1183
502.865	1187
503.213	1191
503.561	1194
503.908	1196
504.256	1198
504.604	1200
504.952	1200
505.299	1201
505.647	1200
505.994	1198
506.342	1196
506.689	1194
507.037	1192
507.384	1192
507.732	1191
508.079	1192
508.426	1192
508.774	1193
509.121	1193
509.468	1193
509.815	1192
510.162	1192
510.509	1192
510.856	1191
511.203	1190
511.550	1189
511.897	1188
512.244	1187
512.591	1186
512.938	1185
513.284	1184
513.631	1183
513.978	1182
514.324	1180
514.671	1177
515.018	1175
515.364	1173
515.711	1172
516.057	1170
516.403	1168
516.750	1167
517.096	1163
517.443	1160
517.789	1157
518.135	1153
518.481	1152
518.827	1150
519.173	1147
519.519	1145
519.865	1143
520.211	1141
520.557	1140
520.903	1139
521.249	1138
521.595	1138
521.941	1137
522.287	1137
522.632	1137
522.978	1137
523.324	1137
523.669	1138
524.015	1139
524.360	1143
524.706	1148
525.051	1154
525.397	1161
525.742	1168
526.087	1176
526.433	1184
526.778	1191
527.123	1196
527.468	1201
527.813	1205
528.158	1210
528.504	1216
528.849	1224
529.193	1233
529.538	1244
529.883	1257
530.228	1273
530.573	1289
530.918	1307
531.263	1325
531.607	1342
531.952	1357
532.296	1371
532.641	1382
532.986	1391
533.330	1400
533.675	1409
534.019	1421
534.363	1435
534.708	1451
535.052	1471
535.396	1491
535.741	1510
536.085	1528
536.429	1544
536.773	1559
537.117	1572
537.461	1582
537.805	1593
538.149	1603
538.493	1615
538.837	1627
539.181	1641
539.524	1658
539.868	1677
540.212	1698
540.556	1721
540.899	1745
541.243	1767
541.586	1786
541.930	1802
542.273	1814
542.617	1825
542.960	1835
543.304	1849
543.647	1865
543.990	1885
544.333	1908
544.677	1932
545.020	1955
545.363	1975
545.706	1991
546.049	2005
546.392	2014
546.735	2020
547.078	2025
547.421	2030
547.764	2036
548.106	2043
548.449	2052
548.792	2066
549.135	2083
549.477	2104
549.820	2125
550.162	2143
550.505	2159
550.847	2173
551.190	2183
551.532	2191
551.875	2200
552.217	2210
552.559	2223
552.901	2238
553.244	2256
553.586	2276
553.928	2296
554.270	2315
554.612	2332
554.954	2346
555.296	2359
555.638	2371
555.980	2384
556.322	2399
556.663	2418
557.005	2444
557.347	2475
557.689	2508
558.030	2542
558.372	2574
558.713	2603
559.055	2632
559.396	2660
559.738	2689
560.079	2720
560.421	2755
560.762	2793
561.103	2836
561.444	2882
561.786	2931
562.127	2982
562.468	3037
562.809	3096
563.150	3162
563.491	3233
563.832	3311
564.173	3400
564.514	3501
564.855	3622
565.195	3768
565.536	3944
565.877	4148
566.218	4380
566.558	4643
566.899	4932
567.239	5247
567.580	5578
567.920	5921
568.261	6267
568.601	6622
568.941	6990
569.282	7369
569.622	7762
569.962	8172
570.302	8609
570.643	9063
570.983	9524
571.323	9972
571.663	10407
572.003	10821
572.343	11212
572.683	11576
573.022	11946
573.362	12335
573.702	12740
574.042	13147
574.381	13539
574.721	13914
575.061	14277
575.400	14611
575.740	14909
576.079	15174
576.419	15432
576.758	15721
577.097	16060
577.437	16433
577.776	16832
578.115	17247
578.454	17673
578.794	18071
579.133	18388
579.472	18614
579.811	18755
580.150	18816
580.489	18814
580.828	18780
581.167	18747
581.505	18730
581.844	18723
582.183	18713
582.522	18715
582.860	18729
583.199	18742
583.538	18733
583.876	18669
584.215	18530
584.553	18304
584.891	17997
585.230	17616
585.568	17188
585.906	16742
586.245	16337
586.583	15985
586.921	15694
587.259	15435
587.597	15177
587.935	14908
588.273	14630
588.611	14369
588.949	14137
589.287	13942
589.625	13790
589.963	13670
590.300	13578
590.638	13497
590.976	13407
591.313	13300
591.651	13194
591.989	13101
592.326	13026
592.664	12961
593.001	12909
593.338	12878
593.676	12864
594.013	12873
594.350	12922
594.687	13005
595.025	13102
595.362	13194
595.699	13261
596.036	13307
596.373	13326
596.710	13310
597.047	13270
597.384	13217
597.720	13155
598.057	13104
598.394	13067
598.731	13047
599.067	13048
599.404	13071
599.741	13124
600.077	13200
600.414	13286
600.750	13379
601.087	13455
601.423	13495
601.759	13504
602.096	13486
602.432	13453
602.768	13398
603.104	13322
603.440	13224
603.776	13120
604.112	13006
604.448	12890
604.784	12768
605.120	12636
605.456	12509
605.792	12375
606.128	12236
606.463	12091
606.799	11945
607.135	11812
607.470	11682
607.806	11550
608.142	11421
608.477	11299
608.812	11181
609.148	11063
609.483	10937
609.819	10809
610.154	10685
610.489	10570
610.824	10470
611.159	10387
611.494	10304
611.830	10231
612.165	10160
612.500	10081
612.834	9990
613.169	9885
613.504	9768
613.839	9638
614.174	9489
614.509	9336
614.843	9183
615.178	9039
615.512	8896
615.847	8756
616.182	8618
616.516	8478
616.850	8330
617.185	8176
617.519	8021
617.853	7852
618.188	7676
618.522	7512
618.856	7373
619.190	7252
619.524	7146
619.858	7061
620.192	6995
620.526	6938
620.860	6882
621.194	6827
621.528	6774
621.862	6722
622.195	6658
622.529	6588
622.863	6515
623.196	6443
623.530	6369
623.864	6297
624.197	6223
624.530	6150
624.864	6084
625.197	6018
625.531	5943
625.864	5851
626.197	5752
626.530	5646
626.863	5526
627.196	5395
627.529	5261
627.862	5129
628.195	4998
628.528	4869
628.861	4744
629.194	4632
629.527	4525
629.860	4420
630.192	4316
630.525	4219
630.858	4128
631.190	4041
631.523	3958
631.855	3879
632.188	3810
632.520	3747
632.852	3687
633.185	3627
633.517	3568
633.849	3514
634.182	3466
634.514	3420
634.846	3378
635.178	3341
635.510	3309
635.842	3279
636.174	3251
636.506	3222
636.837	3195
637.169	3167
637.501	3137
637.833	3106
638.164	3070
638.496	3030
638.828	2985
639.159	2934
639.491	2878
639.822	2820
640.154	2761
640.485	2703
640.816	2646
641.147	2589
641.479	2534
641.810	2481
642.141	2430
642.472	2380
642.803	2330
643.134	2282
643.465	2241
643.796	2208
644.127	2184
644.458	2171
644.789	2169
645.119	2180
645.450	2200
645.781	2224
646.111	2247
646.442	2269
646.773	2286
647.103	2300
647.433	2311
647.764	2323
648.094	2338
648.425	2357
648.755	2379
649.085	2407
649.415	2434
649.745	2464
650.075	2494
650.405	2527
650.735	2585
651.065	2984
651.395	4415
651.725	6937
652.055	10263
652.385	13891
652.715	17519
653.044	21147
653.374	24780
653.704	28418
654.033	30890
654.363	32596
654.692	33739
655.022	34480
655.351	34961
655.680	35256
656.010	35415
656.339	35487
656.668	35507
656.997	35499
657.326	35472
657.655	35409
657.984	34994
658.313	33539
658.642	30984
658.971	27616
659.300	23939
659.629	20263
659.958	16587
660.286	12912
660.615	9238
660.944	6737
661.272	5007
661.601	3840
661.929	3074
662.258	2564
662.586	2234
662.915	2035
663.243	1919
663.571	1854
663.899	1813
664.228	1788
664.556	1771
664.884	1759
665.212	1751
665.540	1745
665.868	1742
666.196	1740
666.524	1739
666.852	1741
667.179	1747
667.507	1760
667.835	1779
668.162	1805
668.490	1837
668.818	1874
669.145	1915
669.473	1955
669.800	1993
670.127	2027
670.455	2055
670.782	2079
671.109	2100
671.436	2117
671.764	2131
672.091	2144
672.418	2154
672.745	2162
673.072	2171
673.399	2181
673.726	2192
674.053	2200
674.379	2204
674.706	2203
675.033	2202
675.359	2198
675.686	2194
676.013	2192
676.339	2193
676.666	2200
676.992	2215
677.318	2237
677.645	2264
677.971	2289
678.297	2311
678.624	2333
678.950	2354
679.276	2373
679.602	2391
679.928	2410
680.254	2433
680.580	2462
680.906	2500
681.232	2548
681.558	2599
681.883	2650
682.209	2697
682.535	2741
682.860	2782
683.186	2816
683.511	2843
683.837	2861
684.162	2875
684.488	2885
684.813	2896
685.138	2906
685.464	2915
685.789	2923
686.114	2931
686.439	2941
686.764	2951
687.089	2960
687.414	2962
687.739	2955
688.064	2938
688.389	2917
688.714	2890
689.039	2862
689.363	2833
689.688	2799
690.013	2767
690.337	2737
690.662	2713
690.986	2692
691.311	2671
691.635	2650
691.959	2629
692.284	2614
692.608	2609
692.932	2614
693.256	2623
693.580	2635
693.904	2649
694.228	2667
694.552	2684
694.876	2693
695.200	2693
695.524	2683
695.848	2666
696.172	2644
696.495	2622
696.819	2599
697.143	2574
697.466	2549
697.790	2526
698.113	2511
698.437	2502
698.760	2501
699.083	2500
699.407	2494
699.730	2482
700.053	2462
700.376	2435
700.699	2398
701.022	2348
701.345	2294
701.668	2242
701.991	2197
702.314	2166
702.637	2149
702.960	2151
703.283	2171
703.605	2208
703.928	2259
704.251	2320
704.573	2381
704.896	2436
705.218	2482
705.540	2518
705.863	2546
706.185	2569
706.507	2588
706.830	2605
707.152	2623
707.474	2642
707.796	2664
708.118	2689
708.440	2712
708.762	2733
709.084	2750
709.406	2761
709.728	2763
710.049	2759
710.371	2748
710.693	2730
711.014	2710
711.336	2690
711.658	2672
711.979	2656
712.301	2641
712.622	2626
712.943	2608
713.265	2587
713.586	2565
713.907	2543
714.228	2524
714.549	2509
714.870	2499
715.191	2494
715.512	2494
715.833	2491
716.154	2485
716.475	2476
716.796	2460
717.117	2437
717.437	2410
717.758	2380
718.078	2348
718.399	2317
718.719	2289
719.040	2265
719.360	2246
719.681	2232
720.001	2224
720.321	2219
720.642	2216
720.962	2218
721.282	2224
721.602	2231
721.922	2239
722.242	2250
722.562	2265
722.882	2283
723.202	2299
723.521	2314
723.841	2330
724.161	2347
724.481	2363
724.800	2380
725.120	2401
725.439	2427
725.759	2456
726.078	2489
726.398	2528
726.717	2577
727.036	2633
727.355	2693
727.675	2751
727.994	2807
728.313	2861
728.632	2908
728.951	2947
729.270	2980
729.589	3010
729.908	3048
730.226	3090
730.545	3136
730.864	3186
731.182	3240
731.501	3295
731.820	3348
732.138	3395
732.457	3435
732.775	3472
733.093	3503
733.412	3522
733.730	3528
734.048	3521
734.367	3505
734.685	3483
735.003	3459
735.321	3436
735.639	3417
735.957	3402
736.275	3389
736.593	3371
736.910	3343
737.228	3304
737.546	3255
737.863	3195
738.181	3130
738.499	3060
738.816	2991
739.134	2923
739.451	2855
739.768	2787
740.086	2720
740.403	2658
740.720	2601
741.038	2547
741.355	2495
741.672	2443
741.989	2391
742.306	2337
742.623	2281
742.940	2226
743.257	2175
743.573	2129
743.890	2092
744.207	2064
744.523	2044
744.840	2030
745.157	2022
745.473	2019
745.790	2025
746.106	2039
746.422	2061
746.739	2090
747.055	2124
747.371	2164
747.687	2206
748.004	2247
748.320	2284
748.636	2316
748.952	2348
749.268	2380
749.584	2411
749.899	2439
750.215	2468
750.531	2499
750.847	2535
751.162	2571
751.478	2607
751.793	2643
752.109	2682
752.424	2724
752.740	2767
753.055	2814
753.370	2872
753.686	2940
754.001	3014
754.316	3092
754.631	3173
754.946	3259
755.261	3350
755.576	3439
755.891	3524
756.206	3608
756.521	3695
756.836	3784
757.150	3871
757.465	3949
757.780	4015
758.094	4071
758.409	4115
758.723	4144
759.038	4158
759.352	4159
759.667	4149
759.981	4128
760.295	4107
760.609	4089
760.923	4077
761.238	4070
761.552	4066
761.866	4060
762.180	4052
762.493	4031
762.807	3991
763.121	3929
763.435	3849
763.749	3761
764.062	3676
764.376	3605
764.689	3555
765.003	3527
765.316	3521
765.630	3530
765.943	3550
766.257	3573
766.570	3593
766.883	3600
767.196	3592
767.509	3570
767.822	3535
768.135	3490
768.448	3441
768.761	3389
769.074	3344
769.387	3309
769.700	3286
770.013	3272
770.325	3262
770.638	3247
770.950	3221
771.263	3179
771.575	3119
771.888	3043
772.200	2954
772.513	2857
772.825	2755
773.137	2650
773.449	2547
773.761	2447
774.074	2353
774.386	2270
774.698	2200
775.010	2142
775.321	2100
775.633	2072
775.945	2056
776.257	2046
776.568	2042
776.880	2048
777.192	2062
777.503	2085
777.815	2112
778.126	2147
778.438	2191
778.749	2238
779.060	2284
779.372	2328
779.683	2371
779.994	2409
780.305	2440
780.616	2461
780.927	2475
781.238	2481
781.549	2477
781.860	2462
782.171	2440
782.481	2415
782.792	2390
783.103	2366
783.413	2339
783.724	2310
784.034	2281
784.345	2254
784.655	2231
784.966	2207
785.276	2182
785.586	2157
785.896	2132
786.207	2106
786.517	2079
786.827	2051
787.137	2026
787.447	2001
787.757	1978
788.066	1956
788.376	1934
788.686	1913
788.996	1891
789.305	1870
789.615	1852
789.925	1842
790.234	1839
790.544	1843
790.853	1852
791.162	1862
791.472	1871
791.781	1875
792.090	1873
792.399	1862
792.708	1845
793.017	1826
793.326	1807
793.635	1789
793.944	1772
794.253	1757
794.562	1746
794.871	1739
795.179	1734
795.488	1729
795.797	1720
796.105	1705
796.414	1680
796.722	1646
797.031	1602
797.339	1550
797.647	1491
797.956	1428
798.264	1369
798.572	1320
798.880	1281
799.188	1252
799.496	1231
799.804	1215
800.112	1203
800.420	1193
800.728	1184
801.035	1171
801.343	1157
801.651	1145
801.958	1141
802.266	1145
802.573	1153
802.881	1165
803.188	1180
803.496	1197
803.803	1214
804.110	1230
804.417	1244
804.724	1257
805.032	1268
805.339	1278
805.646	1285
805.953	1288
806.259	1290
806.566	1288
806.873	1283
807.180	1276
807.486	1269
807.793	1262
808.100	1250
808.406	1230
808.713	1202
809.019	1170
809.326	1137
809.632	1104
809.938	1075
810.244	1047
810.551	1024
810.857	1003
811.163	986
811.469	969
811.775	950
812.081	930
812.387	912
812.692	898
812.998	887
813.304	878
813.610	871
813.915	866
814.221	861
814.526	857
814.832	854
815.137	850
815.443	845
815.748	837
816.053	826
816.358	814
816.664	804
816.969	794
817.274	786
817.579	779
817.884	774
818.189	773
818.493	773
818.798	771
819.103	766
819.408	759
819.712	750
820.017	740
820.321	730
820.626	720
820.930	711
821.235	704
821.539	701
821.843	700
822.148	702
822.452	703
822.756	703
823.060	701
823.364	697
823.668	691
823.972	685
824.276	677
824.580	671
824.883	668
825.187	667
825.491	667
825.795	667
826.098	667
826.402	666
826.705	663
827.008	659
827.312	652
827.615	642
827.918	629
828.222	614
828.525	599
828.828	585
829.131	570
829.434	555
829.737	541
830.040	530
830.343	521
830.645	513
830.948	505
831.251	497
831.553	490
831.856	485
832.159	480
832.461	473
832.764	467
833.066	460
833.368	454
833.671	450
833.973	447
834.275	444
834.577	441
834.879	437
835.181	433
835.483	427
835.785	421
836.087	414
836.389	405
836.690	394
836.992	383
837.294	372
837.595	360
837.897	347
838.198	335
838.500	323
838.801	312
839.103	302
839.404	294
839.705	287
840.006	282
840.307	278
840.608	274
840.910	272
841.210	270
841.511	268
841.812	266
842.113	263
842.414	259
842.715	255
843.015	249
843.316	244
843.616	239
843.917	234
844.217	231
844.518	227
844.818	224
845.118	223
845.419	222
845.719	221
846.019	220
846.319	219
846.619	217
846.919	216
847.219	216
847.519	214
847.819	213
848.118	213
848.418	215
848.718	221
849.017	230
849.317	245
849.616	262
849.916	282
850.215	305
850.515	330
850.814	354
851.113	377
851.412	397
851.712	416
852.011	433
852.310	449
852.609	464
852.908	477
853.206	488
853.505	498
853.804	508
854.103	516
854.401	522
854.700	524
854.999	523
855.297	518
855.595	508
855.894	494
856.192	476
856.491	456
856.789	434
857.087	412
857.385	390
857.683	370
857.981	352
858.279	336
858.577	320
858.875	307
859.173	295
859.471	286
859.768	278
860.066	272
860.363	266
860.661	262
860.959	258
861.256	255
861.553	251
861.851	246
862.148	241
862.445	236
862.742	232
863.039	228
863.337	224
863.634	222
863.931	220
864.227	219
864.524	218
864.821	218
865.118	217
865.415	215
865.711	213
866.008	209
866.304	205
866.601	201
866.897	197
867.194	195
867.490	192
867.786	191
868.082	191
868.379	191
868.675	192
868.971	193
869.267	193
869.563	193
869.859	192
870.154	192
870.450	191
870.746	190
871.042	189
871.337	188
871.633	189
871.928	189
872.224	191
872.519	193
872.815	194
873.110	195
873.405	194
873.700	194
873.995	194
874.291	193
874.586	194
874.881	195
875.175	197
875.470	199
875.765	203
876.060	207
876.355	210
876.649	215
876.944	219
877.238	223
877.533	226
877.827	229
878.122	231
878.416	232
878.710	232
879.005	232
879.299	231
879.593	230
879.887	229
880.181	228
880.475	227
880.769	225
881.063	223
881.356	221
881.650	218
881.944	215
882.238	184
882.531	169
882.825	172
883.118	172
883.412	169
883.705	170
883.998	170
884.291	182
884.585	181
884.878	192
>>>>>>>>>> END of Data <<<<<<<<<<