Date	2021年06月15日火曜日 04時23分45秒
Spectrometers	USB2+H05879
ダーク	使用
リファレンス	使用
積分時間[msec]	10
平均回数	280
ｽﾑｰｼﾞﾝｸﾞ	10
Electrical Dark	USE
ピクセル数	2048
計測モード	吸光度
保存開始波長[nm]	190.664
保存終了波長[nm]	884.878
保存ﾋﾟｯﾁ波長[nm]	全波長

>>>>>>>>>> Data Start <<<<<<<<<<<<
190.664	0.000000
191.040	0.000000
191.415	0.000000
191.791	-2.630073
192.166	-0.232673
192.542	-0.645068
192.917	0.000000
193.293	-0.467540
193.668	-0.637234
194.044	-0.948923
194.419	0.000000
194.794	-1.411335
195.170	-1.328800
195.545	-1.237814
195.920	-1.105352
196.296	-1.001096
196.671	-0.847943
197.046	-0.697790
197.421	-0.644167
197.796	-0.631260
198.171	-0.597046
198.546	-0.543564
198.922	-0.489032
199.297	-0.469031
199.672	-0.442618
200.047	-0.413666
200.422	-0.380173
200.796	-0.359707
201.171	-0.344725
201.546	-0.342835
201.921	-0.323256
202.296	-0.316125
202.671	-0.293674
203.045	-0.265037
203.420	-0.249304
203.795	-0.235467
204.170	-0.226112
204.544	-0.217538
204.919	-0.218338
205.294	-0.215299
205.668	-0.199606
206.043	-0.184509
206.417	-0.193894
206.792	-0.186631
207.166	-0.175431
207.541	-0.171778
207.915	-0.181803
208.289	-0.167621
208.664	-0.171470
209.038	-0.172464
209.412	-0.150745
209.787	-0.135974
210.161	-0.118879
210.535	-0.126238
210.909	-0.114907
211.284	-0.111944
211.658	-0.114994
212.032	-0.117392
212.406	-0.127272
212.780	-0.124007
213.154	-0.125319
213.528	-0.125384
213.902	-0.127930
214.276	-0.115909
214.650	-0.118462
215.024	-0.126488
215.398	-0.120567
215.772	-0.111316
216.145	-0.117284
216.519	-0.109722
216.893	-0.106470
217.267	-0.111746
217.640	-0.119533
218.014	-0.114440
218.388	-0.103315
218.761	-0.118281
219.135	-0.107236
219.508	-0.105800
219.882	-0.100638
220.256	-0.093345
220.629	-0.089362
221.003	-0.089020
221.376	-0.088676
221.749	-0.093687
222.123	-0.101201
222.496	-0.101831
222.869	-0.089425
223.243	-0.090185
223.616	-0.089816
223.989	-0.095581
224.362	-0.094251
224.736	-0.094654
225.109	-0.094522
225.482	-0.093389
225.855	-0.097064
226.228	-0.099319
226.601	-0.091216
226.974	-0.088896
227.347	-0.077606
227.720	-0.080508
228.093	-0.082186
228.466	-0.084491
228.839	-0.083363
229.212	-0.097316
229.585	-0.103788
229.957	-0.102075
230.330	-0.103797
230.703	-0.103784
231.076	-0.104533
231.448	-0.107252
231.821	-0.104731
232.194	-0.106260
232.566	-0.107731
232.939	-0.111057
233.311	-0.113089
233.684	-0.106939
234.056	-0.109730
234.429	-0.106288
234.801	-0.109534
235.174	-0.108471
235.546	-0.112907
235.918	-0.117911
236.291	-0.120598
236.663	-0.107487
237.035	-0.100442
237.408	-0.090172
237.780	-0.074949
238.152	-0.072237
238.524	-0.077635
238.896	-0.070757
239.268	-0.067167
239.641	-0.071499
240.013	-0.063429
240.385	-0.057777
240.757	-0.056187
241.129	-0.049794
241.500	-0.056033
241.872	-0.052902
242.244	-0.056614
242.616	-0.064395
242.988	-0.071779
243.360	-0.063540
243.731	-0.053777
244.103	-0.049920
244.475	-0.062089
244.847	-0.051869
245.218	-0.046365
245.590	-0.048287
245.961	-0.049674
246.333	-0.045028
246.705	-0.052243
247.076	-0.052083
247.448	-0.042605
247.819	-0.049872
248.190	-0.040947
248.562	-0.041686
248.933	-0.045260
249.305	-0.041141
249.676	-0.037204
250.047	-0.041193
250.418	-0.036578
250.790	-0.035112
251.161	-0.037727
251.532	-0.044237
251.903	-0.041065
252.274	-0.028057
252.645	-0.027539
253.016	-0.033195
253.387	-0.036774
253.758	-0.032555
254.129	-0.031848
254.500	-0.023487
254.871	-0.026524
255.242	-0.030085
255.613	-0.029424
255.984	-0.038323
256.355	-0.036203
256.725	-0.031438
257.096	-0.031450
257.467	-0.028546
257.838	-0.025311
258.208	-0.022485
258.579	-0.021684
258.949	-0.019184
259.320	-0.016004
259.690	-0.011043
260.061	-0.009893
260.431	-0.004499
260.802	-0.003883
261.172	-0.006119
261.543	0.000157
261.913	-0.004623
262.283	-0.006325
262.654	-0.005904
263.024	-0.003881
263.394	-0.001024
263.764	0.005088
264.135	0.009093
264.505	0.010461
264.875	0.016162
265.245	0.014680
265.615	0.021507
265.985	0.016773
266.355	0.022839
266.725	0.021695
267.095	0.027836
267.465	0.027566
267.835	0.021990
268.205	0.012448
268.575	0.019568
268.944	0.023287
269.314	0.014470
269.684	0.017216
270.054	0.008405
270.423	0.015391
270.793	0.018854
271.163	0.020918
271.532	0.022814
271.902	0.022682
272.271	0.022598
272.641	0.024470
273.010	0.019248
273.380	0.014074
273.749	0.019377
274.119	0.025953
274.488	0.031420
274.857	0.025901
275.227	0.018776
275.596	0.014209
275.965	0.021052
276.335	0.016925
276.704	0.016071
277.073	0.013603
277.442	0.017582
277.811	0.023737
278.180	0.022893
278.549	0.019877
278.918	0.016518
279.287	0.013176
279.656	0.010704
280.025	0.011007
280.394	0.002823
280.763	0.012648
281.132	0.015165
281.501	0.016066
281.869	0.012572
282.238	0.010428
282.607	0.012010
282.976	0.014472
283.344	0.022027
283.713	0.017950
284.081	0.018215
284.450	0.020705
284.819	0.024993
285.187	0.027371
285.556	0.028048
285.924	0.026490
286.292	0.025273
286.661	0.027130
287.029	0.027651
287.398	0.035348
287.766	0.031169
288.134	0.034788
288.502	0.030165
288.871	0.033923
289.239	0.033094
289.607	0.032829
289.975	0.034517
290.343	0.040062
290.711	0.043464
291.079	0.040434
291.447	0.043241
291.815	0.045854
292.183	0.043653
292.551	0.045098
292.919	0.044070
293.287	0.046369
293.655	0.047316
294.022	0.051766
294.390	0.055428
294.758	0.060536
295.126	0.057175
295.493	0.059863
295.861	0.065635
296.229	0.063591
296.596	0.062661
296.964	0.068037
297.331	0.064438
297.699	0.074820
298.066	0.075100
298.434	0.084564
298.801	0.083712
299.168	0.075652
299.536	0.081768
299.903	0.085414
300.270	0.087889
300.638	0.097161
301.005	0.105291
301.372	0.115069
301.739	0.119833
302.106	0.123240
302.473	0.129891
302.840	0.142187
303.207	0.159633
303.574	0.170472
303.941	0.186106
304.308	0.195561
304.675	0.205074
305.042	0.220575
305.409	0.230291
305.776	0.248381
306.143	0.262325
306.509	0.286152
306.876	0.321204
307.243	0.341601
307.610	0.367595
307.976	0.391409
308.343	0.413451
308.709	0.435694
309.076	0.462245
309.442	0.489380
309.809	0.513509
310.175	0.537488
310.542	0.554229
310.908	0.575469
311.275	0.597826
311.641	0.623548
312.007	0.650621
312.373	0.678447
312.740	0.705479
313.106	0.727800
313.472	0.752993
313.838	0.774929
314.204	0.797743
314.570	0.814003
314.936	0.830909
315.302	0.850039
315.668	0.869634
316.034	0.891492
316.400	0.917107
316.766	0.930445
317.132	0.949666
317.498	0.969060
317.864	0.980389
318.230	0.998448
318.595	1.012918
318.961	1.024245
319.327	1.036712
319.692	1.045573
320.058	1.050966
320.424	1.060283
320.789	1.071223
321.155	1.078477
321.520	1.086330
321.886	1.095159
322.251	1.102918
322.616	1.109933
322.982	1.115076
323.347	1.120517
323.712	1.124602
324.078	1.124985
324.443	1.127970
324.808	1.129299
325.173	1.131901
325.539	1.136163
325.904	1.138179
326.269	1.140373
326.634	1.143155
326.999	1.145179
327.364	1.147702
327.729	1.152641
328.094	1.154379
328.459	1.154603
328.823	1.155947
329.188	1.158850
329.553	1.158187
329.918	1.160064
330.283	1.161830
330.647	1.164017
331.012	1.164057
331.377	1.164861
331.741	1.165775
332.106	1.168528
332.470	1.169758
332.835	1.169655
333.199	1.169572
333.564	1.170269
333.928	1.170680
334.293	1.171562
334.657	1.171052
335.021	1.171522
335.386	1.170843
335.750	1.170255
336.114	1.170506
336.478	1.170571
336.843	1.169509
337.207	1.170147
337.571	1.170580
337.935	1.171152
338.299	1.170111
338.663	1.170043
339.027	1.169796
339.391	1.169993
339.755	1.168885
340.119	1.168427
340.483	1.168538
340.846	1.170092
341.210	1.170126
341.574	1.170277
341.938	1.169823
342.301	1.170793
342.665	1.170717
343.029	1.171417
343.392	1.172308
343.756	1.172646
344.119	1.173231
344.483	1.173954
344.846	1.174371
345.210	1.174380
345.573	1.174174
345.937	1.175275
346.300	1.176102
346.663	1.176707
347.027	1.177746
347.390	1.178884
347.753	1.179535
348.116	1.180078
348.479	1.180125
348.843	1.180745
349.206	1.181076
349.569	1.182179
349.932	1.183166
350.295	1.183972
350.658	1.184288
351.021	1.185369
351.383	1.186702
351.746	1.187283
352.109	1.188245
352.472	1.188696
352.835	1.189593
353.197	1.190676
353.560	1.191486
353.923	1.192010
354.285	1.193156
354.648	1.193646
355.011	1.194073
355.373	1.195323
355.736	1.196530
356.098	1.197199
356.461	1.198636
356.823	1.200094
357.185	1.201016
357.548	1.201545
357.910	1.202428
358.272	1.203086
358.635	1.203177
358.997	1.203567
359.359	1.204888
359.721	1.205575
360.083	1.206659
360.445	1.207682
360.807	1.208531
361.169	1.208748
361.531	1.209879
361.893	1.209966
362.255	1.210641
362.617	1.211906
362.979	1.212892
363.341	1.213121
363.703	1.213772
364.064	1.213928
364.426	1.214337
364.788	1.214601
365.149	1.215341
365.511	1.216056
365.873	1.217012
366.234	1.217798
366.596	1.218710
366.957	1.218965
367.319	1.219652
367.680	1.220263
368.042	1.220349
368.403	1.221010
368.764	1.222202
369.126	1.222329
369.487	1.223320
369.848	1.223620
370.209	1.224053
370.570	1.224289
370.931	1.225215
371.293	1.226151
371.654	1.226862
372.015	1.227695
372.376	1.228694
372.737	1.228835
373.098	1.229637
373.458	1.230059
373.819	1.231224
374.180	1.231875
374.541	1.232486
374.902	1.233040
375.263	1.233840
375.623	1.234431
375.984	1.235467
376.345	1.235817
376.705	1.236857
377.066	1.237655
377.426	1.238323
377.787	1.238771
378.147	1.239097
378.508	1.239301
378.868	1.239772
379.228	1.240345
379.589	1.240185
379.949	1.240755
380.309	1.241560
380.670	1.241949
381.030	1.242238
381.390	1.242236
381.750	1.242180
382.110	1.242438
382.470	1.242824
382.830	1.243269
383.190	1.244447
383.550	1.244352
383.910	1.244710
384.270	1.245241
384.630	1.245496
384.990	1.246153
385.350	1.246581
385.709	1.246995
386.069	1.247596
386.429	1.247507
386.788	1.247984
387.148	1.248544
387.508	1.248600
387.867	1.248518
388.227	1.248525
388.586	1.248723
388.946	1.249155
389.305	1.249495
389.665	1.249830
390.024	1.249960
390.383	1.250184
390.743	1.249320
391.102	1.248981
391.461	1.249020
391.820	1.249104
392.179	1.248761
392.539	1.248784
392.898	1.248582
393.257	1.248401
393.616	1.248571
393.975	1.248202
394.334	1.248200
394.693	1.247898
395.051	1.247840
395.410	1.247821
395.769	1.247866
396.128	1.247800
396.487	1.247108
396.845	1.246583
397.204	1.245864
397.563	1.244930
397.921	1.243902
398.280	1.243447
398.638	1.242380
398.997	1.241499
399.355	1.239984
399.714	1.239196
400.072	1.237918
400.431	1.237004
400.789	1.235814
401.147	1.234671
401.506	1.234152
401.864	1.232756
402.222	1.231499
402.580	1.229877
402.938	1.228831
403.297	1.227125
403.655	1.225788
404.013	1.224543
404.371	1.223334
404.729	1.221791
405.087	1.220437
405.444	1.219121
405.802	1.217356
406.160	1.216147
406.518	1.214867
406.876	1.213760
407.233	1.212179
407.591	1.211143
407.949	1.209958
408.306	1.208622
408.664	1.207221
409.022	1.205570
409.379	1.203756
409.737	1.202393
410.094	1.200755
410.451	1.199195
410.809	1.197815
411.166	1.196048
411.523	1.194541
411.881	1.192901
412.238	1.191591
412.595	1.190052
412.952	1.188400
413.310	1.187133
413.667	1.185893
414.024	1.184400
414.381	1.182721
414.738	1.180847
415.095	1.178498
415.452	1.176334
415.809	1.174438
416.165	1.172452
416.522	1.170228
416.879	1.168274
417.236	1.166189
417.593	1.164202
417.949	1.161847
418.306	1.159776
418.663	1.158142
419.019	1.155935
419.376	1.153773
419.732	1.151723
420.089	1.149963
420.445	1.148221
420.802	1.146309
421.158	1.144147
421.514	1.142117
421.871	1.140181
422.227	1.138540
422.583	1.136843
422.939	1.134704
423.295	1.132770
423.652	1.130608
424.008	1.128552
424.364	1.126518
424.720	1.124585
425.076	1.122541
425.432	1.120253
425.788	1.117755
426.143	1.115076
426.499	1.112963
426.855	1.110837
427.211	1.108565
427.567	1.105999
427.922	1.103566
428.278	1.100689
428.634	1.098618
428.989	1.095982
429.345	1.093583
429.700	1.091227
430.056	1.089048
430.411	1.086936
430.767	1.084524
431.122	1.082190
431.478	1.079894
431.833	1.077478
432.188	1.074548
432.543	1.071956
432.899	1.069213
433.254	1.066469
433.609	1.063698
433.964	1.060760
434.319	1.057715
434.674	1.054609
435.029	1.051759
435.384	1.048991
435.739	1.046423
436.094	1.043509
436.449	1.040950
436.804	1.038222
437.158	1.035278
437.513	1.032424
437.868	1.029379
438.223	1.026600
438.577	1.023525
438.932	1.020833
439.287	1.017893
439.641	1.015127
439.996	1.012313
440.350	1.009469
440.704	1.006964
441.059	1.004330
441.413	1.001459
441.768	0.998596
442.122	0.996045
442.476	0.993241
442.830	0.990429
443.185	0.987811
443.539	0.985148
443.893	0.982272
444.247	0.979392
444.601	0.976745
444.955	0.973714
445.309	0.970865
445.663	0.967847
446.017	0.964916
446.371	0.961560
446.724	0.958519
447.078	0.955600
447.432	0.952632
447.786	0.949679
448.139	0.946401
448.493	0.943339
448.847	0.940285
449.200	0.937273
449.554	0.934057
449.907	0.930962
450.261	0.927663
450.614	0.924571
450.968	0.921431
451.321	0.918545
451.674	0.915629
452.027	0.912517
452.381	0.909495
452.734	0.906539
453.087	0.903569
453.440	0.900422
453.793	0.897648
454.146	0.894560
454.499	0.891620
454.852	0.888484
455.205	0.885550
455.558	0.882766
455.911	0.879836
456.264	0.876928
456.617	0.874156
456.970	0.871515
457.322	0.869007
457.675	0.866654
458.028	0.864181
458.380	0.861799
458.733	0.859254
459.086	0.856754
459.438	0.854266
459.791	0.851760
460.143	0.849181
460.496	0.846637
460.848	0.844197
461.200	0.841683
461.553	0.839202
461.905	0.836704
462.257	0.834228
462.609	0.831813
462.961	0.829567
463.314	0.827300
463.666	0.825015
464.018	0.822669
464.370	0.820612
464.722	0.818296
465.074	0.816005
465.426	0.813808
465.777	0.811785
466.129	0.809703
466.481	0.807645
466.833	0.805627
467.184	0.803652
467.536	0.801486
467.888	0.799335
468.239	0.797196
468.591	0.794709
468.943	0.792340
469.294	0.789734
469.646	0.787214
469.997	0.784705
470.348	0.782079
470.700	0.779713
471.051	0.777466
471.402	0.775333
471.754	0.772929
472.105	0.770832
472.456	0.768870
472.807	0.766904
473.158	0.764764
473.509	0.762958
473.860	0.761081
474.211	0.759302
474.562	0.757590
474.913	0.755890
475.264	0.754079
475.615	0.752294
475.966	0.750636
476.316	0.748783
476.667	0.746995
477.018	0.745312
477.368	0.743506
477.719	0.741840
478.070	0.740182
478.420	0.738382
478.771	0.736565
479.121	0.734927
479.472	0.733232
479.822	0.731465
480.172	0.729807
480.523	0.728073
480.873	0.726013
481.223	0.723715
481.573	0.721258
481.924	0.718812
482.274	0.716461
482.624	0.714381
482.974	0.712646
483.324	0.711310
483.674	0.710107
484.024	0.709031
484.374	0.707972
484.724	0.706962
485.073	0.705844
485.423	0.704701
485.773	0.703655
486.123	0.702592
486.472	0.701424
486.822	0.700322
487.172	0.699258
487.521	0.698119
487.871	0.697042
488.220	0.695944
488.570	0.694808
488.919	0.693472
489.268	0.691916
489.618	0.690241
489.967	0.688280
490.316	0.685878
490.666	0.683200
491.015	0.680745
491.364	0.678434
491.713	0.676180
492.062	0.674198
492.411	0.672378
492.760	0.670545
493.109	0.668734
493.458	0.666969
493.807	0.665326
494.156	0.663536
494.505	0.661661
494.853	0.659818
495.202	0.657966
495.551	0.656177
495.900	0.654392
496.248	0.652673
496.597	0.650939
496.945	0.649190
497.294	0.647522
497.642	0.645897
497.991	0.644176
498.339	0.642385
498.688	0.640739
499.036	0.639186
499.384	0.637554
499.732	0.635915
500.081	0.634305
500.429	0.632665
500.777	0.631094
501.125	0.629432
501.473	0.627891
501.821	0.626340
502.169	0.624923
502.517	0.623452
502.865	0.621969
503.213	0.620456
503.561	0.618954
503.908	0.617515
504.256	0.616033
504.604	0.614519
504.952	0.613041
505.299	0.611596
505.647	0.610172
505.994	0.608664
506.342	0.607118
506.689	0.605565
507.037	0.604054
507.384	0.602560
507.732	0.601170
508.079	0.599676
508.426	0.598307
508.774	0.596884
509.121	0.595638
509.468	0.594270
509.815	0.592927
510.162	0.591573
510.509	0.590245
510.856	0.588951
511.203	0.587666
511.550	0.586371
511.897	0.585039
512.244	0.583792
512.591	0.582387
512.938	0.581075
513.284	0.579722
513.631	0.578468
513.978	0.577152
514.324	0.575918
514.671	0.574694
515.018	0.573370
515.364	0.572055
515.711	0.570792
516.057	0.569534
516.403	0.568178
516.750	0.566847
517.096	0.565602
517.443	0.564403
517.789	0.563244
518.135	0.562007
518.481	0.560760
518.827	0.559587
519.173	0.558394
519.519	0.557111
519.865	0.556016
520.211	0.554844
520.557	0.553640
520.903	0.552415
521.249	0.551258
521.595	0.549936
521.941	0.548559
522.287	0.547210
522.632	0.545917
522.978	0.544542
523.324	0.543216
523.669	0.541918
524.015	0.540537
524.360	0.539174
524.706	0.537835
525.051	0.536521
525.397	0.535160
525.742	0.533834
526.087	0.532535
526.433	0.531303
526.778	0.530091
527.123	0.528837
527.468	0.527509
527.813	0.526403
528.158	0.525159
528.504	0.523814
528.849	0.522455
529.193	0.521269
529.538	0.519883
529.883	0.518436
530.228	0.516957
530.573	0.515564
530.918	0.514122
531.263	0.512877
531.607	0.511594
531.952	0.510240
532.296	0.508832
532.641	0.507622
532.986	0.506257
533.330	0.504851
533.675	0.503480
534.019	0.502048
534.363	0.500589
534.708	0.499191
535.052	0.497716
535.396	0.496316
535.741	0.495049
536.085	0.493706
536.429	0.492181
536.773	0.490772
537.117	0.489330
537.461	0.487815
537.805	0.486190
538.149	0.484566
538.493	0.482809
538.837	0.481048
539.181	0.479343
539.524	0.477647
539.868	0.475860
540.212	0.474127
540.556	0.472468
540.899	0.470827
541.243	0.469174
541.586	0.467476
541.930	0.465800
542.273	0.464091
542.617	0.462260
542.960	0.460393
543.304	0.458459
543.647	0.456604
543.990	0.454702
544.333	0.452809
544.677	0.450958
545.020	0.449171
545.363	0.447285
545.706	0.445530
546.049	0.443735
546.392	0.441952
546.735	0.440103
547.078	0.438162
547.421	0.436285
547.764	0.434272
548.106	0.432181
548.449	0.430021
548.792	0.427971
549.135	0.425887
549.477	0.423762
549.820	0.421826
550.162	0.419829
550.505	0.417865
550.847	0.415790
551.190	0.413652
551.532	0.411416
551.875	0.409115
552.217	0.406710
552.559	0.404477
552.901	0.402144
553.244	0.399914
553.586	0.397703
553.928	0.395602
554.270	0.393596
554.612	0.391555
554.954	0.389533
555.296	0.387353
555.638	0.385225
555.980	0.382940
556.322	0.380523
556.663	0.378057
557.005	0.375506
557.347	0.372992
557.689	0.370478
558.030	0.368096
558.372	0.365748
558.713	0.363418
559.055	0.361109
559.396	0.358798
559.738	0.356362
560.079	0.353942
560.421	0.351538
560.762	0.349154
561.103	0.346765
561.444	0.344454
561.786	0.342188
562.127	0.339931
562.468	0.337756
562.809	0.335418
563.150	0.332957
563.491	0.330524
563.832	0.327958
564.173	0.325312
564.514	0.322616
564.855	0.319883
565.195	0.317011
565.536	0.314157
565.877	0.311369
566.218	0.308625
566.558	0.305908
566.899	0.303385
567.239	0.301031
567.580	0.298824
567.920	0.296851
568.261	0.295068
568.601	0.293376
568.941	0.291734
569.282	0.290194
569.622	0.288658
569.962	0.287151
570.302	0.285676
570.643	0.284273
570.983	0.282984
571.323	0.281718
571.663	0.280522
572.003	0.279321
572.343	0.278112
572.683	0.276783
573.022	0.275422
573.362	0.273974
573.702	0.272524
574.042	0.271101
574.381	0.269730
574.721	0.268404
575.061	0.267119
575.400	0.265929
575.740	0.264750
576.079	0.263559
576.419	0.262273
576.758	0.260916
577.097	0.259509
577.437	0.258041
577.776	0.256509
578.115	0.254982
578.454	0.253550
578.794	0.252273
579.133	0.251196
579.472	0.250215
579.811	0.249323
580.150	0.248408
580.489	0.247489
580.828	0.246489
581.167	0.245442
581.505	0.244357
581.844	0.243291
582.183	0.242193
582.522	0.241108
582.860	0.240040
583.199	0.239060
583.538	0.238149
583.876	0.237284
584.215	0.236432
584.553	0.235600
584.891	0.234788
585.230	0.233969
585.568	0.233103
585.906	0.232146
586.245	0.231108
586.583	0.230111
586.921	0.229192
587.259	0.228384
587.597	0.227634
587.935	0.226866
588.273	0.225998
588.611	0.225044
588.949	0.223979
589.287	0.222886
589.625	0.221764
589.963	0.220716
590.300	0.219706
590.638	0.218795
590.976	0.217886
591.313	0.216985
591.651	0.216074
591.989	0.215155
592.326	0.214261
592.664	0.213479
593.001	0.212721
593.338	0.212034
593.676	0.211402
594.013	0.210786
594.350	0.210184
594.687	0.209583
595.025	0.209073
595.362	0.208542
595.699	0.207966
596.036	0.207402
596.373	0.206878
596.710	0.206326
597.047	0.205746
597.384	0.205140
597.720	0.204503
598.057	0.203881
598.394	0.203228
598.731	0.202586
599.067	0.201973
599.404	0.201323
599.741	0.200656
600.077	0.200050
600.414	0.199480
600.750	0.198979
601.087	0.198535
601.423	0.198065
601.759	0.197600
602.096	0.197067
602.432	0.196600
602.768	0.196111
603.104	0.195636
603.440	0.195132
603.776	0.194661
604.112	0.194189
604.448	0.193747
604.784	0.193324
605.120	0.192932
605.456	0.192568
605.792	0.192198
606.128	0.191794
606.463	0.191456
606.799	0.191065
607.135	0.190648
607.470	0.190270
607.806	0.189874
608.142	0.189425
608.477	0.189008
608.812	0.188616
609.148	0.188282
609.483	0.187902
609.819	0.187571
610.154	0.187186
610.489	0.186770
610.824	0.186345
611.159	0.185983
611.494	0.185592
611.830	0.185258
612.165	0.184985
612.500	0.184719
612.834	0.184442
613.169	0.184211
613.504	0.183909
613.839	0.183628
614.174	0.183316
614.509	0.182969
614.843	0.182598
615.178	0.182328
615.512	0.182078
615.847	0.181777
616.182	0.181522
616.516	0.181284
616.850	0.181058
617.185	0.180841
617.519	0.180620
617.853	0.180402
618.188	0.180083
618.522	0.179771
618.856	0.179398
619.190	0.178985
619.524	0.178592
619.858	0.178220
620.192	0.177841
620.526	0.177559
620.860	0.177321
621.194	0.177106
621.528	0.176855
621.862	0.176636
622.195	0.176369
622.529	0.176030
622.863	0.175765
623.196	0.175426
623.530	0.175167
623.864	0.174878
624.197	0.174593
624.530	0.174346
624.864	0.174114
625.197	0.173933
625.531	0.173714
625.864	0.173478
626.197	0.173205
626.530	0.172981
626.863	0.172735
627.196	0.172458
627.529	0.172144
627.862	0.171836
628.195	0.171447
628.528	0.171115
628.861	0.170707
629.194	0.170399
629.527	0.170130
629.860	0.169823
630.192	0.169527
630.525	0.169151
630.858	0.168782
631.190	0.168454
631.523	0.168085
631.855	0.167575
632.188	0.167078
632.520	0.166722
632.852	0.166358
633.185	0.166020
633.517	0.165632
633.849	0.165304
634.182	0.165084
634.514	0.164831
634.846	0.164549
635.178	0.164422
635.510	0.164282
635.842	0.164106
636.174	0.163920
636.506	0.163710
636.837	0.163489
637.169	0.163234
637.501	0.163110
637.833	0.162953
638.164	0.162760
638.496	0.162487
638.828	0.162290
639.159	0.162044
639.491	0.161768
639.822	0.161453
640.154	0.161003
640.485	0.160548
640.816	0.160122
641.147	0.159690
641.479	0.159153
641.810	0.158687
642.141	0.158227
642.472	0.157709
642.803	0.157230
643.134	0.156644
643.465	0.156251
643.796	0.155871
644.127	0.155539
644.458	0.155160
644.789	0.154841
645.119	0.154627
645.450	0.154634
645.781	0.154687
646.111	0.154820
646.442	0.154896
646.773	0.154911
647.103	0.155072
647.433	0.155138
647.764	0.155098
648.094	0.154978
648.425	0.155020
648.755	0.155043
649.085	0.154970
649.415	0.154986
649.745	0.155098
650.075	0.155220
650.405	0.155210
650.735	0.153873
651.065	0.145796
651.395	0.137814
651.725	0.124329
652.055	0.084908
652.385	0.062999
652.715	0.049037
653.044	0.039362
653.374	0.032286
653.704	0.026910
654.033	0.037958
654.363	0.044852
654.692	0.048917
655.022	0.051336
655.351	0.052828
655.680	0.053719
656.010	0.054199
656.339	0.054409
656.668	0.054458
656.997	0.054417
657.326	0.054322
657.655	0.054184
657.984	0.053344
658.313	0.049539
658.642	0.044617
658.971	0.051476
659.300	0.060275
659.629	0.071980
659.958	0.088309
660.286	0.112715
660.615	0.153231
660.944	0.153857
661.272	0.152309
661.601	0.151022
661.929	0.150261
662.258	0.149734
662.586	0.149216
662.915	0.148731
663.243	0.148216
663.571	0.147655
663.899	0.147240
664.228	0.146802
664.556	0.146458
664.884	0.146105
665.212	0.145823
665.540	0.145633
665.868	0.145518
666.196	0.145427
666.524	0.145341
666.852	0.145219
667.179	0.145042
667.507	0.144840
667.835	0.144830
668.162	0.144724
668.490	0.144616
668.818	0.144673
669.145	0.144685
669.473	0.144801
669.800	0.144966
670.127	0.145115
670.455	0.145213
670.782	0.145304
671.109	0.145364
671.436	0.145484
671.764	0.145537
672.091	0.145605
672.418	0.145673
672.745	0.145608
673.072	0.145646
673.399	0.145569
673.726	0.145560
674.053	0.145476
674.379	0.145387
674.706	0.145269
675.033	0.145127
675.359	0.145050
675.686	0.144808
676.013	0.144595
676.339	0.144295
676.666	0.144033
676.992	0.143859
677.318	0.143713
677.645	0.143550
677.971	0.143505
678.297	0.143348
678.624	0.143317
678.950	0.143185
679.276	0.143060
679.602	0.142870
679.928	0.142563
680.254	0.142361
680.580	0.142162
680.906	0.142037
681.232	0.142021
681.558	0.142098
681.883	0.142193
682.209	0.142254
682.535	0.142346
682.860	0.142447
683.186	0.142564
683.511	0.142471
683.837	0.142327
684.162	0.142316
684.488	0.142235
684.813	0.142135
685.138	0.142003
685.464	0.141809
685.789	0.141675
686.114	0.141564
686.439	0.141554
686.764	0.141505
687.089	0.141443
687.414	0.141405
687.739	0.141436
688.064	0.141425
688.389	0.141267
688.714	0.141125
689.039	0.140932
689.363	0.140759
689.688	0.140554
690.013	0.140303
690.337	0.140219
690.662	0.140207
690.986	0.140094
691.311	0.140055
691.635	0.139964
691.959	0.139892
692.284	0.139774
692.608	0.139528
692.932	0.139382
693.256	0.139251
693.580	0.139268
693.904	0.139272
694.228	0.139260
694.552	0.139228
694.876	0.139181
695.200	0.139156
695.524	0.139044
695.848	0.138959
696.172	0.138795
696.495	0.138548
696.819	0.138455
697.143	0.138183
697.466	0.137897
697.790	0.137531
698.113	0.137172
698.437	0.136831
698.760	0.136608
699.083	0.136520
699.407	0.136492
699.730	0.136416
700.053	0.136336
700.376	0.136165
700.699	0.135870
701.022	0.135555
701.345	0.135160
701.668	0.134616
701.991	0.134020
702.314	0.133323
702.637	0.132662
702.960	0.132006
703.283	0.131557
703.605	0.130983
703.928	0.130714
704.251	0.130585
704.573	0.130533
704.896	0.130483
705.218	0.130417
705.540	0.130270
705.863	0.130006
706.185	0.129744
706.507	0.129282
706.830	0.128807
707.152	0.128269
707.474	0.127846
707.796	0.127413
708.118	0.127025
708.440	0.126789
708.762	0.126593
709.084	0.126470
709.406	0.126361
709.728	0.126278
710.049	0.126105
710.371	0.125984
710.693	0.125745
711.014	0.125344
711.336	0.125050
711.658	0.124780
711.979	0.124539
712.301	0.124336
712.622	0.124246
712.943	0.124057
713.265	0.124009
713.586	0.123962
713.907	0.123988
714.228	0.123981
714.549	0.123982
714.870	0.123930
715.191	0.123908
715.512	0.123877
715.833	0.123904
716.154	0.123785
716.475	0.123657
716.796	0.123525
717.117	0.123229
717.437	0.122981
717.758	0.122723
718.078	0.122378
718.399	0.122090
718.719	0.121690
719.040	0.121340
719.360	0.121024
719.681	0.120825
720.001	0.120600
720.321	0.120417
720.642	0.120152
720.962	0.119877
721.282	0.119745
721.602	0.119634
721.922	0.119396
722.242	0.119208
722.562	0.118996
722.882	0.118844
723.202	0.118790
723.521	0.118649
723.841	0.118794
724.161	0.118771
724.481	0.118768
724.800	0.118749
725.120	0.118650
725.439	0.118625
725.759	0.118540
726.078	0.118496
726.398	0.118406
726.717	0.118382
727.036	0.118317
727.355	0.118435
727.675	0.118588
727.994	0.118741
728.313	0.118866
728.632	0.119011
728.951	0.119054
729.270	0.119011
729.589	0.118929
729.908	0.118726
730.226	0.118503
730.545	0.118265
730.864	0.118042
731.182	0.117763
731.501	0.117597
731.820	0.117436
732.138	0.117401
732.457	0.117272
732.775	0.117119
733.093	0.117040
733.412	0.116969
733.730	0.116885
734.048	0.116706
734.367	0.116468
734.685	0.116163
735.003	0.115804
735.321	0.115507
735.639	0.115160
735.957	0.114937
736.275	0.114722
736.593	0.114662
736.910	0.114584
737.228	0.114493
737.546	0.114399
737.863	0.114407
738.181	0.114228
738.499	0.114071
738.816	0.113819
739.134	0.113594
739.451	0.113365
739.768	0.113140
740.086	0.112840
740.403	0.112504
740.720	0.112198
741.038	0.111938
741.355	0.111608
741.672	0.111297
741.989	0.110879
742.306	0.110580
742.623	0.110140
742.940	0.109743
743.257	0.109064
743.573	0.108567
743.890	0.107911
744.207	0.107396
744.523	0.106846
744.840	0.106376
745.157	0.105958
745.473	0.105432
745.790	0.105167
746.106	0.104869
746.422	0.104604
746.739	0.104281
747.055	0.104072
747.371	0.103802
747.687	0.103704
748.004	0.103685
748.320	0.103707
748.636	0.103724
748.952	0.103676
749.268	0.103738
749.584	0.103746
749.899	0.103827
750.215	0.103809
750.531	0.103815
750.847	0.103814
751.162	0.103807
751.478	0.103847
751.793	0.103743
752.109	0.103681
752.424	0.103551
752.740	0.103431
753.055	0.103383
753.370	0.103318
753.686	0.103397
754.001	0.103668
754.316	0.103918
754.631	0.104048
754.946	0.104132
755.261	0.104226
755.576	0.104282
755.891	0.104234
756.206	0.104147
756.521	0.104012
756.836	0.103940
757.150	0.103926
757.465	0.103867
757.780	0.103859
758.094	0.103885
758.409	0.103991
758.723	0.104059
759.038	0.104109
759.352	0.104120
759.667	0.104044
759.981	0.103983
760.295	0.103729
760.609	0.103387
760.923	0.103050
761.238	0.102729
761.552	0.102411
761.866	0.102158
762.180	0.102030
762.493	0.101901
762.807	0.101844
763.121	0.101763
763.435	0.101645
763.749	0.101405
764.062	0.101216
764.376	0.100917
764.689	0.100570
765.003	0.100179
765.316	0.099986
765.630	0.099824
765.943	0.099617
766.257	0.099484
766.570	0.099292
766.883	0.099133
767.196	0.098935
767.509	0.098580
767.822	0.098263
768.135	0.098010
768.448	0.097683
768.761	0.097263
769.074	0.096953
769.387	0.096558
769.700	0.096235
770.013	0.095962
770.325	0.095720
770.638	0.095539
770.950	0.095365
771.263	0.095193
771.575	0.094979
771.888	0.094597
772.200	0.094237
772.513	0.093888
772.825	0.093467
773.137	0.093111
773.449	0.092785
773.761	0.092331
774.074	0.091990
774.386	0.091647
774.698	0.091235
775.010	0.090793
775.321	0.090403
775.633	0.089996
775.945	0.089796
776.257	0.089637
776.568	0.089411
776.880	0.089267
777.192	0.089039
777.503	0.088854
777.815	0.088744
778.126	0.088768
778.438	0.088772
778.749	0.088827
779.060	0.088939
779.372	0.088959
779.683	0.089073
779.994	0.089101
780.305	0.089233
780.616	0.089379
780.927	0.089418
781.238	0.089417
781.549	0.089474
781.860	0.089471
782.171	0.089513
782.481	0.089423
782.792	0.089300
783.103	0.089236
783.413	0.089197
783.724	0.089011
784.034	0.088932
784.345	0.088776
784.655	0.088601
784.966	0.088450
785.276	0.088281
785.586	0.088078
785.896	0.087921
786.207	0.087727
786.517	0.087703
786.827	0.087617
787.137	0.087383
787.447	0.087315
787.757	0.087317
788.066	0.087226
788.376	0.087231
788.686	0.087124
788.996	0.087134
789.305	0.087091
789.615	0.087047
789.925	0.086859
790.234	0.086841
790.544	0.086806
790.853	0.086774
791.162	0.086820
791.472	0.086885
791.781	0.086857
792.090	0.086821
792.399	0.086832
792.708	0.086756
793.017	0.086540
793.326	0.086318
793.635	0.086230
793.944	0.085959
794.253	0.085634
794.562	0.085439
794.871	0.085244
795.179	0.084984
795.488	0.084706
795.797	0.084602
796.105	0.084414
796.414	0.084423
796.722	0.084309
797.031	0.084171
797.339	0.083869
797.647	0.083516
797.956	0.082971
798.264	0.082391
798.572	0.081967
798.880	0.081464
799.188	0.081077
799.496	0.080771
799.804	0.080594
800.112	0.080204
800.420	0.080145
800.728	0.080043
801.035	0.079782
801.343	0.079435
801.651	0.079104
801.958	0.078980
802.266	0.078830
802.573	0.078834
802.881	0.078787
803.188	0.078734
803.496	0.078830
803.803	0.079036
804.110	0.079073
804.417	0.079101
804.724	0.079159
805.032	0.079049
805.339	0.079001
805.646	0.078842
805.953	0.078618
806.259	0.078509
806.566	0.078483
806.873	0.078309
807.180	0.078218
807.486	0.078297
807.793	0.078333
808.100	0.078486
808.406	0.078344
808.713	0.078265
809.019	0.077831
809.326	0.077452
809.632	0.077154
809.938	0.076427
810.244	0.075927
810.551	0.075393
810.857	0.074946
811.163	0.074726
811.469	0.074374
811.775	0.074187
812.081	0.074024
812.387	0.074066
812.692	0.073997
812.998	0.074009
813.304	0.073936
813.610	0.074007
813.915	0.073790
814.221	0.073710
814.526	0.073671
814.832	0.073733
815.137	0.073605
815.443	0.073618
815.748	0.073640
816.053	0.073513
816.358	0.073457
816.664	0.073270
816.969	0.072989
817.274	0.073118
817.579	0.072899
817.884	0.072798
818.189	0.072574
818.493	0.072474
818.798	0.072362
819.103	0.072007
819.408	0.071778
819.712	0.071629
820.017	0.071433
820.321	0.071235
820.626	0.071164
820.930	0.070825
821.235	0.070584
821.539	0.070257
821.843	0.070340
822.148	0.070183
822.452	0.070336
822.756	0.070538
823.060	0.070496
823.364	0.070869
823.668	0.070768
823.972	0.070835
824.276	0.071153
824.580	0.071232
824.883	0.071440
825.187	0.071485
825.491	0.071673
825.795	0.071567
826.098	0.071584
826.402	0.071432
826.705	0.071544
827.008	0.071315
827.312	0.070965
827.615	0.070668
827.918	0.070662
828.222	0.070319
828.525	0.070070
828.828	0.069909
829.131	0.069910
829.434	0.069684
829.737	0.068993
830.040	0.068422
830.343	0.067785
830.645	0.067241
830.948	0.066954
831.251	0.066228
831.553	0.065831
831.856	0.065440
832.159	0.065468
832.461	0.065558
832.764	0.065472
833.066	0.065053
833.368	0.064708
833.671	0.064696
833.973	0.064853
834.275	0.064683
834.577	0.064574
834.879	0.064355
835.181	0.063864
835.483	0.063336
835.785	0.063030
836.087	0.062895
836.389	0.062914
836.690	0.062524
836.992	0.061581
837.294	0.060638
837.595	0.059903
837.897	0.058958
838.198	0.058109
838.500	0.057461
838.801	0.056409
839.103	0.055579
839.404	0.055174
839.705	0.054895
840.006	0.054678
840.307	0.054312
840.608	0.053922
840.910	0.053887
841.210	0.054166
841.511	0.054080
841.812	0.053812
842.113	0.054232
842.414	0.053930
842.715	0.053674
843.015	0.052815
843.316	0.052863
843.616	0.052472
843.917	0.052271
844.217	0.052459
844.518	0.052293
844.818	0.051626
845.118	0.051580
845.419	0.051564
845.719	0.051274
846.019	0.051013
846.319	0.051405
846.619	0.050708
846.919	0.050810
847.219	0.050937
847.519	0.050662
847.819	0.051103
848.118	0.050346
848.418	0.049930
848.718	0.049686
849.017	0.049339
849.317	0.049660
849.616	0.049991
849.916	0.050544
850.215	0.051171
850.515	0.051306
850.814	0.051788
851.113	0.052287
851.412	0.052675
851.712	0.053187
852.011	0.053230
852.310	0.053574
852.609	0.053389
852.908	0.053684
853.206	0.053840
853.505	0.054069
853.804	0.054037
854.103	0.054043
854.401	0.054267
854.700	0.054441
854.999	0.054497
855.297	0.054633
855.595	0.054779
855.894	0.054700
856.192	0.054800
856.491	0.054642
856.789	0.054661
857.087	0.054239
857.385	0.053552
857.683	0.053002
857.981	0.052310
858.279	0.052198
858.577	0.051604
858.875	0.051220
859.173	0.050491
859.471	0.050415
859.768	0.049876
860.066	0.049268
860.363	0.048712
860.661	0.048420
860.959	0.048091
861.256	0.047864
861.553	0.047441
861.851	0.046969
862.148	0.046527
862.445	0.045914
862.742	0.045631
863.039	0.045068
863.337	0.045222
863.634	0.045274
863.931	0.044620
864.227	0.044458
864.524	0.044055
864.821	0.044476
865.118	0.044058
865.415	0.044149
865.711	0.043297
866.008	0.042677
866.304	0.042930
866.601	0.042681
866.897	0.042311
867.194	0.041470
867.490	0.041055
867.786	0.040315
868.082	0.040640
868.379	0.039960
868.675	0.039096
868.971	0.038695
869.267	0.038374
869.563	0.038592
869.859	0.038978
870.154	0.038531
870.450	0.038386
870.746	0.038207
871.042	0.037577
871.337	0.037783
871.633	0.037460
871.928	0.037334
872.224	0.036641
872.519	0.035913
872.815	0.036156
873.110	0.036149
873.405	0.036112
873.700	0.036465
873.995	0.036815
874.291	0.036547
874.586	0.037886
874.881	0.038174
875.175	0.038539
875.470	0.039106
875.765	0.038688
876.060	0.038349
876.355	0.039435
876.649	0.039374
876.944	0.039226
877.238	0.039040
877.533	0.039414
877.827	0.040306
878.122	0.040570
878.416	0.041274
878.710	0.042176
879.005	0.041857
879.299	0.041786
879.593	0.041744
879.887	0.041517
880.181	0.041461
880.475	0.041800
880.769	0.041336
881.063	0.041510
881.356	0.041754
881.650	0.041647
881.944	0.041612
882.238	0.032643
882.531	0.037702
882.825	0.033624
883.118	0.032426
883.412	0.044297
883.705	0.042218
883.998	0.038734
884.291	0.048686
884.585	0.043755
884.878	0.038306
>>>>>>>>>> END of Data <<<<<<<<<<
>>>>>>>>>> Raw Data Start <<<<<<<<
190.664	-389
191.040	9
191.415	9
191.791	8
192.166	4
192.542	5
192.917	6
193.293	8
193.668	9
194.044	7
194.419	-9
194.794	10
195.170	10
195.545	11
195.920	11
196.296	12
196.671	12
197.046	13
197.421	14
197.796	14
198.171	14
198.546	14
198.922	15
199.297	15
199.672	15
200.047	16
200.422	16
200.796	15
201.171	16
201.546	16
201.921	15
202.296	16
202.671	16
203.045	16
203.420	16
203.795	16
204.170	16
204.544	16
204.919	16
205.294	16
205.668	16
206.043	15
206.417	15
206.792	15
207.166	15
207.541	15
207.915	15
208.289	14
208.664	15
209.038	15
209.412	15
209.787	15
210.161	14
210.535	15
210.909	15
211.284	14
211.658	14
212.032	14
212.406	14
212.780	14
213.154	14
213.528	14
213.902	14
214.276	14
214.650	14
215.024	15
215.398	15
215.772	15
216.145	15
216.519	15
216.893	15
217.267	15
217.640	15
218.014	15
218.388	16
218.761	16
219.135	16
219.508	16
219.882	16
220.256	16
220.629	16
221.003	16
221.376	16
221.749	16
222.123	16
222.496	16
222.869	16
223.243	16
223.616	16
223.989	16
224.362	16
224.736	16
225.109	17
225.482	17
225.855	17
226.228	16
226.601	16
226.974	16
227.347	16
227.720	16
228.093	16
228.466	16
228.839	16
229.212	16
229.585	16
229.957	16
230.330	16
230.703	16
231.076	17
231.448	17
231.821	16
232.194	16
232.566	16
232.939	16
233.311	16
233.684	16
234.056	16
234.429	16
234.801	16
235.174	16
235.546	16
235.918	17
236.291	17
236.663	17
237.035	17
237.408	17
237.780	17
238.152	17
238.524	17
238.896	17
239.268	17
239.641	17
240.013	17
240.385	17
240.757	17
241.129	17
241.500	17
241.872	17
242.244	17
242.616	18
242.988	18
243.360	18
243.731	18
244.103	18
244.475	18
244.847	18
245.218	18
245.590	18
245.961	18
246.333	18
246.705	18
247.076	18
247.448	18
247.819	18
248.190	18
248.562	19
248.933	19
249.305	19
249.676	19
250.047	19
250.418	19
250.790	19
251.161	19
251.532	19
251.903	19
252.274	18
252.645	18
253.016	18
253.387	18
253.758	18
254.129	18
254.500	18
254.871	19
255.242	19
255.613	19
255.984	19
256.355	18
256.725	18
257.096	18
257.467	18
257.838	18
258.208	18
258.579	18
258.949	18
259.320	18
259.690	18
260.061	18
260.431	18
260.802	18
261.172	18
261.543	18
261.913	19
262.283	19
262.654	19
263.024	18
263.394	18
263.764	18
264.135	18
264.505	18
264.875	18
265.245	18
265.615	18
265.985	18
266.355	18
266.725	18
267.095	18
267.465	18
267.835	18
268.205	18
268.575	18
268.944	18
269.314	18
269.684	18
270.054	18
270.423	17
270.793	17
271.163	17
271.532	17
271.902	17
272.271	17
272.641	17
273.010	17
273.380	18
273.749	18
274.119	18
274.488	18
274.857	18
275.227	18
275.596	19
275.965	19
276.335	19
276.704	19
277.073	19
277.442	19
277.811	19
278.180	19
278.549	19
278.918	20
279.287	20
279.656	20
280.025	20
280.394	21
280.763	21
281.132	21
281.501	21
281.869	20
282.238	20
282.607	20
282.976	20
283.344	19
283.713	19
284.081	19
284.450	19
284.819	19
285.187	19
285.556	19
285.924	19
286.292	19
286.661	19
287.029	19
287.398	19
287.766	19
288.134	19
288.502	19
288.871	19
289.239	19
289.607	19
289.975	19
290.343	20
290.711	19
291.079	20
291.447	19
291.815	19
292.183	20
292.551	19
292.919	19
293.287	20
293.655	20
294.022	19
294.390	19
294.758	19
295.126	19
295.493	19
295.861	19
296.229	19
296.596	19
296.964	18
297.331	19
297.699	19
298.066	19
298.434	19
298.801	19
299.168	19
299.536	19
299.903	19
300.270	19
300.638	19
301.005	19
301.372	19
301.739	19
302.106	19
302.473	20
302.840	20
303.207	19
303.574	20
303.941	20
304.308	20
304.675	20
305.042	20
305.409	20
305.776	20
306.143	21
306.509	21
306.876	20
307.243	21
307.610	21
307.976	21
308.343	21
308.709	21
309.076	21
309.442	22
309.809	22
310.175	22
310.542	23
310.908	23
311.275	24
311.641	24
312.007	24
312.373	24
312.740	25
313.106	25
313.472	25
313.838	26
314.204	26
314.570	27
314.936	28
315.302	28
315.668	29
316.034	29
316.400	29
316.766	30
317.132	31
317.498	31
317.864	32
318.230	32
318.595	33
318.961	34
319.327	34
319.692	35
320.058	37
320.424	38
320.789	39
321.155	40
321.520	42
321.886	43
322.251	44
322.616	46
322.982	47
323.347	49
323.712	51
324.078	54
324.443	56
324.808	58
325.173	60
325.539	62
325.904	65
326.269	67
326.634	69
326.999	72
327.364	74
327.729	76
328.094	78
328.459	81
328.823	83
329.188	85
329.553	88
329.918	90
330.283	92
330.647	94
331.012	97
331.377	99
331.741	101
332.106	103
332.470	106
332.835	108
333.199	111
333.564	114
333.928	116
334.293	119
334.657	121
335.021	124
335.386	127
335.750	130
336.114	133
336.478	136
336.843	139
337.207	141
337.571	144
337.935	147
338.299	150
338.663	153
339.027	156
339.391	158
339.755	162
340.119	165
340.483	167
340.846	169
341.210	172
341.574	175
341.938	178
342.301	180
342.665	183
343.029	185
343.392	187
343.756	190
344.119	192
344.483	195
344.846	197
345.210	199
345.573	202
345.937	204
346.300	206
346.663	208
347.027	210
347.390	211
347.753	213
348.116	215
348.479	218
348.843	220
349.206	221
349.569	223
349.932	225
350.295	226
350.658	228
351.021	229
351.383	230
351.746	232
352.109	233
352.472	235
352.835	236
353.197	237
353.560	238
353.923	240
354.285	241
354.648	242
355.011	244
355.373	244
355.736	245
356.098	247
356.461	247
356.823	248
357.185	249
357.548	250
357.910	251
358.272	252
358.635	253
358.997	255
359.359	255
359.721	256
360.083	257
360.445	258
360.807	259
361.169	260
361.531	260
361.893	262
362.255	263
362.617	263
362.979	264
363.341	265
363.703	266
364.064	268
364.426	269
364.788	270
365.149	271
365.511	272
365.873	272
366.234	273
366.596	273
366.957	274
367.319	275
367.680	275
368.042	276
368.403	276
368.764	276
369.126	277
369.487	277
369.848	277
370.209	277
370.570	278
370.931	277
371.293	277
371.654	277
372.015	277
372.376	277
372.737	277
373.098	277
373.458	278
373.819	278
374.180	278
374.541	279
374.902	279
375.263	280
375.623	281
375.984	282
376.345	283
376.705	284
377.066	284
377.426	285
377.787	286
378.147	286
378.508	287
378.868	288
379.228	289
379.589	290
379.949	290
380.309	291
380.670	291
381.030	292
381.390	293
381.750	293
382.110	294
382.470	294
382.830	294
383.190	294
383.550	295
383.910	295
384.270	296
384.630	297
384.990	298
385.350	299
385.709	299
386.069	300
386.429	301
386.788	301
387.148	302
387.508	302
387.867	303
388.227	304
388.586	306
388.946	307
389.305	309
389.665	311
390.024	313
390.383	314
390.743	317
391.102	318
391.461	319
391.820	320
392.179	321
392.539	321
392.898	322
393.257	323
393.616	324
393.975	326
394.334	328
394.693	331
395.051	334
395.410	336
395.769	338
396.128	339
396.487	341
396.845	342
397.204	343
397.563	343
397.921	344
398.280	344
398.638	345
398.997	346
399.355	348
399.714	349
400.072	350
400.431	352
400.789	353
401.147	355
401.506	356
401.864	357
402.222	358
402.580	358
402.938	358
403.297	359
403.655	359
404.013	359
404.371	359
404.729	360
405.087	361
405.444	362
405.802	364
406.160	365
406.518	366
406.876	367
407.233	369
407.591	370
407.949	370
408.306	371
408.664	372
409.022	374
409.379	375
409.737	376
410.094	378
410.451	379
410.809	381
411.166	383
411.523	385
411.881	387
412.238	389
412.595	391
412.952	392
413.310	393
413.667	394
414.024	396
414.381	397
414.738	399
415.095	401
415.452	404
415.809	406
416.165	408
416.522	410
416.879	413
417.236	416
417.593	420
417.949	424
418.306	429
418.663	434
419.019	440
419.376	446
419.732	452
420.089	457
420.445	462
420.802	467
421.158	472
421.514	476
421.871	480
422.227	483
422.583	487
422.939	490
423.295	493
423.652	496
424.008	500
424.364	502
424.720	504
425.076	506
425.432	508
425.788	510
426.143	513
426.499	516
426.855	519
427.211	523
427.567	527
427.922	530
428.278	533
428.634	535
428.989	538
429.345	540
429.700	544
430.056	547
430.411	551
430.767	556
431.122	560
431.478	564
431.833	568
432.188	572
432.543	575
432.899	578
433.254	581
433.609	582
433.964	583
434.319	585
434.674	587
435.029	589
435.384	592
435.739	595
436.094	600
436.449	605
436.804	612
437.158	619
437.513	626
437.868	634
438.223	643
438.577	652
438.932	662
439.287	672
439.641	682
439.996	692
440.350	702
440.704	712
441.059	721
441.413	732
441.768	742
442.122	751
442.476	760
442.830	770
443.185	779
443.539	788
443.893	797
444.247	804
444.601	811
444.955	817
445.309	820
445.663	824
446.017	827
446.371	830
446.724	832
447.078	834
447.432	835
447.786	836
448.139	837
448.493	838
448.847	837
449.200	837
449.554	837
449.907	837
450.261	837
450.614	836
450.968	837
451.321	836
451.674	836
452.027	836
452.381	837
452.734	838
453.087	839
453.440	841
453.793	843
454.146	847
454.499	853
454.852	859
455.205	867
455.558	874
455.911	882
456.264	890
456.617	898
456.970	905
457.322	911
457.675	917
458.028	922
458.380	927
458.733	931
459.086	936
459.438	942
459.791	948
460.143	956
460.496	965
460.848	975
461.200	987
461.553	998
461.905	1010
462.257	1019
462.609	1028
462.961	1036
463.314	1043
463.666	1050
464.018	1055
464.370	1060
464.722	1067
465.074	1074
465.426	1079
465.777	1085
466.129	1089
466.481	1092
466.833	1094
467.184	1095
467.536	1095
467.888	1092
468.239	1090
468.591	1088
468.943	1086
469.294	1085
469.646	1087
469.997	1090
470.348	1095
470.700	1102
471.051	1112
471.402	1123
471.754	1138
472.105	1152
472.456	1167
472.807	1185
473.158	1205
473.509	1226
473.860	1250
474.211	1273
474.562	1298
474.913	1323
475.264	1350
475.615	1377
475.966	1404
476.316	1430
476.667	1456
477.018	1482
477.368	1510
477.719	1537
478.070	1563
478.420	1588
478.771	1613
479.121	1637
479.472	1661
479.822	1686
480.172	1713
480.523	1744
480.873	1788
481.223	1862
481.573	1972
481.924	2110
482.274	2266
482.624	2430
482.974	2594
483.324	2737
483.674	2845
484.024	2918
484.374	2967
484.724	2997
485.073	3019
485.423	3038
485.773	3054
486.123	3070
486.472	3086
486.822	3101
487.172	3113
487.521	3122
487.871	3126
488.220	3116
488.570	3075
488.919	2998
489.268	2893
489.618	2768
489.967	2635
490.316	2502
490.666	2386
491.015	2303
491.364	2253
491.713	2227
492.062	2219
492.411	2219
492.760	2225
493.109	2232
493.458	2239
493.807	2244
494.156	2249
494.505	2254
494.853	2260
495.202	2267
495.551	2278
495.900	2289
496.248	2300
496.597	2312
496.945	2323
497.294	2334
497.642	2345
497.991	2359
498.339	2376
498.688	2394
499.036	2410
499.384	2426
499.732	2440
500.081	2450
500.429	2459
500.777	2468
501.125	2476
501.473	2484
501.821	2493
502.169	2501
502.517	2507
502.865	2511
503.213	2513
503.561	2514
503.908	2514
504.256	2512
504.604	2510
504.952	2507
505.299	2502
505.647	2495
505.994	2486
506.342	2478
506.689	2469
507.037	2460
507.384	2455
507.732	2450
508.079	2446
508.426	2442
508.774	2439
509.121	2433
509.468	2428
509.815	2422
510.162	2417
510.509	2411
510.856	2405
511.203	2398
511.550	2391
511.897	2386
512.244	2379
512.591	2374
512.938	2368
513.284	2363
513.631	2356
513.978	2349
514.324	2341
514.671	2332
515.018	2323
515.364	2316
515.711	2309
516.057	2301
516.403	2295
516.750	2288
517.096	2279
517.443	2269
517.789	2259
518.135	2249
518.481	2242
518.827	2234
519.173	2225
519.519	2217
519.865	2209
520.211	2203
520.557	2196
520.903	2191
521.249	2186
521.595	2182
521.941	2177
522.287	2174
522.632	2169
522.978	2165
523.324	2162
523.669	2160
524.015	2160
524.360	2163
524.706	2169
525.051	2177
525.397	2187
525.742	2198
526.087	2209
526.433	2220
526.778	2229
527.123	2235
527.468	2242
527.813	2246
528.158	2251
528.504	2258
528.849	2269
529.193	2282
529.538	2299
529.883	2320
530.228	2345
530.573	2372
530.918	2401
531.263	2429
531.607	2454
531.952	2477
532.296	2497
532.641	2512
532.986	2523
533.330	2535
533.675	2546
534.019	2562
534.363	2583
534.708	2608
535.052	2637
535.396	2668
535.741	2697
536.085	2722
536.429	2746
536.773	2765
537.117	2779
537.461	2792
537.805	2803
538.149	2814
538.493	2828
538.837	2843
539.181	2861
539.524	2884
539.868	2911
540.212	2942
540.556	2974
540.899	3007
541.243	3037
541.586	3062
541.930	3081
542.273	3094
542.617	3104
542.960	3114
543.304	3129
543.647	3148
543.990	3174
544.333	3203
544.677	3234
545.020	3262
545.363	3286
545.706	3303
546.049	3314
546.392	3319
546.735	3319
547.078	3316
547.421	3314
547.764	3314
548.106	3315
548.449	3320
548.792	3331
549.135	3349
549.477	3371
549.820	3393
550.162	3411
550.505	3424
550.847	3432
551.190	3436
551.532	3437
551.875	3438
552.217	3442
552.559	3448
552.901	3460
553.244	3475
553.586	3493
553.928	3512
554.270	3528
554.612	3541
554.954	3549
555.296	3556
555.638	3562
555.980	3569
556.322	3579
556.663	3595
557.005	3619
557.347	3652
557.689	3688
558.030	3723
558.372	3755
558.713	3783
559.055	3809
559.396	3834
559.738	3861
560.079	3891
560.421	3927
560.762	3969
561.103	4015
561.444	4068
561.786	4122
562.127	4180
562.468	4243
562.809	4313
563.150	4392
563.491	4476
563.832	4570
564.173	4678
564.514	4803
564.855	4953
565.195	5139
565.536	5363
565.877	5624
566.218	5922
566.558	6260
566.899	6629
567.239	7028
567.580	7446
567.920	7876
568.261	8308
568.601	8750
568.941	9208
569.282	9678
569.622	10165
569.962	10672
570.302	11211
570.643	11768
570.983	12327
571.323	12866
571.663	13383
572.003	13873
572.343	14330
572.683	14756
573.022	15187
573.362	15641
573.702	16109
574.042	16575
574.381	17021
574.721	17442
575.061	17845
575.400	18208
575.740	18528
576.079	18810
576.419	19089
576.758	19408
577.097	19788
577.437	20203
577.776	20648
578.115	21115
578.454	21588
578.794	22020
579.133	22348
579.472	22568
579.811	22685
580.150	22709
580.489	22658
580.828	22574
581.167	22494
581.505	22434
581.844	22382
582.183	22332
582.522	22298
582.860	22279
583.199	22258
583.538	22207
583.876	22086
584.215	21873
584.553	21557
584.891	21146
585.230	20646
585.568	20096
585.906	19540
586.245	19041
586.583	18611
586.921	18255
587.259	17931
587.597	17606
587.935	17269
588.273	16924
588.611	16601
588.949	16314
589.287	16072
589.625	15879
589.963	15724
590.300	15599
590.638	15483
590.976	15356
591.313	15208
591.651	15066
591.989	14943
592.326	14842
592.664	14754
593.001	14681
593.338	14633
593.676	14605
594.013	14605
594.350	14650
594.687	14735
595.025	14830
595.362	14915
595.699	14973
596.036	15006
596.373	15004
596.710	14964
597.047	14898
597.384	14821
597.720	14737
598.057	14667
598.394	14615
598.731	14582
599.067	14572
599.404	14590
599.741	14642
600.077	14719
600.414	14806
600.750	14897
601.087	14965
601.423	14994
601.759	14989
602.096	14957
602.432	14907
602.768	14834
603.104	14735
603.440	14615
603.776	14488
604.112	14350
604.448	14212
604.784	14065
605.120	13909
605.456	13757
605.792	13599
606.128	13435
606.463	13264
606.799	13094
607.135	12939
607.470	12784
607.806	12631
608.142	12484
608.477	12342
608.812	12204
609.148	12065
609.483	11920
609.819	11771
610.154	11629
610.489	11499
610.824	11385
611.159	11287
611.494	11190
611.830	11103
612.165	11018
612.500	10924
612.834	10815
613.169	10691
613.504	10556
613.839	10406
614.174	10237
614.509	10067
614.843	9899
615.178	9737
615.512	9577
615.847	9422
616.182	9267
616.516	9111
616.850	8946
617.185	8774
617.519	8600
617.853	8413
618.188	8220
618.522	8043
618.856	7893
619.190	7762
619.524	7647
619.858	7555
620.192	7483
620.526	7418
620.860	7353
621.194	7291
621.528	7230
621.862	7169
622.195	7096
622.529	7020
622.863	6939
623.196	6860
623.530	6779
623.864	6698
624.197	6617
624.530	6538
624.864	6466
625.197	6391
625.531	6307
625.864	6206
626.197	6099
626.530	5983
626.863	5851
627.196	5709
627.529	5566
627.862	5425
628.195	5286
628.528	5147
628.861	5016
629.194	4896
629.527	4783
629.860	4671
630.192	4560
630.525	4457
630.858	4361
631.190	4270
631.523	4182
631.855	4100
632.188	4029
632.520	3962
632.852	3898
633.185	3833
633.517	3771
633.849	3715
634.182	3663
634.514	3614
634.846	3570
635.178	3530
635.510	3495
635.842	3463
636.174	3432
636.506	3402
636.837	3371
637.169	3342
637.501	3309
637.833	3275
638.164	3236
638.496	3193
638.828	3144
639.159	3089
639.491	3030
639.822	2969
640.154	2907
640.485	2847
640.816	2786
641.147	2727
641.479	2670
641.810	2614
642.141	2560
642.472	2508
642.803	2456
643.134	2407
643.465	2364
643.796	2330
644.127	2305
644.458	2293
644.789	2293
645.119	2306
645.450	2326
645.781	2350
646.111	2374
646.442	2395
646.773	2411
647.103	2423
647.433	2433
647.764	2445
648.094	2461
648.425	2480
648.755	2503
649.085	2531
649.415	2559
649.745	2589
650.075	2619
650.405	2654
650.735	2729
651.065	3273
651.395	4976
651.725	7797
652.055	11445
652.385	15090
652.715	18733
653.044	22378
653.374	26028
653.704	29683
654.033	32191
654.363	33896
654.692	35025
655.022	35759
655.351	36240
655.680	36538
656.010	36700
656.339	36772
656.668	36791
656.997	36782
657.326	36752
657.655	36669
657.984	36107
658.313	34377
658.642	31519
658.971	27825
659.300	24130
659.629	20436
659.958	16743
660.286	13050
660.615	9358
660.944	6821
661.272	5089
661.601	3937
661.929	3175
662.258	2663
662.586	2329
662.915	2124
663.243	2006
663.571	1939
663.899	1898
664.228	1873
664.556	1856
664.884	1845
665.212	1837
665.540	1831
665.868	1828
666.196	1826
666.524	1825
666.852	1826
667.179	1834
667.507	1848
667.835	1868
668.162	1895
668.490	1929
668.818	1969
669.145	2010
669.473	2051
669.800	2089
670.127	2123
670.455	2151
670.782	2174
671.109	2195
671.436	2212
671.764	2226
672.091	2238
672.418	2248
672.745	2256
673.072	2265
673.399	2275
673.726	2285
674.053	2293
674.379	2296
674.706	2296
675.033	2294
675.359	2291
675.686	2286
676.013	2284
676.339	2286
676.666	2293
676.992	2310
677.318	2334
677.645	2361
677.971	2386
678.297	2409
678.624	2431
678.950	2452
679.276	2472
679.602	2491
679.928	2512
680.254	2537
680.580	2569
680.906	2609
681.232	2659
681.558	2710
681.883	2762
682.209	2810
682.535	2854
682.860	2894
683.186	2927
683.511	2954
683.837	2971
684.162	2984
684.488	2995
684.813	3006
685.138	3017
685.464	3026
685.789	3034
686.114	3041
686.439	3051
686.764	3062
687.089	3070
687.414	3070
687.739	3060
688.064	3042
688.389	3019
688.714	2991
689.039	2961
689.363	2929
689.688	2895
690.013	2861
690.337	2831
690.662	2806
690.986	2784
691.311	2761
691.635	2739
691.959	2718
692.284	2703
692.608	2699
692.932	2704
693.256	2714
693.580	2725
693.904	2739
694.228	2757
694.552	2772
694.876	2780
695.200	2778
695.524	2765
695.848	2748
696.172	2725
696.495	2702
696.819	2677
697.143	2651
697.466	2626
697.790	2604
698.113	2590
698.437	2583
698.760	2581
699.083	2579
699.407	2572
699.730	2558
700.053	2537
700.376	2508
700.699	2468
701.022	2417
701.345	2361
701.668	2309
701.991	2266
702.314	2237
702.637	2224
702.960	2229
703.283	2253
703.605	2294
703.928	2350
704.251	2412
704.573	2475
704.896	2531
705.218	2577
705.540	2613
705.863	2642
706.185	2666
706.507	2687
706.830	2706
707.152	2727
707.474	2749
707.796	2773
708.118	2799
708.440	2824
708.762	2846
709.084	2864
709.406	2873
709.728	2874
710.049	2869
710.371	2856
710.693	2837
711.014	2816
711.336	2796
711.658	2777
711.979	2761
712.301	2746
712.622	2729
712.943	2710
713.265	2687
713.586	2662
713.907	2639
714.228	2619
714.549	2602
714.870	2592
715.191	2586
715.512	2585
715.833	2581
716.154	2575
716.475	2563
716.796	2547
717.117	2523
717.437	2494
717.758	2463
718.078	2430
718.399	2398
718.719	2370
719.040	2345
719.360	2327
719.681	2313
720.001	2304
720.321	2299
720.642	2297
720.962	2299
721.282	2305
721.602	2312
721.922	2320
722.242	2331
722.562	2346
722.882	2365
723.202	2381
723.521	2396
723.841	2411
724.161	2427
724.481	2443
724.800	2460
725.120	2482
725.439	2507
725.759	2537
726.078	2570
726.398	2611
726.717	2662
727.036	2719
727.355	2779
727.675	2837
727.994	2893
728.313	2946
728.632	2992
728.951	3030
729.270	3063
729.589	3094
729.908	3132
730.226	3175
730.545	3223
730.864	3274
731.182	3330
731.501	3387
731.820	3441
732.138	3487
732.457	3528
732.775	3565
733.093	3595
733.412	3613
733.730	3617
734.048	3609
734.367	3592
734.685	3571
735.003	3546
735.321	3523
735.639	3506
735.957	3491
736.275	3478
736.593	3459
736.910	3429
737.228	3388
737.546	3336
737.863	3274
738.181	3206
738.499	3134
738.816	3064
739.134	2996
739.451	2926
739.768	2856
740.086	2789
740.403	2726
740.720	2669
741.038	2614
741.355	2562
741.672	2509
741.989	2457
742.306	2401
742.623	2344
742.940	2289
743.257	2237
743.573	2192
743.890	2156
744.207	2129
744.523	2111
744.840	2099
745.157	2091
745.473	2091
745.790	2098
746.106	2114
746.422	2139
746.739	2170
747.055	2206
747.371	2249
747.687	2293
748.004	2334
748.320	2371
748.636	2403
748.952	2436
749.268	2469
749.584	2500
749.899	2528
750.215	2558
750.531	2591
750.847	2628
751.162	2665
751.478	2701
751.793	2739
752.109	2779
752.424	2822
752.740	2867
753.055	2916
753.370	2977
753.686	3046
754.001	3120
754.316	3198
754.631	3281
754.946	3370
755.261	3463
755.576	3553
755.891	3639
756.206	3726
756.521	3817
756.836	3909
757.150	3998
757.465	4076
757.780	4143
758.094	4200
758.409	4243
758.723	4270
759.038	4282
759.352	4282
759.667	4270
759.981	4249
760.295	4228
760.609	4212
760.923	4203
761.238	4198
761.552	4195
761.866	4189
762.180	4181
762.493	4159
762.807	4115
763.121	4049
763.435	3965
763.749	3874
764.062	3788
764.376	3717
764.689	3668
765.003	3642
765.316	3638
765.630	3651
765.943	3672
766.257	3697
766.570	3718
766.883	3724
767.196	3715
767.509	3691
767.822	3657
768.135	3611
768.448	3562
768.761	3510
769.074	3465
769.387	3432
769.700	3411
770.013	3398
770.325	3389
770.638	3374
770.950	3346
771.263	3301
771.575	3239
771.888	3160
772.200	3067
772.513	2967
772.825	2861
773.137	2753
773.449	2647
773.761	2544
774.074	2449
774.386	2364
774.698	2293
775.010	2235
775.321	2194
775.633	2166
775.945	2151
776.257	2142
776.568	2140
776.880	2146
777.192	2163
777.503	2187
777.815	2217
778.126	2254
778.438	2300
778.749	2350
779.060	2397
779.372	2443
779.683	2486
779.994	2525
780.305	2556
780.616	2576
780.927	2590
781.238	2595
781.549	2589
781.860	2572
782.171	2549
782.481	2523
782.792	2498
783.103	2472
783.413	2443
783.724	2413
784.034	2384
784.345	2357
784.655	2333
784.966	2308
785.276	2282
785.586	2257
785.896	2231
786.207	2205
786.517	2176
786.827	2149
787.137	2123
787.447	2097
787.757	2073
788.066	2050
788.376	2027
788.686	2005
788.996	1982
789.305	1960
789.615	1941
789.925	1932
790.234	1929
790.544	1934
790.853	1944
791.162	1954
791.472	1963
791.781	1968
792.090	1964
792.399	1952
792.708	1934
793.017	1913
793.326	1894
793.635	1875
793.944	1858
794.253	1844
794.562	1833
794.871	1827
795.179	1822
795.488	1817
795.797	1807
796.105	1791
796.414	1764
796.722	1728
797.031	1682
797.339	1626
797.647	1564
797.956	1499
798.264	1439
798.572	1388
798.880	1349
799.188	1321
799.496	1300
799.804	1284
800.112	1273
800.420	1262
800.728	1253
801.035	1240
801.343	1225
801.651	1214
801.958	1210
802.266	1215
802.573	1225
802.881	1238
803.188	1254
803.496	1272
803.803	1291
804.110	1307
804.417	1322
804.724	1335
805.032	1348
805.339	1358
805.646	1365
805.953	1369
806.259	1370
806.566	1368
806.873	1363
807.180	1356
807.486	1348
807.793	1340
808.100	1326
808.406	1304
808.713	1275
809.019	1240
809.326	1206
809.632	1172
809.938	1141
810.244	1112
810.551	1088
810.857	1068
811.163	1051
811.469	1032
811.775	1012
812.081	992
812.387	973
812.692	958
812.998	946
813.304	937
813.610	930
813.915	924
814.221	919
814.526	915
814.832	911
815.137	907
815.443	902
815.748	892
816.053	881
816.358	868
816.664	858
816.969	848
817.274	839
817.579	832
817.884	828
818.189	827
818.493	826
818.798	824
819.103	819
819.408	811
819.712	802
820.017	792
820.321	781
820.626	770
820.930	760
821.235	753
821.539	751
821.843	750
822.148	752
822.452	753
822.756	752
823.060	750
823.364	745
823.668	738
823.972	730
824.276	722
824.580	716
824.883	712
825.187	711
825.491	710
825.795	711
826.098	711
826.402	710
826.705	707
827.008	702
827.312	696
827.615	684
827.918	670
828.222	654
828.525	638
828.828	622
829.131	606
829.434	591
829.737	577
830.040	565
830.343	556
830.645	548
830.948	539
831.251	532
831.553	525
831.856	519
832.159	513
832.461	506
832.764	499
833.066	492
833.368	487
833.671	482
833.973	478
834.275	475
834.577	472
834.879	468
835.181	464
835.483	458
835.785	452
836.087	444
836.389	434
836.690	423
836.992	412
837.294	400
837.595	387
837.897	374
838.198	360
838.500	348
838.801	337
839.103	327
839.404	319
839.705	311
840.006	305
840.307	301
840.608	297
840.910	295
841.210	293
841.511	291
841.812	288
842.113	285
842.414	281
842.715	275
843.015	270
843.316	264
843.616	258
843.917	253
844.217	249
844.518	245
844.818	242
845.118	240
845.419	239
845.719	238
846.019	236
846.319	235
846.619	234
846.919	233
847.219	232
847.519	230
847.819	229
848.118	229
848.418	232
848.718	239
849.017	251
849.317	267
849.616	287
849.916	309
850.215	335
850.515	362
850.814	389
851.113	414
851.412	435
851.712	455
852.011	474
852.310	491
852.609	507
852.908	520
853.206	533
853.505	544
853.804	553
854.103	562
854.401	568
854.700	570
854.999	568
855.297	561
855.595	550
855.894	534
856.192	514
856.491	492
856.789	467
857.087	442
857.385	419
857.683	398
857.981	379
858.279	362
858.577	345
858.875	330
859.173	318
859.471	309
859.768	301
860.066	294
860.363	288
860.661	283
860.959	279
861.256	276
861.553	272
861.851	266
862.148	261
862.445	256
862.742	251
863.039	247
863.337	243
863.634	240
863.931	238
864.227	237
864.524	236
864.821	236
865.118	235
865.415	233
865.711	230
866.008	226
866.304	222
866.601	217
866.897	213
867.194	211
867.490	208
867.786	208
868.082	207
868.379	208
868.675	209
868.971	210
869.267	210
869.563	210
869.859	209
870.154	208
870.450	207
870.746	206
871.042	206
871.337	205
871.633	206
871.928	207
872.224	208
872.519	211
872.815	212
873.110	212
873.405	212
873.700	211
873.995	210
874.291	210
874.586	211
874.881	212
875.175	214
875.470	217
875.765	221
876.060	225
876.355	229
876.649	233
876.944	238
877.238	242
877.533	246
877.827	248
878.122	250
878.416	251
878.710	251
879.005	250
879.299	249
879.593	248
879.887	247
880.181	246
880.475	244
880.769	242
881.063	240
881.356	237
881.650	234
881.944	231
882.238	193
882.531	183
882.825	182
883.118	185
883.412	183
883.705	181
883.998	189
884.291	190
884.585	192
884.878	203
>>>>>>>>>> END of Data <<<<<<<<<<