Date	2022年07月22日金曜日 01時41分18秒
Spectrometers	USB2+H05879
ダーク	使用
リファレンス	使用
積分時間[msec]	17
平均回数	10000
ｽﾑｰｼﾞﾝｸﾞ	0
Electrical Dark	USE
ピクセル数	2048
計測モード	吸光度
保存開始波長[nm]	190.664
保存終了波長[nm]	884.878
保存ﾋﾟｯﾁ波長[nm]	全波長

>>>>>>>>>> Data Start <<<<<<<<<<<<
190.664	0.000000
191.040	0.000000
191.415	0.000000
191.791	0.000000
192.166	0.000000
192.542	-0.104151
192.917	0.537439
193.293	0.000000
193.668	0.000000
194.044	0.000000
194.419	0.000000
194.794	0.000000
195.170	0.000000
195.545	0.000000
195.920	0.000000
196.296	0.000000
196.671	0.000000
197.046	0.000000
197.421	0.233617
197.796	0.000000
198.171	0.000000
198.546	0.000000
198.922	0.195516
199.297	0.000000
199.672	0.000000
200.047	0.000000
200.422	0.000000
200.796	0.000000
201.171	0.000000
201.546	0.000000
201.921	0.000000
202.296	0.000000
202.671	0.000000
203.045	0.000000
203.420	0.929164
203.795	0.000000
204.170	0.000000
204.544	0.000000
204.919	0.000000
205.294	0.000000
205.668	0.000000
206.043	0.000000
206.417	0.907541
206.792	0.000000
207.166	0.000000
207.541	0.000000
207.915	0.000000
208.289	0.677331
208.664	0.000000
209.038	0.428162
209.412	0.000000
209.787	0.000000
210.161	0.044273
210.535	0.000000
210.909	0.879140
211.284	0.327885
211.658	0.000000
212.032	0.000000
212.406	0.590410
212.780	0.000000
213.154	0.086789
213.528	0.000000
213.902	0.294054
214.276	0.000000
214.650	0.000000
215.024	0.000000
215.398	0.238605
215.772	0.000000
216.145	0.000000
216.519	1.300860
216.893	0.000000
217.267	0.238710
217.640	0.000000
218.014	0.000000
218.388	0.180525
218.761	0.849191
219.135	0.364744
219.508	0.200665
219.882	0.000000
220.256	0.000000
220.629	0.000000
221.003	0.000000
221.376	0.000000
221.749	0.000000
222.123	0.000000
222.496	0.000000
222.869	0.000000
223.243	0.000000
223.616	0.087944
223.989	0.000000
224.362	0.000000
224.736	0.887033
225.109	1.369150
225.482	0.000000
225.855	0.118260
226.228	1.534303
226.601	0.000000
226.974	0.000000
227.347	0.000000
227.720	0.000000
228.093	0.000000
228.466	0.000000
228.839	-0.021645
229.212	1.014409
229.585	0.876357
229.957	1.193141
230.330	0.000000
230.703	0.000000
231.076	0.416562
231.448	0.948237
231.821	0.000000
232.194	-0.645794
232.566	0.000000
232.939	0.000000
233.311	0.000000
233.684	0.000000
234.056	0.000000
234.429	0.000000
234.801	0.000000
235.174	0.000000
235.546	0.000000
235.918	0.000000
236.291	0.505880
236.663	0.000000
237.035	0.492119
237.408	0.442353
237.780	0.140302
238.152	0.762539
238.524	0.000000
238.896	0.000000
239.268	0.000000
239.641	0.000000
240.013	0.107243
240.385	0.000000
240.757	0.000000
241.129	0.000000
241.500	0.000000
241.872	0.000000
242.244	0.766430
242.616	0.000000
242.988	0.000000
243.360	0.000000
243.731	0.000000
244.103	0.074287
244.475	0.000000
244.847	0.000000
245.218	0.000000
245.590	0.000000
245.961	0.000000
246.333	1.613823
246.705	0.000000
247.076	0.220961
247.448	0.000000
247.819	0.000000
248.190	0.641092
248.562	0.000000
248.933	0.000000
249.305	0.000000
249.676	-0.519308
250.047	0.205431
250.418	0.000000
250.790	0.000000
251.161	0.000000
251.532	0.000000
251.903	0.000000
252.274	0.000000
252.645	0.000000
253.016	1.207156
253.387	0.711495
253.758	0.000000
254.129	0.000000
254.500	0.000000
254.871	0.299637
255.242	1.040768
255.613	0.000000
255.984	0.200185
256.355	0.000000
256.725	0.000000
257.096	0.000000
257.467	1.046103
257.838	0.448865
258.208	0.000000
258.579	0.292180
258.949	0.000000
259.320	0.000000
259.690	0.000000
260.061	-0.027983
260.431	0.426037
260.802	0.860606
261.172	0.000000
261.543	0.000000
261.913	1.625999
262.283	-0.035791
262.654	0.000000
263.024	-0.230559
263.394	0.000000
263.764	0.733854
264.135	0.000000
264.505	0.027651
264.875	-0.075573
265.245	0.244343
265.615	0.258070
265.985	0.000000
266.355	0.000000
266.725	-1.174292
267.095	0.000000
267.465	0.338662
267.835	0.000000
268.205	1.417271
268.575	0.000000
268.944	0.000000
269.314	0.000000
269.684	0.000000
270.054	0.000000
270.423	0.000000
270.793	-0.191257
271.163	1.031150
271.532	0.000000
271.902	0.000000
272.271	-0.334048
272.641	0.000000
273.010	0.000000
273.380	0.000000
273.749	0.125562
274.119	0.000000
274.488	0.000000
274.857	0.000000
275.227	0.000000
275.596	0.000000
275.965	0.000000
276.335	0.000000
276.704	0.000000
277.073	0.000000
277.442	0.694978
277.811	0.695956
278.180	0.000000
278.549	0.000000
278.918	0.000000
279.287	0.000000
279.656	0.281049
280.025	0.188533
280.394	0.000000
280.763	1.041629
281.132	0.000000
281.501	0.000000
281.869	0.000000
282.238	0.000000
282.607	0.000000
282.976	0.674647
283.344	0.000000
283.713	0.000000
284.081	0.000000
284.450	0.000000
284.819	0.000000
285.187	0.000000
285.556	0.000000
285.924	0.699028
286.292	-1.260617
286.661	0.326194
287.029	0.840719
287.398	0.548886
287.766	0.000000
288.134	0.000000
288.502	0.000000
288.871	0.184812
289.239	0.000000
289.607	0.309488
289.975	0.472878
290.343	0.000000
290.711	0.000000
291.079	1.751700
291.447	1.438916
291.815	0.250667
292.183	-0.317669
292.551	0.000000
292.919	-0.855140
293.287	0.417671
293.655	0.837082
294.022	0.000000
294.390	0.000000
294.758	0.000000
295.126	0.496351
295.493	0.000000
295.861	0.219062
296.229	0.719180
296.596	0.630926
296.964	0.000000
297.331	0.000000
297.699	0.000000
298.066	0.000000
298.434	0.337192
298.801	1.117822
299.168	1.012731
299.536	0.000000
299.903	0.572713
300.270	0.000000
300.638	0.000000
301.005	1.277697
301.372	-0.345985
301.739	0.035059
302.106	0.000000
302.473	0.000000
302.840	0.000000
303.207	0.635217
303.574	-0.025499
303.941	0.000000
304.308	0.768682
304.675	0.165707
305.042	0.655069
305.409	0.000000
305.776	-0.172876
306.143	0.364429
306.509	0.000000
306.876	0.498839
307.243	0.886114
307.610	0.710559
307.976	0.000000
308.343	0.479142
308.709	1.019758
309.076	1.156722
309.442	0.532979
309.809	1.008272
310.175	1.333623
310.542	1.655796
310.908	1.108833
311.275	1.425799
311.641	0.863352
312.007	1.637167
312.373	1.313315
312.740	1.317761
313.106	1.258367
313.472	1.278783
313.838	1.539447
314.204	1.509089
314.570	1.251145
314.936	1.245369
315.302	0.000000
315.668	1.463733
316.034	1.872215
316.400	1.484688
316.766	1.430208
317.132	0.000000
317.498	1.503173
317.864	1.839570
318.230	2.526988
318.595	0.000000
318.961	0.000000
319.327	1.368314
319.692	1.967611
320.058	1.910248
320.424	1.800398
320.789	1.666487
321.155	1.676167
321.520	2.377656
321.886	1.766157
322.251	2.138224
322.616	1.994071
322.982	0.000000
323.347	1.961152
323.712	1.736933
324.078	0.000000
324.443	2.001615
324.808	0.000000
325.173	2.247182
325.539	1.896704
325.904	2.073522
326.269	2.323060
326.634	2.201881
326.999	2.888054
327.364	1.951288
327.729	2.268555
328.094	2.011532
328.459	2.437854
328.823	2.037228
329.188	1.763714
329.553	2.099154
329.918	2.569317
330.283	2.485763
330.647	2.132712
331.012	2.020537
331.377	2.519205
331.741	2.599349
332.106	2.329391
332.470	2.001616
332.835	2.164097
333.199	2.153364
333.564	2.233451
333.928	1.905138
334.293	1.921773
334.657	2.265002
335.021	2.080292
335.386	2.004596
335.750	2.164612
336.114	2.420503
336.478	2.343270
336.843	2.081219
337.207	2.246507
337.571	2.216223
337.935	2.459070
338.299	2.199199
338.663	2.317634
339.027	2.273484
339.391	2.284260
339.755	1.977796
340.119	2.143059
340.483	2.238908
340.846	2.307186
341.210	2.046692
341.574	2.150002
341.938	1.945453
342.301	2.120047
342.665	2.397581
343.029	2.376680
343.392	2.006504
343.756	2.236357
344.119	2.182289
344.483	2.428655
344.846	2.270118
345.210	2.126367
345.573	2.056374
345.937	2.327562
346.300	2.451024
346.663	2.192490
347.027	2.185703
347.390	2.141394
347.753	2.252776
348.116	2.137446
348.479	2.248588
348.843	2.154898
349.206	2.205395
349.569	1.970064
349.932	2.319916
350.295	2.280208
350.658	2.195832
351.021	2.004847
351.383	2.043460
351.746	2.274330
352.109	2.257194
352.472	2.048771
352.835	2.123731
353.197	2.290281
353.560	2.179024
353.923	2.219902
354.285	2.297192
354.648	2.075353
355.011	2.327973
355.373	2.171666
355.736	2.127053
356.098	2.160221
356.461	2.122790
356.823	2.558437
357.185	2.316037
357.548	2.101560
357.910	2.209669
358.272	2.244689
358.635	2.237027
358.997	2.239322
359.359	2.096622
359.721	2.291536
360.083	2.209288
360.445	2.323207
360.807	2.177209
361.169	2.117280
361.531	2.210120
361.893	2.169700
362.255	2.099944
362.617	2.149309
362.979	2.259972
363.341	2.316799
363.703	2.083875
364.064	2.127644
364.426	2.186248
364.788	2.051725
365.149	2.021443
365.511	2.185773
365.873	2.266989
366.234	2.226165
366.596	2.237201
366.957	2.303609
367.319	2.116228
367.680	2.116297
368.042	2.088327
368.403	2.131594
368.764	2.167703
369.126	2.186083
369.487	2.156833
369.848	2.187877
370.209	2.202378
370.570	2.103187
370.931	2.166533
371.293	2.338784
371.654	2.177530
372.015	2.252519
372.376	2.138758
372.737	2.086951
373.098	2.274495
373.458	2.249810
373.819	2.160149
374.180	2.146173
374.541	2.413020
374.902	2.333695
375.263	2.114680
375.623	2.004997
375.984	2.128324
376.345	2.208632
376.705	2.233072
377.066	2.234253
377.426	2.376209
377.787	2.350766
378.147	2.134826
378.508	2.129554
378.868	2.380754
379.228	2.295837
379.589	2.309716
379.949	2.196555
380.309	2.420282
380.670	2.331478
381.030	2.149392
381.390	2.501954
381.750	2.322834
382.110	2.314375
382.470	2.324562
382.830	2.302758
383.190	2.173253
383.550	2.301503
383.910	2.177759
384.270	2.283178
384.630	2.256625
384.990	2.158016
385.350	2.165536
385.709	2.282148
386.069	2.350875
386.429	2.264858
386.788	2.285164
387.148	2.273858
387.508	2.289888
387.867	2.278970
388.227	2.314249
388.586	2.203087
388.946	2.028652
389.305	2.238565
389.665	2.310455
390.024	2.573667
390.383	2.480963
390.743	2.151531
391.102	2.406735
391.461	2.121537
391.820	2.312874
392.179	2.163436
392.539	2.272272
392.898	2.228349
393.257	2.294386
393.616	2.187390
393.975	2.098946
394.334	2.145006
394.693	2.161271
395.051	2.352561
395.410	2.569081
395.769	2.275249
396.128	2.313313
396.487	2.150172
396.845	2.279879
397.204	2.250096
397.563	2.455097
397.921	2.224330
398.280	2.188312
398.638	2.319157
398.997	2.164524
399.355	2.300954
399.714	2.236124
400.072	2.414196
400.431	2.187280
400.789	2.495659
401.147	2.167165
401.506	2.159182
401.864	2.142277
402.222	2.432910
402.580	2.344076
402.938	2.091759
403.297	2.138947
403.655	2.409131
404.013	2.180939
404.371	2.207289
404.729	2.515920
405.087	2.226331
405.444	2.403452
405.802	2.307157
406.160	2.317834
406.518	2.244885
406.876	2.194270
407.233	2.302416
407.591	2.458242
407.949	2.562948
408.306	2.119411
408.664	2.273344
409.022	2.347386
409.379	2.326777
409.737	2.228853
410.094	2.266781
410.451	2.301578
410.809	2.290647
411.166	2.100069
411.523	2.162046
411.881	2.160898
412.238	2.257132
412.595	2.287783
412.952	2.315959
413.310	2.124521
413.667	2.451163
414.024	2.302286
414.381	2.223379
414.738	2.232912
415.095	2.345600
415.452	2.170908
415.809	2.251644
416.165	2.161782
416.522	2.196472
416.879	2.311474
417.236	2.468474
417.593	2.333605
417.949	2.498239
418.306	2.471351
418.663	2.241747
419.019	2.180737
419.376	2.173613
419.732	2.339503
420.089	2.249328
420.445	2.247325
420.802	2.250001
421.158	2.419221
421.514	2.261870
421.871	2.193612
422.227	2.233863
422.583	2.168628
422.939	2.164881
423.295	2.131374
423.652	2.440928
424.008	2.288370
424.364	2.114352
424.720	2.139688
425.076	2.204277
425.432	2.299309
425.788	2.266319
426.143	2.231334
426.499	2.109569
426.855	2.168675
427.211	2.230391
427.567	2.280746
427.922	2.169411
428.278	2.421682
428.634	2.226492
428.989	2.399330
429.345	2.205011
429.700	2.371774
430.056	2.133562
430.411	2.158146
430.767	2.296017
431.122	2.273207
431.478	2.211540
431.833	2.276735
432.188	2.230965
432.543	2.174070
432.899	2.379811
433.254	2.122685
433.609	2.199200
433.964	2.275938
434.319	2.375965
434.674	2.307708
435.029	2.288689
435.384	2.149889
435.739	2.198245
436.094	2.273696
436.449	2.195843
436.804	2.331548
437.158	2.127815
437.513	2.299783
437.868	2.251064
438.223	2.139861
438.577	2.138894
438.932	2.055659
439.287	2.174772
439.641	2.168716
439.996	2.199553
440.350	2.124473
440.704	2.171404
441.059	2.252103
441.413	2.268027
441.768	1.985937
442.122	2.269912
442.476	2.157055
442.830	2.079596
443.185	2.121385
443.539	2.124197
443.893	2.110596
444.247	2.217790
444.601	2.092412
444.955	2.100582
445.309	2.150122
445.663	2.019330
446.017	2.040352
446.371	2.088189
446.724	2.114558
447.078	2.003528
447.432	1.990847
447.786	2.147224
448.139	2.061688
448.493	2.159639
448.847	2.025768
449.200	1.967651
449.554	1.975524
449.907	2.075754
450.261	2.060712
450.614	2.124109
450.968	1.978044
451.321	2.084076
451.674	1.989958
452.027	2.011034
452.381	2.006964
452.734	2.038915
453.087	2.105086
453.440	2.005737
453.793	2.043345
454.146	2.162411
454.499	2.022083
454.852	2.008362
455.205	1.960172
455.558	1.907655
455.911	2.037416
456.264	2.018696
456.617	1.966473
456.970	1.983330
457.322	1.922940
457.675	1.960988
458.028	1.941742
458.380	1.969412
458.733	2.060968
459.086	1.989929
459.438	2.029087
459.791	1.951732
460.143	1.937253
460.496	1.895128
460.848	1.907744
461.200	1.939032
461.553	1.920772
461.905	1.953491
462.257	2.021298
462.609	1.948753
462.961	1.878549
463.314	1.834960
463.666	1.858910
464.018	1.901883
464.370	1.915050
464.722	1.888408
465.074	1.830657
465.426	1.849012
465.777	1.815784
466.129	1.829379
466.481	1.789931
466.833	1.811795
467.184	1.908717
467.536	1.831392
467.888	1.893187
468.239	1.837843
468.591	1.832335
468.943	1.901993
469.294	1.761595
469.646	1.850737
469.997	1.781877
470.348	1.821231
470.700	1.692849
471.051	1.744552
471.402	1.838176
471.754	1.828826
472.105	1.798060
472.456	1.816574
472.807	1.814761
473.158	1.762468
473.509	1.735917
473.860	1.807897
474.211	1.772015
474.562	1.804073
474.913	1.791344
475.264	1.774588
475.615	1.769269
475.966	1.770459
476.316	1.773033
476.667	1.706011
477.018	1.753828
477.368	1.708713
477.719	1.737382
478.070	1.750724
478.420	1.693154
478.771	1.751581
479.121	1.710160
479.472	1.713712
479.822	1.713573
480.172	1.680769
480.523	1.684624
480.873	1.662963
481.223	1.681872
481.573	1.692539
481.924	1.667675
482.274	1.690463
482.624	1.696807
482.974	1.670948
483.324	1.695823
483.674	1.629863
484.024	1.650557
484.374	1.716527
484.724	1.665675
485.073	1.652073
485.423	1.656056
485.773	1.649860
486.123	1.632742
486.472	1.635875
486.822	1.639259
487.172	1.646802
487.521	1.627177
487.871	1.599189
488.220	1.608045
488.570	1.658815
488.919	1.634482
489.268	1.640279
489.618	1.617557
489.967	1.629296
490.316	1.623652
490.666	1.567779
491.015	1.620369
491.364	1.554844
491.713	1.591866
492.062	1.586501
492.411	1.600843
492.760	1.607465
493.109	1.611148
493.458	1.581857
493.807	1.585604
494.156	1.596801
494.505	1.547816
494.853	1.548269
495.202	1.564583
495.551	1.574357
495.900	1.557791
496.248	1.540782
496.597	1.538782
496.945	1.553085
497.294	1.534570
497.642	1.539778
497.991	1.513635
498.339	1.526672
498.688	1.520688
499.036	1.527441
499.384	1.527382
499.732	1.511193
500.081	1.519848
500.429	1.500542
500.777	1.534494
501.125	1.503613
501.473	1.510811
501.821	1.508856
502.169	1.489668
502.517	1.492701
502.865	1.480600
503.213	1.482200
503.561	1.488009
503.908	1.487189
504.256	1.464972
504.604	1.450737
504.952	1.450825
505.299	1.450074
505.647	1.456555
505.994	1.489589
506.342	1.461496
506.689	1.462160
507.037	1.431781
507.384	1.445894
507.732	1.429575
508.079	1.434356
508.426	1.437455
508.774	1.409908
509.121	1.424677
509.468	1.427694
509.815	1.418316
510.162	1.421029
510.509	1.418382
510.856	1.428121
511.203	1.411017
511.550	1.415800
511.897	1.413155
512.244	1.397040
512.591	1.406116
512.938	1.381626
513.284	1.395243
513.631	1.395644
513.978	1.426476
514.324	1.386431
514.671	1.397820
515.018	1.368714
515.364	1.370939
515.711	1.394162
516.057	1.402958
516.403	1.377891
516.750	1.362806
517.096	1.378706
517.443	1.362078
517.789	1.384025
518.135	1.356291
518.481	1.383066
518.827	1.392387
519.173	1.358667
519.519	1.385194
519.865	1.365605
520.211	1.354872
520.557	1.341579
520.903	1.333648
521.249	1.352967
521.595	1.349104
521.941	1.356587
522.287	1.367623
522.632	1.331730
522.978	1.343277
523.324	1.343138
523.669	1.327672
524.015	1.327751
524.360	1.331269
524.706	1.330024
525.051	1.327696
525.397	1.311783
525.742	1.313020
526.087	1.325830
526.433	1.307912
526.778	1.305485
527.123	1.312052
527.468	1.290787
527.813	1.296969
528.158	1.313888
528.504	1.308091
528.849	1.315789
529.193	1.299157
529.538	1.285631
529.883	1.282185
530.228	1.275467
530.573	1.295724
530.918	1.290673
531.263	1.269386
531.607	1.263610
531.952	1.278639
532.296	1.258079
532.641	1.274641
532.986	1.263277
533.330	1.272765
533.675	1.281640
534.019	1.257440
534.363	1.249162
534.708	1.244384
535.052	1.248828
535.396	1.250697
535.741	1.254833
536.085	1.234644
536.429	1.246106
536.773	1.227069
537.117	1.251736
537.461	1.224363
537.805	1.241102
538.149	1.227765
538.493	1.233955
538.837	1.214274
539.181	1.208293
539.524	1.207588
539.868	1.201432
540.212	1.211789
540.556	1.204277
540.899	1.194715
541.243	1.193202
541.586	1.179340
541.930	1.204016
542.273	1.208820
542.617	1.182687
542.960	1.176083
543.304	1.180893
543.647	1.164664
543.990	1.160160
544.333	1.166824
544.677	1.148989
545.020	1.173293
545.363	1.156423
545.706	1.153587
546.049	1.153578
546.392	1.134629
546.735	1.130912
547.078	1.132421
547.421	1.125736
547.764	1.134392
548.106	1.111786
548.449	1.132131
548.792	1.111643
549.135	1.106039
549.477	1.113349
549.820	1.102387
550.162	1.079700
550.505	1.093183
550.847	1.082548
551.190	1.078509
551.532	1.071268
551.875	1.058237
552.217	1.058333
552.559	1.061622
552.901	1.062179
553.244	1.052467
553.586	1.052236
553.928	1.043938
554.270	1.036275
554.612	1.031561
554.954	1.036212
555.296	1.023781
555.638	1.023766
555.980	1.007819
556.322	1.007635
556.663	1.003441
557.005	1.001675
557.347	0.982802
557.689	0.987312
558.030	0.970458
558.372	0.969623
558.713	0.966101
559.055	0.962324
559.396	0.954043
559.738	0.953573
560.079	0.947202
560.421	0.947798
560.762	0.934674
561.103	0.938343
561.444	0.929160
561.786	0.925674
562.127	0.916509
562.468	0.912279
562.809	0.904069
563.150	0.904948
563.491	0.894098
563.832	0.887922
564.173	0.874918
564.514	0.873558
564.855	0.869435
565.195	0.865379
565.536	0.857833
565.877	0.850330
566.218	0.850526
566.558	0.845886
566.899	0.845227
567.239	0.830107
567.580	0.826916
567.920	0.826592
568.261	0.817323
568.601	0.812859
568.941	0.815061
569.282	0.808046
569.622	0.800334
569.962	0.792676
570.302	0.790608
570.643	0.782121
570.983	0.779485
571.323	0.771067
571.663	0.768225
572.003	0.757259
572.343	0.744351
572.683	0.731980
573.022	0.713815
573.362	0.693133
573.702	0.663950
574.042	0.647200
574.381	0.633990
574.721	0.630276
575.061	0.626504
575.400	0.623747
575.740	0.622230
576.079	0.613362
576.419	0.589057
576.758	0.561056
577.097	0.535169
577.437	0.520737
577.776	0.514615
578.115	0.511570
578.454	0.511001
578.794	0.524726
579.133	0.534160
579.472	0.540074
579.811	0.528284
580.150	0.496250
580.489	0.459763
580.828	0.428790
581.167	0.407662
581.505	0.392720
581.844	0.392160
582.183	0.406610
582.522	0.441031
582.860	0.482871
583.199	0.519897
583.538	0.537013
583.876	0.539820
584.215	0.525128
584.553	0.507272
584.891	0.492830
585.230	0.489080
585.568	0.491143
585.906	0.496537
586.245	0.503657
586.583	0.511966
586.921	0.517257
587.259	0.518413
587.597	0.520049
587.935	0.528442
588.273	0.546085
588.611	0.567249
588.949	0.583822
589.287	0.586712
589.625	0.585000
589.963	0.585365
590.300	0.578568
590.638	0.580193
590.976	0.578146
591.313	0.573379
591.651	0.571835
591.989	0.567481
592.326	0.563300
592.664	0.561619
593.001	0.555636
593.338	0.547651
593.676	0.544782
594.013	0.549311
594.350	0.553994
594.687	0.548720
595.025	0.546015
595.362	0.543040
595.699	0.543072
596.036	0.544908
596.373	0.543593
596.710	0.543324
597.047	0.538563
597.384	0.535129
597.720	0.534541
598.057	0.533077
598.394	0.532708
598.731	0.526627
599.067	0.525075
599.404	0.521440
599.741	0.523281
600.077	0.523384
600.414	0.518444
600.750	0.522371
601.087	0.516141
601.423	0.516219
601.759	0.514435
602.096	0.514960
602.432	0.511281
602.768	0.507837
603.104	0.503536
603.440	0.506001
603.776	0.506577
604.112	0.503353
604.448	0.501997
604.784	0.501800
605.120	0.499886
605.456	0.498329
605.792	0.502783
606.128	0.493053
606.463	0.495628
606.799	0.490890
607.135	0.490366
607.470	0.489205
607.806	0.490078
608.142	0.485320
608.477	0.484727
608.812	0.484531
609.148	0.482756
609.483	0.483415
609.819	0.481834
610.154	0.481366
610.489	0.476893
610.824	0.473302
611.159	0.477445
611.494	0.472546
611.830	0.473607
612.165	0.468949
612.500	0.468790
612.834	0.470733
613.169	0.469645
613.504	0.468362
613.839	0.466371
614.174	0.460609
614.509	0.468596
614.843	0.467330
615.178	0.460884
615.512	0.461833
615.847	0.455798
616.182	0.463555
616.516	0.456161
616.850	0.457899
617.185	0.452514
617.519	0.455432
617.853	0.452985
618.188	0.447302
618.522	0.445482
618.856	0.444908
619.190	0.443427
619.524	0.450217
619.858	0.444289
620.192	0.441029
620.526	0.446772
620.860	0.442728
621.194	0.441270
621.528	0.434237
621.862	0.438550
622.195	0.435105
622.529	0.439563
622.863	0.434255
623.196	0.437192
623.530	0.435777
623.864	0.435973
624.197	0.433445
624.530	0.431214
624.864	0.433257
625.197	0.435103
625.531	0.422363
625.864	0.420207
626.197	0.424236
626.530	0.429321
626.863	0.421608
627.196	0.418240
627.529	0.423302
627.862	0.425511
628.195	0.426571
628.528	0.419653
628.861	0.419080
629.194	0.415193
629.527	0.427462
629.860	0.419916
630.192	0.414024
630.525	0.409805
630.858	0.408317
631.190	0.411922
631.523	0.406863
631.855	0.407773
632.188	0.404324
632.520	0.411247
632.852	0.404067
633.185	0.414306
633.517	0.411186
633.849	0.408047
634.182	0.409732
634.514	0.407448
634.846	0.408168
635.178	0.408583
635.510	0.400085
635.842	0.400527
636.174	0.397011
636.506	0.400127
636.837	0.403313
637.169	0.402899
637.501	0.401232
637.833	0.397355
638.164	0.397800
638.496	0.391190
638.828	0.393538
639.159	0.402757
639.491	0.394394
639.822	0.398679
640.154	0.391834
640.485	0.398049
640.816	0.382002
641.147	0.383887
641.479	0.381175
641.810	0.379248
642.141	0.387034
642.472	0.383713
642.803	0.383955
643.134	0.378683
643.465	0.377156
643.796	0.379862
644.127	0.382898
644.458	0.387349
644.789	0.385297
645.119	0.382015
645.450	0.387648
645.781	0.390075
646.111	0.378564
646.442	0.379807
646.773	0.369117
647.103	0.376596
647.433	0.360780
647.764	0.371104
648.094	0.368391
648.425	0.383711
648.755	0.375352
649.085	0.377632
649.415	0.380439
649.745	0.365155
650.075	0.364015
650.405	0.377024
650.735	0.376670
651.065	0.370567
651.395	0.366901
651.725	0.367696
652.055	0.362287
652.385	0.374323
652.715	0.373295
653.044	0.367860
653.374	0.366741
653.704	0.373287
654.033	0.343984
654.363	0.327501
654.692	0.151012
655.022	0.150658
655.351	0.150945
655.680	0.150827
656.010	0.151417
656.339	0.151535
656.668	0.151501
656.997	0.151080
657.326	0.151417
657.655	0.150928
657.984	0.273060
658.313	0.322461
658.642	0.313170
658.971	0.306783
659.300	0.306254
659.629	0.315807
659.958	0.315161
660.286	0.317420
660.615	0.330076
660.944	0.344121
661.272	0.361004
661.601	0.344494
661.929	0.351852
662.258	0.353375
662.586	0.348028
662.915	0.350080
663.243	0.347928
663.571	0.360154
663.899	0.355200
664.228	0.344791
664.556	0.343945
664.884	0.346661
665.212	0.351566
665.540	0.344726
665.868	0.336779
666.196	0.340570
666.524	0.343404
666.852	0.352100
667.179	0.346119
667.507	0.349540
667.835	0.342405
668.162	0.335270
668.490	0.340728
668.818	0.324105
669.145	0.335937
669.473	0.329064
669.800	0.349376
670.127	0.339303
670.455	0.338923
670.782	0.343347
671.109	0.328587
671.436	0.338496
671.764	0.342309
672.091	0.326256
672.418	0.337730
672.745	0.318534
673.072	0.339204
673.399	0.321738
673.726	0.328128
674.053	0.320372
674.379	0.321187
674.706	0.313663
675.033	0.317772
675.359	0.313202
675.686	0.315692
676.013	0.330471
676.339	0.329873
676.666	0.339673
676.992	0.318647
677.318	0.306017
677.645	0.323297
677.971	0.318868
678.297	0.324204
678.624	0.317346
678.950	0.318032
679.276	0.312045
679.602	0.315674
679.928	0.322187
680.254	0.325293
680.580	0.311701
680.906	0.322922
681.232	0.326725
681.558	0.322669
681.883	0.314903
682.209	0.310466
682.535	0.311303
682.860	0.311579
683.186	0.306765
683.511	0.301429
683.837	0.321280
684.162	0.322532
684.488	0.313960
684.813	0.310693
685.138	0.312730
685.464	0.314895
685.789	0.316261
686.114	0.308486
686.439	0.312135
686.764	0.306206
687.089	0.308916
687.414	0.301889
687.739	0.293185
688.064	0.301205
688.389	0.308401
688.714	0.307324
689.039	0.295459
689.363	0.311135
689.688	0.302521
690.013	0.297299
690.337	0.294147
690.662	0.295789
690.986	0.299362
691.311	0.308680
691.635	0.312615
691.959	0.299736
692.284	0.299844
692.608	0.297004
692.932	0.311337
693.256	0.294386
693.580	0.304554
693.904	0.292203
694.228	0.301160
694.552	0.305727
694.876	0.282218
695.200	0.282402
695.524	0.301811
695.848	0.310756
696.172	0.304403
696.495	0.304086
696.819	0.297054
697.143	0.288989
697.466	0.289355
697.790	0.294736
698.113	0.288780
698.437	0.293113
698.760	0.295776
699.083	0.286870
699.407	0.286817
699.730	0.292371
700.053	0.288050
700.376	0.287934
700.699	0.280705
701.022	0.282172
701.345	0.275853
701.668	0.286839
701.991	0.289959
702.314	0.297707
702.637	0.274100
702.960	0.289260
703.283	0.284796
703.605	0.289474
703.928	0.290096
704.251	0.290573
704.573	0.278796
704.896	0.283883
705.218	0.273215
705.540	0.294778
705.863	0.266749
706.185	0.275434
706.507	0.284982
706.830	0.282720
707.152	0.280579
707.474	0.282491
707.796	0.287250
708.118	0.269989
708.440	0.276676
708.762	0.279908
709.084	0.279233
709.406	0.276480
709.728	0.284675
710.049	0.281067
710.371	0.276828
710.693	0.291953
711.014	0.277041
711.336	0.280580
711.658	0.281819
711.979	0.276844
712.301	0.271567
712.622	0.262776
712.943	0.269551
713.265	0.283661
713.586	0.283213
713.907	0.269607
714.228	0.268457
714.549	0.273196
714.870	0.270687
715.191	0.271875
715.512	0.276255
715.833	0.271565
716.154	0.270966
716.475	0.273470
716.796	0.274216
717.117	0.247239
717.437	0.266212
717.758	0.260960
718.078	0.274442
718.399	0.260327
718.719	0.263213
719.040	0.269180
719.360	0.280739
719.681	0.257551
720.001	0.266586
720.321	0.270004
720.642	0.261132
720.962	0.262717
721.282	0.255082
721.602	0.270013
721.922	0.250790
722.242	0.256905
722.562	0.261771
722.882	0.254809
723.202	0.244640
723.521	0.245789
723.841	0.267829
724.161	0.263356
724.481	0.254437
724.800	0.261760
725.120	0.265794
725.439	0.265122
725.759	0.255138
726.078	0.254077
726.398	0.252604
726.717	0.266984
727.036	0.264493
727.355	0.261586
727.675	0.243229
727.994	0.251684
728.313	0.255309
728.632	0.260217
728.951	0.267810
729.270	0.260557
729.589	0.254067
729.908	0.262241
730.226	0.258829
730.545	0.250067
730.864	0.250765
731.182	0.255756
731.501	0.244540
731.820	0.256775
732.138	0.255676
732.457	0.247832
732.775	0.249320
733.093	0.247025
733.412	0.255438
733.730	0.245497
734.048	0.249600
734.367	0.243432
734.685	0.244235
735.003	0.242050
735.321	0.242222
735.639	0.239229
735.957	0.240978
736.275	0.244384
736.593	0.237116
736.910	0.235247
737.228	0.245371
737.546	0.238089
737.863	0.238188
738.181	0.238438
738.499	0.253807
738.816	0.238227
739.134	0.243052
739.451	0.235061
739.768	0.236653
740.086	0.249135
740.403	0.232955
740.720	0.237268
741.038	0.244730
741.355	0.235573
741.672	0.231659
741.989	0.236867
742.306	0.240558
742.623	0.225137
742.940	0.246713
743.257	0.229848
743.573	0.234193
743.890	0.243825
744.207	0.249270
744.523	0.242692
744.840	0.245463
745.157	0.229693
745.473	0.235507
745.790	0.229012
746.106	0.237323
746.422	0.231634
746.739	0.237820
747.055	0.230596
747.371	0.234439
747.687	0.238313
748.004	0.229962
748.320	0.239880
748.636	0.234905
748.952	0.247237
749.268	0.241625
749.584	0.232923
749.899	0.220103
750.215	0.235652
750.531	0.239554
750.847	0.232057
751.162	0.231977
751.478	0.228854
751.793	0.230245
752.109	0.238097
752.424	0.236422
752.740	0.222453
753.055	0.218063
753.370	0.225367
753.686	0.218229
754.001	0.222688
754.316	0.225512
754.631	0.223385
754.946	0.216864
755.261	0.221073
755.576	0.228376
755.891	0.226209
756.206	0.230247
756.521	0.224646
756.836	0.228198
757.150	0.223458
757.465	0.225513
757.780	0.222049
758.094	0.221647
758.409	0.224898
758.723	0.220965
759.038	0.222368
759.352	0.222555
759.667	0.220726
759.981	0.221086
760.295	0.219120
760.609	0.215669
760.923	0.229848
761.238	0.221798
761.552	0.225419
761.866	0.225510
762.180	0.222159
762.493	0.216103
762.807	0.222636
763.121	0.212533
763.435	0.224607
763.749	0.227879
764.062	0.216914
764.376	0.216337
764.689	0.230818
765.003	0.220674
765.316	0.223694
765.630	0.220812
765.943	0.210730
766.257	0.219024
766.570	0.208596
766.883	0.213472
767.196	0.208776
767.509	0.216155
767.822	0.204579
768.135	0.223938
768.448	0.213655
768.761	0.218163
769.074	0.208087
769.387	0.216157
769.700	0.211846
770.013	0.209287
770.325	0.210142
770.638	0.212999
770.950	0.214216
771.263	0.212794
771.575	0.222996
771.888	0.208014
772.200	0.210718
772.513	0.212375
772.825	0.209039
773.137	0.216848
773.449	0.214626
773.761	0.200425
774.074	0.212026
774.386	0.205556
774.698	0.189864
775.010	0.202533
775.321	0.208805
775.633	0.217726
775.945	0.207792
776.257	0.203642
776.568	0.175621
776.880	0.203499
777.192	0.202418
777.503	0.191327
777.815	0.209083
778.126	0.208023
778.438	0.212864
778.749	0.210080
779.060	0.207262
779.372	0.203066
779.683	0.194884
779.994	0.218903
780.305	0.202277
780.616	0.199483
780.927	0.202358
781.238	0.194659
781.549	0.208220
781.860	0.210493
782.171	0.208692
782.481	0.200851
782.792	0.187736
783.103	0.207969
783.413	0.219823
783.724	0.206086
784.034	0.204344
784.345	0.204128
784.655	0.194980
784.966	0.196083
785.276	0.210179
785.586	0.215668
785.896	0.202723
786.207	0.170659
786.517	0.209316
786.827	0.192932
787.137	0.189743
787.447	0.201535
787.757	0.205808
788.066	0.193486
788.376	0.195787
788.686	0.195212
788.996	0.178812
789.305	0.220007
789.615	0.191629
789.925	0.208240
790.234	0.204139
790.544	0.194551
790.853	0.195066
791.162	0.186765
791.472	0.197296
791.781	0.211753
792.090	0.222821
792.399	0.197468
792.708	0.199257
793.017	0.193333
793.326	0.197769
793.635	0.194884
793.944	0.194246
794.253	0.206373
794.562	0.198614
794.871	0.198353
795.179	0.193754
795.488	0.201898
795.797	0.199250
796.105	0.198368
796.414	0.190235
796.722	0.191098
797.031	0.211276
797.339	0.190688
797.647	0.213650
797.956	0.209184
798.264	0.205488
798.572	0.180546
798.880	0.196482
799.188	0.184965
799.496	0.171156
799.804	0.185509
800.112	0.197576
800.420	0.197141
800.728	0.204070
801.035	0.199607
801.343	0.169669
801.651	0.193077
801.958	0.170860
802.266	0.189955
802.573	0.204060
802.881	0.203919
803.188	0.175407
803.496	0.193241
803.803	0.179239
804.110	0.172178
804.417	0.183992
804.724	0.195142
805.032	0.172931
805.339	0.189030
805.646	0.202924
805.953	0.202024
806.259	0.210599
806.566	0.182819
806.873	0.195446
807.180	0.194679
807.486	0.206066
807.793	0.194592
808.100	0.165505
808.406	0.189305
808.713	0.185993
809.019	0.166565
809.326	0.167880
809.632	0.179256
809.938	0.190074
810.244	0.215385
810.551	0.176015
810.857	0.156970
811.163	0.207553
811.469	0.162698
811.775	0.196425
812.081	0.188538
812.387	0.165726
812.692	0.169012
812.998	0.191540
813.304	0.179592
813.610	0.192312
813.915	0.201731
814.221	0.192702
814.526	0.200236
814.832	0.207418
815.137	0.173048
815.443	0.140471
815.748	0.161099
816.053	0.203758
816.358	0.222462
816.664	0.198795
816.969	0.193757
817.274	0.174069
817.579	0.220759
817.884	0.224695
818.189	0.192019
818.493	0.162577
818.798	0.141688
819.103	0.188355
819.408	0.185176
819.712	0.197984
820.017	0.141085
820.321	0.169015
820.626	0.202184
820.930	0.156725
821.235	0.198124
821.539	0.172245
821.843	0.199385
822.148	0.180795
822.452	0.205573
822.756	0.163773
823.060	0.173850
823.364	0.171591
823.668	0.166613
823.972	0.146817
824.276	0.152621
824.580	0.168466
824.883	0.207624
825.187	0.168582
825.491	0.160735
825.795	0.208794
826.098	0.153069
826.402	0.170049
826.705	0.170173
827.008	0.180856
827.312	0.198185
827.615	0.213972
827.918	0.176701
828.222	0.180131
828.525	0.173159
828.828	0.180072
829.131	0.162062
829.434	0.184914
829.737	0.203978
830.040	0.176204
830.343	0.207518
830.645	0.210461
830.948	0.168673
831.251	0.095618
831.553	0.069128
831.856	0.144293
832.159	0.210962
832.461	0.186723
832.764	0.183405
833.066	0.173736
833.368	0.172764
833.671	0.198433
833.973	0.181010
834.275	0.140119
834.577	0.136827
834.879	0.161080
835.181	0.181247
835.483	0.144769
835.785	0.209348
836.087	0.131910
836.389	0.240739
836.690	0.219731
836.992	0.120588
837.294	0.195808
837.595	0.197151
837.897	0.208081
838.198	0.137057
838.500	0.218413
838.801	0.191297
839.103	0.163142
839.404	0.226129
839.705	0.184505
840.006	0.222603
840.307	0.101779
840.608	0.178354
840.910	0.177397
841.210	0.194152
841.511	0.107174
841.812	0.146045
842.113	0.141942
842.414	0.217850
842.715	0.250110
843.015	0.098382
843.316	0.240463
843.616	0.193290
843.917	0.249210
844.217	0.182965
844.518	0.205153
844.818	0.173185
845.118	0.137261
845.419	0.191694
845.719	0.269547
846.019	0.210091
846.319	0.122321
846.619	0.103360
846.919	0.178099
847.219	0.207830
847.519	0.141308
847.819	0.259733
848.118	0.153247
848.418	0.198178
848.718	0.055747
849.017	0.151239
849.317	0.083877
849.616	0.119837
849.916	0.050557
850.215	0.176137
850.515	0.269936
850.814	0.196089
851.113	0.149670
851.412	0.166118
851.712	0.211304
852.011	0.162282
852.310	0.194072
852.609	0.163741
852.908	0.170724
853.206	0.166796
853.505	0.162115
853.804	0.187590
854.103	0.230481
854.401	0.149327
854.700	0.141929
854.999	0.186733
855.297	0.175623
855.595	0.166694
855.894	0.178064
856.192	0.215314
856.491	0.157823
856.789	0.190889
857.087	0.164947
857.385	0.164072
857.683	0.172712
857.981	0.158507
858.279	0.204211
858.577	0.151983
858.875	0.058079
859.173	0.091140
859.471	0.203085
859.768	0.162725
860.066	0.135123
860.363	0.182549
860.661	0.160914
860.959	0.195935
861.256	0.167952
861.553	0.188365
861.851	0.201832
862.148	0.131573
862.445	0.098278
862.742	0.127331
863.039	0.129098
863.337	0.195520
863.634	0.238985
863.931	0.242499
864.227	0.234471
864.524	0.272095
864.821	0.203171
865.118	0.060309
865.415	0.149841
865.711	0.095176
866.008	-0.094513
866.304	0.203883
866.601	0.260440
866.897	0.223635
867.194	0.070768
867.490	0.234006
867.786	0.158459
868.082	0.143972
868.379	0.206036
868.675	0.128572
868.971	0.211605
869.267	0.207301
869.563	0.250642
869.859	0.129122
870.154	0.132918
870.450	0.177104
870.746	0.184459
871.042	0.014637
871.337	0.179721
871.633	0.056319
871.928	0.050377
872.224	0.178657
872.519	0.117818
872.815	0.105186
873.110	-0.052185
873.405	0.131026
873.700	0.139781
873.995	0.150117
874.291	0.262447
874.586	0.123367
874.881	0.240852
875.175	0.271691
875.470	0.066975
875.765	0.133670
876.060	0.091321
876.355	0.030535
876.649	0.306869
876.944	0.206048
877.238	0.088867
877.533	0.053368
877.827	0.107608
878.122	0.199905
878.416	0.277275
878.710	0.240913
879.005	0.200715
879.299	0.237453
879.593	0.161911
879.887	0.148603
880.181	0.133605
880.475	0.169690
880.769	0.127829
881.063	0.264982
881.356	0.096113
881.650	0.177385
881.944	0.177999
882.238	0.233695
882.531	0.237205
882.825	0.162181
883.118	0.191624
883.412	0.198717
883.705	0.173406
883.998	0.106748
884.291	0.122678
884.585	0.131831
884.878	0.240620
>>>>>>>>>> END of Data <<<<<<<<<<
