Date	2021年06月15日火曜日 05時55分54秒
Spectrometers	USB2+H05879
ダーク	使用
リファレンス	使用
積分時間[msec]	10
平均回数	280
ｽﾑｰｼﾞﾝｸﾞ	10
Electrical Dark	USE
ピクセル数	2048
計測モード	吸光度
保存開始波長[nm]	190.664
保存終了波長[nm]	884.878
保存ﾋﾟｯﾁ波長[nm]	全波長

>>>>>>>>>> Data Start <<<<<<<<<<<<
190.664	0.000000
191.040	0.000000
191.415	0.000000
191.791	-2.566391
192.166	-0.551310
192.542	-0.972784
192.917	0.000000
193.293	-0.583947
193.668	-0.641694
194.044	-1.202332
194.419	0.000000
194.794	-1.452251
195.170	-1.353566
195.545	-1.256585
195.920	-1.119398
196.296	-1.001540
196.671	-0.837170
197.046	-0.696328
197.421	-0.635187
197.796	-0.620994
198.171	-0.581038
198.546	-0.534881
198.922	-0.482305
199.297	-0.466176
199.672	-0.435413
200.047	-0.416117
200.422	-0.380463
200.796	-0.369066
201.171	-0.350677
201.546	-0.346366
201.921	-0.334016
202.296	-0.316763
202.671	-0.291835
203.045	-0.272089
203.420	-0.259038
203.795	-0.248354
204.170	-0.246191
204.544	-0.241890
204.919	-0.239233
205.294	-0.239368
205.668	-0.228080
206.043	-0.212124
206.417	-0.215101
206.792	-0.211217
207.166	-0.200099
207.541	-0.209919
207.915	-0.209321
208.289	-0.190484
208.664	-0.184869
209.038	-0.182883
209.412	-0.170655
209.787	-0.157222
210.161	-0.149724
210.535	-0.157507
210.909	-0.147812
211.284	-0.147238
211.658	-0.146861
212.032	-0.146833
212.406	-0.153414
212.780	-0.147728
213.154	-0.149055
213.528	-0.148485
213.902	-0.143628
214.276	-0.136274
214.650	-0.137648
215.024	-0.138101
215.398	-0.133876
215.772	-0.123309
216.145	-0.128841
216.519	-0.123605
216.893	-0.118011
217.267	-0.117426
217.640	-0.121315
218.014	-0.107717
218.388	-0.095441
218.761	-0.105167
219.135	-0.092446
219.508	-0.096453
219.882	-0.094624
220.256	-0.084902
220.629	-0.082990
221.003	-0.078317
221.376	-0.078837
221.749	-0.085738
222.123	-0.084699
222.496	-0.087520
222.869	-0.083233
223.243	-0.075290
223.616	-0.077263
223.989	-0.084890
224.362	-0.085252
224.736	-0.087756
225.109	-0.085783
225.482	-0.084129
225.855	-0.088622
226.228	-0.090721
226.601	-0.090014
226.974	-0.084569
227.347	-0.082698
227.720	-0.080688
228.093	-0.083247
228.466	-0.088829
228.839	-0.093559
229.212	-0.097356
229.585	-0.109325
229.957	-0.104946
230.330	-0.096750
230.703	-0.093426
231.076	-0.099706
231.448	-0.101030
231.821	-0.098687
232.194	-0.095844
232.566	-0.102687
232.939	-0.109012
233.311	-0.113022
233.684	-0.106991
234.056	-0.108280
234.429	-0.101916
234.801	-0.106615
235.174	-0.103887
235.546	-0.104251
235.918	-0.105944
236.291	-0.102979
236.663	-0.092927
237.035	-0.091142
237.408	-0.071084
237.780	-0.062764
238.152	-0.062669
238.524	-0.068073
238.896	-0.054159
239.268	-0.053698
239.641	-0.057495
240.013	-0.052152
240.385	-0.041883
240.757	-0.037283
241.129	-0.032755
241.500	-0.039741
241.872	-0.030781
242.244	-0.031401
242.616	-0.034261
242.988	-0.028982
243.360	-0.026890
243.731	-0.015581
244.103	-0.012163
244.475	-0.016763
244.847	-0.006338
245.218	-0.013911
245.590	-0.019254
245.961	-0.019088
246.333	-0.017576
246.705	-0.025763
247.076	-0.021010
247.448	-0.011380
247.819	-0.016382
248.190	-0.010891
248.562	-0.013526
248.933	-0.009578
249.305	-0.005515
249.676	-0.010232
250.047	-0.016353
250.418	-0.015986
250.790	-0.014574
251.161	-0.013772
251.532	-0.019846
251.903	-0.022224
252.274	-0.013240
252.645	-0.009821
253.016	-0.011491
253.387	-0.018928
253.758	-0.022202
254.129	-0.019285
254.500	-0.012778
254.871	-0.010673
255.242	-0.012885
255.613	-0.010115
255.984	-0.014618
256.355	-0.007674
256.725	-0.006822
257.096	-0.007667
257.467	-0.006747
257.838	-0.000783
258.208	0.002040
258.579	0.000948
258.949	-0.000612
259.320	-0.001686
259.690	0.004520
260.061	0.005704
260.431	0.004421
260.802	0.006872
261.172	0.007132
261.543	0.013076
261.913	0.009931
262.283	0.004097
262.654	0.001076
263.024	0.003512
263.394	0.001295
263.764	0.004680
264.135	0.005407
264.505	0.005584
264.875	0.014044
265.245	0.015182
265.615	0.012754
265.985	0.011735
266.355	0.014780
266.725	0.016056
267.095	0.021076
267.465	0.023703
267.835	0.015807
268.205	0.010706
268.575	0.014848
268.944	0.021731
269.314	0.016946
269.684	0.015277
270.054	0.010084
270.423	0.018133
270.793	0.015594
271.163	0.019219
271.532	0.022581
271.902	0.027679
272.271	0.031285
272.641	0.027338
273.010	0.023727
273.380	0.024219
273.749	0.025157
274.119	0.026279
274.488	0.034083
274.857	0.035498
275.227	0.030384
275.596	0.027144
275.965	0.035405
276.335	0.034001
276.704	0.031100
277.073	0.032905
277.442	0.038556
277.811	0.044027
278.180	0.041315
278.549	0.040306
278.918	0.040942
279.287	0.038119
279.656	0.035353
280.025	0.033574
280.394	0.034403
280.763	0.041723
281.132	0.049720
281.501	0.055863
281.869	0.057068
282.238	0.055437
282.607	0.049399
282.976	0.049852
283.344	0.059409
283.713	0.054959
284.081	0.053382
284.450	0.062480
284.819	0.067807
285.187	0.072552
285.556	0.073729
285.924	0.069763
286.292	0.069869
286.661	0.066144
287.029	0.060569
287.398	0.063277
287.766	0.063122
288.134	0.064044
288.502	0.063981
288.871	0.065357
289.239	0.063702
289.607	0.065387
289.975	0.061326
290.343	0.070541
290.711	0.069511
291.079	0.068365
291.447	0.072871
291.815	0.074960
292.183	0.074830
292.551	0.075556
292.919	0.077745
293.287	0.081336
293.655	0.083833
294.022	0.086079
294.390	0.091675
294.758	0.097171
295.126	0.091466
295.493	0.094434
295.861	0.096749
296.229	0.092754
296.596	0.093948
296.964	0.094592
297.331	0.097299
297.699	0.102815
298.066	0.101363
298.434	0.109854
298.801	0.114190
299.168	0.110972
299.536	0.116746
299.903	0.113912
300.270	0.117666
300.638	0.122623
301.005	0.129828
301.372	0.137100
301.739	0.136696
302.106	0.141241
302.473	0.152544
302.840	0.166587
303.207	0.181636
303.574	0.193848
303.941	0.211893
304.308	0.221467
304.675	0.233527
305.042	0.249984
305.409	0.269779
305.776	0.286350
306.143	0.302611
306.509	0.322071
306.876	0.345245
307.243	0.367871
307.610	0.393585
307.976	0.418645
308.343	0.443391
308.709	0.475989
309.076	0.504706
309.442	0.541698
309.809	0.573546
310.175	0.602732
310.542	0.625477
310.908	0.650295
311.275	0.670307
311.641	0.697864
312.007	0.730650
312.373	0.764154
312.740	0.788179
313.106	0.815395
313.472	0.850273
313.838	0.877886
314.204	0.902125
314.570	0.928426
314.936	0.952398
315.302	0.980324
315.668	1.000655
316.034	1.027054
316.400	1.051657
316.766	1.070794
317.132	1.094990
317.498	1.119055
317.864	1.138176
318.230	1.163937
318.595	1.180961
318.961	1.205270
319.327	1.220751
319.692	1.231197
320.058	1.235697
320.424	1.248554
320.789	1.263268
321.155	1.276007
321.520	1.292610
321.886	1.315812
322.251	1.329070
322.616	1.341803
322.982	1.354043
323.347	1.366287
323.712	1.377134
324.078	1.382910
324.443	1.390230
324.808	1.393914
325.173	1.402019
325.539	1.409675
325.904	1.414891
326.269	1.421005
326.634	1.425520
326.999	1.431761
327.364	1.438808
327.729	1.449947
328.094	1.455819
328.459	1.461390
328.823	1.465474
329.188	1.469983
329.553	1.469380
329.918	1.474275
330.283	1.480812
330.647	1.486910
331.012	1.491746
331.377	1.495386
331.741	1.497766
332.106	1.504853
332.470	1.507659
332.835	1.509183
333.199	1.511881
333.564	1.516634
333.928	1.520500
334.293	1.523702
334.657	1.526249
335.021	1.528651
335.386	1.529669
335.750	1.530368
336.114	1.531363
336.478	1.531891
336.843	1.530876
337.207	1.531244
337.571	1.533159
337.935	1.533296
338.299	1.530404
338.663	1.528752
339.027	1.530924
339.391	1.532050
339.755	1.531963
340.119	1.532468
340.483	1.532038
340.846	1.532900
341.210	1.532842
341.574	1.533222
341.938	1.532927
342.301	1.533395
342.665	1.534341
343.029	1.533783
343.392	1.535195
343.756	1.534577
344.119	1.535045
344.483	1.535888
344.846	1.536334
345.210	1.535763
345.573	1.532855
345.937	1.532697
346.300	1.532476
346.663	1.530220
347.027	1.530297
347.390	1.530267
347.753	1.529357
348.116	1.528801
348.479	1.529868
348.843	1.529078
349.206	1.528533
349.569	1.528072
349.932	1.527765
350.295	1.527085
350.658	1.528034
351.021	1.528249
351.383	1.528903
351.746	1.528682
352.109	1.529771
352.472	1.529419
352.835	1.529155
353.197	1.531506
353.560	1.533479
353.923	1.533343
354.285	1.533204
354.648	1.532818
355.011	1.531154
355.373	1.532833
355.736	1.533044
356.098	1.531444
356.461	1.532043
356.823	1.531176
357.185	1.533168
357.548	1.533393
357.910	1.532770
358.272	1.531837
358.635	1.531539
358.997	1.531176
359.359	1.531948
359.721	1.531098
360.083	1.532029
360.445	1.533209
360.807	1.532785
361.169	1.532042
361.531	1.533199
361.893	1.534102
362.255	1.535345
362.617	1.537334
362.979	1.537790
363.341	1.537869
363.703	1.538239
364.064	1.538587
364.426	1.540370
364.788	1.538993
365.149	1.539823
365.511	1.540694
365.873	1.541231
366.234	1.541459
366.596	1.542134
366.957	1.542596
367.319	1.543198
367.680	1.543509
368.042	1.542183
368.403	1.542372
368.764	1.543735
369.126	1.544073
369.487	1.544379
369.848	1.543197
370.209	1.543461
370.570	1.543077
370.931	1.544414
371.293	1.545184
371.654	1.545661
372.015	1.546095
372.376	1.547160
372.737	1.546885
373.098	1.547561
373.458	1.548176
373.819	1.549630
374.180	1.551109
374.541	1.550979
374.902	1.551866
375.263	1.552684
375.623	1.553591
375.984	1.555657
376.345	1.555424
376.705	1.556982
377.066	1.557650
377.426	1.558856
377.787	1.559772
378.147	1.561308
378.508	1.561714
378.868	1.562959
379.228	1.563380
379.589	1.563701
379.949	1.564722
380.309	1.565922
380.670	1.566660
381.030	1.567576
381.390	1.567980
381.750	1.567077
382.110	1.567584
382.470	1.568048
382.830	1.568246
383.190	1.569628
383.550	1.569744
383.910	1.571147
384.270	1.571232
384.630	1.571537
384.990	1.573209
385.350	1.573862
385.709	1.573724
386.069	1.574895
386.429	1.575270
386.788	1.576621
387.148	1.577592
387.508	1.578895
387.867	1.579856
388.227	1.580332
388.586	1.581382
388.946	1.582712
389.305	1.584628
389.665	1.586517
390.024	1.587669
390.383	1.589273
390.743	1.589662
391.102	1.590206
391.461	1.590672
391.820	1.592483
392.179	1.593774
392.539	1.594307
392.898	1.595345
393.257	1.597101
393.616	1.598740
393.975	1.599339
394.334	1.599909
394.693	1.601770
395.051	1.603078
395.410	1.604180
395.769	1.606150
396.128	1.607212
396.487	1.608071
396.845	1.609027
397.204	1.609264
397.563	1.609875
397.921	1.609302
398.280	1.610309
398.638	1.610239
398.997	1.610823
399.355	1.609946
399.714	1.610502
400.072	1.610303
400.431	1.609648
400.789	1.609937
401.147	1.609943
401.506	1.610211
401.864	1.610511
402.222	1.610179
402.580	1.608298
402.938	1.608970
403.297	1.608585
403.655	1.608771
404.013	1.608652
404.371	1.608655
404.729	1.608700
405.087	1.608940
405.444	1.610471
405.802	1.610347
406.160	1.611652
406.518	1.611366
406.876	1.612186
407.233	1.612219
407.591	1.613064
407.949	1.613883
408.306	1.613485
408.664	1.613937
409.022	1.615249
409.379	1.615409
409.737	1.615306
410.094	1.616484
410.451	1.616394
410.809	1.616730
411.166	1.616362
411.523	1.617390
411.881	1.617877
412.238	1.618221
412.595	1.617511
412.952	1.617611
413.310	1.618448
413.667	1.619116
414.024	1.620937
414.381	1.621280
414.738	1.621371
415.095	1.621158
415.452	1.622326
415.809	1.622447
416.165	1.622504
416.522	1.621693
416.879	1.622041
417.236	1.622159
417.593	1.622439
417.949	1.621850
418.306	1.621946
418.663	1.623787
419.019	1.623164
419.376	1.622462
419.732	1.621437
420.089	1.622399
420.445	1.621934
420.802	1.622158
421.158	1.621115
421.514	1.620348
421.871	1.619864
422.227	1.619542
422.583	1.620070
422.939	1.618831
423.295	1.618927
423.652	1.618095
424.008	1.617758
424.364	1.617960
424.720	1.618589
425.076	1.618663
425.432	1.618701
425.788	1.618664
426.143	1.618526
426.499	1.619117
426.855	1.619924
427.211	1.621135
427.567	1.620732
427.922	1.620593
428.278	1.618863
428.634	1.619865
428.989	1.618813
429.345	1.618572
429.700	1.618657
430.056	1.618248
430.411	1.618929
430.767	1.619124
431.122	1.618581
431.478	1.617935
431.833	1.616974
432.188	1.615068
432.543	1.614757
432.899	1.613789
433.254	1.612359
433.609	1.610342
433.964	1.608698
434.319	1.607117
434.674	1.606123
435.029	1.605561
435.384	1.604417
435.739	1.604280
436.094	1.603453
436.449	1.603726
436.804	1.602843
437.158	1.601874
437.513	1.601142
437.868	1.599867
438.223	1.598775
438.577	1.597912
438.932	1.598145
439.287	1.597076
439.641	1.596412
439.996	1.594707
440.350	1.593786
440.704	1.593533
441.059	1.592990
441.413	1.591553
441.768	1.590321
442.122	1.589217
442.476	1.587412
442.830	1.586373
443.185	1.585710
443.539	1.583825
443.893	1.581784
444.247	1.579693
444.601	1.578626
444.955	1.576105
445.309	1.573989
445.663	1.571586
446.017	1.569834
446.371	1.566957
446.724	1.564246
447.078	1.562079
447.432	1.560104
447.786	1.557835
448.139	1.554646
448.493	1.551328
448.847	1.549057
449.200	1.546290
449.554	1.543175
449.907	1.541078
450.261	1.538044
450.614	1.534267
450.968	1.531029
451.321	1.527816
451.674	1.525020
452.027	1.521361
452.381	1.518354
452.734	1.515325
453.087	1.512643
453.440	1.509429
453.793	1.506484
454.146	1.503467
454.499	1.500084
454.852	1.496255
455.205	1.492520
455.558	1.489639
455.911	1.486074
456.264	1.482156
456.617	1.478839
456.970	1.475777
457.322	1.472343
457.675	1.469484
458.028	1.466758
458.380	1.463358
458.733	1.460479
459.086	1.457669
459.438	1.454342
459.791	1.451250
460.143	1.448425
460.496	1.445141
460.848	1.441500
461.200	1.437993
461.553	1.434601
461.905	1.432198
462.257	1.429114
462.609	1.426455
462.961	1.423289
463.314	1.420684
463.666	1.417590
464.018	1.413817
464.370	1.410706
464.722	1.407672
465.074	1.403706
465.426	1.400538
465.777	1.397686
466.129	1.394605
466.481	1.391263
466.833	1.388381
467.184	1.385413
467.536	1.381836
467.888	1.378571
468.239	1.375660
468.591	1.371898
468.943	1.368057
469.294	1.363543
469.646	1.359820
469.997	1.355693
470.348	1.352027
470.700	1.348592
471.051	1.345599
471.402	1.343008
471.754	1.339789
472.105	1.336607
472.456	1.333785
472.807	1.330349
473.158	1.327493
473.509	1.324962
473.860	1.322090
474.211	1.319363
474.562	1.316699
474.913	1.313913
475.264	1.311081
475.615	1.308071
475.966	1.305885
476.316	1.303287
476.667	1.300696
477.018	1.298170
477.368	1.295569
477.719	1.292640
478.070	1.289815
478.420	1.287127
478.771	1.284387
479.121	1.281735
479.472	1.278982
479.822	1.276595
480.172	1.274486
480.523	1.271818
480.873	1.268733
481.223	1.265432
481.573	1.261694
481.924	1.258194
482.274	1.254761
482.624	1.252223
482.974	1.249891
483.324	1.247953
483.674	1.246641
484.024	1.245387
484.374	1.244131
484.724	1.242587
485.073	1.241083
485.423	1.239535
485.773	1.237769
486.123	1.236201
486.472	1.234341
486.822	1.232641
487.172	1.230982
487.521	1.229162
487.871	1.227404
488.220	1.225634
488.570	1.223838
488.919	1.221807
489.268	1.219337
489.618	1.216706
489.967	1.213098
490.316	1.209253
490.666	1.205063
491.015	1.200630
491.364	1.196479
491.713	1.192496
492.062	1.189209
492.411	1.186175
492.760	1.182985
493.109	1.180159
493.458	1.177227
493.807	1.174614
494.156	1.171818
494.505	1.169077
494.853	1.166296
495.202	1.163510
495.551	1.160598
495.900	1.157909
496.248	1.155135
496.597	1.152340
496.945	1.149769
497.294	1.147197
497.642	1.144534
497.991	1.141618
498.339	1.138725
498.688	1.135841
499.036	1.133304
499.384	1.130767
499.732	1.128054
500.081	1.125526
500.429	1.122932
500.777	1.120339
501.125	1.117756
501.473	1.115137
501.821	1.112536
502.169	1.110025
502.517	1.107515
502.865	1.105071
503.213	1.102423
503.561	1.100027
503.908	1.097646
504.256	1.094981
504.604	1.092464
504.952	1.089927
505.299	1.087528
505.647	1.085236
505.994	1.082899
506.342	1.080247
506.689	1.077631
507.037	1.075207
507.384	1.072779
507.732	1.070345
508.079	1.067915
508.426	1.065726
508.774	1.063341
509.121	1.060950
509.468	1.058707
509.815	1.056331
510.162	1.053944
510.509	1.051657
510.856	1.049357
511.203	1.047067
511.550	1.044825
511.897	1.042499
512.244	1.040233
512.591	1.037952
512.938	1.035845
513.284	1.033615
513.631	1.031534
513.978	1.029202
514.324	1.027006
514.671	1.024850
515.018	1.022692
515.364	1.020588
515.711	1.018174
516.057	1.015992
516.403	1.013924
516.750	1.011840
517.096	1.009895
517.443	1.007927
517.789	1.006086
518.135	1.004073
518.481	1.002183
518.827	1.000373
519.173	0.998586
519.519	0.996767
519.865	0.994859
520.211	0.992793
520.557	0.990714
520.903	0.988684
521.249	0.986955
521.595	0.985133
521.941	0.983211
522.287	0.981076
522.632	0.979026
522.978	0.977182
523.324	0.975347
523.669	0.973335
524.015	0.971293
524.360	0.969263
524.706	0.967309
525.051	0.965253
525.397	0.963274
525.742	0.961338
526.087	0.959417
526.433	0.957521
526.778	0.955784
527.123	0.954116
527.468	0.952288
527.813	0.950877
528.158	0.949080
528.504	0.947221
528.849	0.945191
529.193	0.943140
529.538	0.941458
529.883	0.939361
530.228	0.937214
530.573	0.935209
530.918	0.933245
531.263	0.931240
531.607	0.929228
531.952	0.927400
532.296	0.925529
532.641	0.923749
532.986	0.921788
533.330	0.919748
533.675	0.917835
534.019	0.915758
534.363	0.913534
534.708	0.911481
535.052	0.909132
535.396	0.907126
535.741	0.905193
536.085	0.903112
536.429	0.901121
536.773	0.898895
537.117	0.896866
537.461	0.894671
537.805	0.892130
538.149	0.889670
538.493	0.887298
538.837	0.884956
539.181	0.882362
539.524	0.879679
539.868	0.877036
540.212	0.874523
540.556	0.872020
540.899	0.869513
541.243	0.867047
541.586	0.864559
541.930	0.861903
542.273	0.859549
542.617	0.856995
542.960	0.854211
543.304	0.851386
543.647	0.848487
543.990	0.845395
544.333	0.842321
544.677	0.839318
545.020	0.836570
545.363	0.833686
545.706	0.830770
546.049	0.827946
546.392	0.825156
546.735	0.822352
547.078	0.819327
547.421	0.816204
547.764	0.813018
548.106	0.809617
548.449	0.806021
548.792	0.802542
549.135	0.799146
549.477	0.795465
549.820	0.791920
550.162	0.788469
550.505	0.784998
550.847	0.781452
551.190	0.777828
551.532	0.774014
551.875	0.769979
552.217	0.765855
552.559	0.761733
552.901	0.757742
553.244	0.753709
553.586	0.749801
553.928	0.746063
554.270	0.742452
554.612	0.738828
554.954	0.735125
555.296	0.731299
555.638	0.727401
555.980	0.723227
556.322	0.718789
556.663	0.714262
557.005	0.709561
557.347	0.704987
557.689	0.700450
558.030	0.696069
558.372	0.691677
558.713	0.687353
559.055	0.683164
559.396	0.678814
559.738	0.674382
560.079	0.669763
560.421	0.665222
560.762	0.660657
561.103	0.656168
561.444	0.651772
561.786	0.647407
562.127	0.643195
562.468	0.638877
562.809	0.634533
563.150	0.629959
563.491	0.625391
563.832	0.620538
564.173	0.615614
564.514	0.610454
564.855	0.605135
565.195	0.599538
565.536	0.594040
565.877	0.588557
566.218	0.583200
566.558	0.578024
566.899	0.573084
567.239	0.568344
567.580	0.563975
567.920	0.559994
568.261	0.556290
568.601	0.552814
568.941	0.549452
569.282	0.546239
569.622	0.543028
569.962	0.539792
570.302	0.536557
570.643	0.533372
570.983	0.530399
571.323	0.527560
571.663	0.524879
572.003	0.522200
572.343	0.519563
572.683	0.516793
573.022	0.513821
573.362	0.510638
573.702	0.507352
574.042	0.504088
574.381	0.500971
574.721	0.497964
575.061	0.495094
575.400	0.492428
575.740	0.489818
576.079	0.487233
576.419	0.484507
576.758	0.481566
577.097	0.478443
577.437	0.475153
577.776	0.471813
578.115	0.468506
578.454	0.465402
578.794	0.462654
579.133	0.460345
579.472	0.458312
579.811	0.456477
580.150	0.454668
580.489	0.452737
580.828	0.450609
581.167	0.448273
581.505	0.445847
581.844	0.443390
582.183	0.440939
582.522	0.438550
582.860	0.436272
583.199	0.434106
583.538	0.432053
583.876	0.430112
584.215	0.428245
584.553	0.426433
584.891	0.424683
585.230	0.422927
585.568	0.421102
585.906	0.419081
586.245	0.416899
586.583	0.414674
586.921	0.412509
587.259	0.410531
587.597	0.408768
587.935	0.407040
588.273	0.405266
588.611	0.403232
588.949	0.400997
589.287	0.398573
589.625	0.396033
589.963	0.393560
590.300	0.391224
590.638	0.389049
590.976	0.387038
591.313	0.385045
591.651	0.383080
591.989	0.381117
592.326	0.379215
592.664	0.377409
593.001	0.375660
593.338	0.374076
593.676	0.372591
594.013	0.371103
594.350	0.369585
594.687	0.368047
595.025	0.366638
595.362	0.365245
595.699	0.363885
596.036	0.362567
596.373	0.361297
596.710	0.360029
597.047	0.358712
597.384	0.357353
597.720	0.355944
598.057	0.354510
598.394	0.353054
598.731	0.351572
599.067	0.350065
599.404	0.348477
599.741	0.346926
600.077	0.345471
600.414	0.344111
600.750	0.342916
601.087	0.341851
601.423	0.340865
601.759	0.339927
602.096	0.338911
602.432	0.337951
602.768	0.336963
603.104	0.335961
603.440	0.334972
603.776	0.334016
604.112	0.332996
604.448	0.331996
604.784	0.331029
605.120	0.330049
605.456	0.329089
605.792	0.328147
606.128	0.327224
606.463	0.326383
606.799	0.325433
607.135	0.324457
607.470	0.323512
607.806	0.322545
608.142	0.321542
608.477	0.320583
608.812	0.319641
609.148	0.318784
609.483	0.317907
609.819	0.317053
610.154	0.316126
610.489	0.315151
610.824	0.314154
611.159	0.313225
611.494	0.312290
611.830	0.311440
612.165	0.310685
612.500	0.309982
612.834	0.309359
613.169	0.308772
613.504	0.308135
613.839	0.307535
614.174	0.306926
614.509	0.306243
614.843	0.305535
615.178	0.304878
615.512	0.304229
615.847	0.303582
616.182	0.302941
616.516	0.302369
616.850	0.301843
617.185	0.301367
617.519	0.300895
617.853	0.300477
618.188	0.299877
618.522	0.299182
618.856	0.298328
619.190	0.297421
619.524	0.296482
619.858	0.295546
620.192	0.294624
620.526	0.293820
620.860	0.293181
621.194	0.292549
621.528	0.291920
621.862	0.291344
622.195	0.290825
622.529	0.290236
622.863	0.289600
623.196	0.289002
623.530	0.288412
623.864	0.287839
624.197	0.287275
624.530	0.286651
624.864	0.286038
625.197	0.285600
625.531	0.285150
625.864	0.284774
626.197	0.284346
626.530	0.283976
626.863	0.283546
627.196	0.283105
627.529	0.282666
627.862	0.282086
628.195	0.281569
628.528	0.281000
628.861	0.280353
629.194	0.279757
629.527	0.279148
629.860	0.278663
630.192	0.278091
630.525	0.277548
630.858	0.276896
631.190	0.276276
631.523	0.275659
631.855	0.274784
632.188	0.273953
632.520	0.273233
632.852	0.272544
633.185	0.271896
633.517	0.271287
633.849	0.270683
634.182	0.270153
634.514	0.269559
634.846	0.269093
635.178	0.268556
635.510	0.268056
635.842	0.267564
636.174	0.266992
636.506	0.266581
636.837	0.266124
637.169	0.265741
637.501	0.265263
637.833	0.265015
638.164	0.264666
638.496	0.264404
638.828	0.264178
639.159	0.263850
639.491	0.263527
639.822	0.263117
640.154	0.262661
640.485	0.262088
640.816	0.261504
641.147	0.260928
641.479	0.260273
641.810	0.259653
642.141	0.259103
642.472	0.258582
642.803	0.257986
643.134	0.257441
643.465	0.256777
643.796	0.256121
644.127	0.255461
644.458	0.254809
644.789	0.253908
645.119	0.253246
645.450	0.252589
645.781	0.252384
646.111	0.252278
646.442	0.252273
646.773	0.252326
647.103	0.252428
647.433	0.252477
647.764	0.252538
648.094	0.252321
648.425	0.252125
648.755	0.251848
649.085	0.251541
649.415	0.251392
649.745	0.251411
650.075	0.251516
650.405	0.251567
650.735	0.249598
651.065	0.236541
651.395	0.220532
651.725	0.200662
652.055	0.160172
652.385	0.121013
652.715	0.094427
653.044	0.076447
653.374	0.063498
653.704	0.068001
654.033	0.084801
654.363	0.095565
654.692	0.102369
655.022	0.106703
655.351	0.109493
655.680	0.111234
656.010	0.112222
656.339	0.112705
656.668	0.112882
656.997	0.112889
657.326	0.112792
657.655	0.112629
657.984	0.111651
658.313	0.107367
658.642	0.101754
658.971	0.106524
659.300	0.122838
659.629	0.147309
659.958	0.182724
660.286	0.238824
660.615	0.282225
660.944	0.285688
661.272	0.284365
661.601	0.279384
661.929	0.272052
662.258	0.264100
662.586	0.256579
662.915	0.250498
663.243	0.246129
663.571	0.243172
663.899	0.241240
664.228	0.239953
664.556	0.238978
664.884	0.238240
665.212	0.237655
665.540	0.237120
665.868	0.236685
666.196	0.236284
666.524	0.235994
666.852	0.235690
667.179	0.235263
667.507	0.234749
667.835	0.234284
668.162	0.233867
668.490	0.233309
668.818	0.232893
669.145	0.232626
669.473	0.232450
669.800	0.232447
670.127	0.232597
670.455	0.232726
670.782	0.232937
671.109	0.233023
671.436	0.233141
671.764	0.233309
672.091	0.233350
672.418	0.233371
672.745	0.233324
673.072	0.233265
673.399	0.233151
673.726	0.233081
674.053	0.232881
674.379	0.232876
674.706	0.232683
675.033	0.232458
675.359	0.232428
675.686	0.232250
676.013	0.232032
676.339	0.231691
676.666	0.231186
676.992	0.230703
677.318	0.230334
677.645	0.229938
677.971	0.229695
678.297	0.229579
678.624	0.229451
678.950	0.229326
679.276	0.229274
679.602	0.229147
679.928	0.228971
680.254	0.228742
680.580	0.228407
680.906	0.228113
681.232	0.227754
681.558	0.227638
681.883	0.227607
682.209	0.227609
682.535	0.227711
682.860	0.227887
683.186	0.228121
683.511	0.228301
683.837	0.228347
684.162	0.228333
684.488	0.228346
684.813	0.228302
685.138	0.228164
685.464	0.228048
685.789	0.227886
686.114	0.227770
686.439	0.227690
686.764	0.227627
687.089	0.227573
687.414	0.227571
687.739	0.227667
688.064	0.227769
688.389	0.227841
688.714	0.227823
689.039	0.227732
689.363	0.227650
689.688	0.227473
690.013	0.227209
690.337	0.226991
690.662	0.226786
690.986	0.226686
691.311	0.226576
691.635	0.226422
691.959	0.226294
692.284	0.225971
692.608	0.225627
692.932	0.225295
693.256	0.225020
693.580	0.224784
693.904	0.224585
694.228	0.224477
694.552	0.224458
694.876	0.224545
695.200	0.224694
695.524	0.224816
695.848	0.224925
696.172	0.224911
696.495	0.224792
696.819	0.224615
697.143	0.224362
697.466	0.224153
697.790	0.223762
698.113	0.223345
698.437	0.222893
698.760	0.222425
699.083	0.222215
699.407	0.222136
699.730	0.222105
700.053	0.222140
700.376	0.222220
700.699	0.222277
701.022	0.222311
701.345	0.222127
701.668	0.221813
701.991	0.221251
702.314	0.220325
702.637	0.219255
702.960	0.218112
703.283	0.217135
703.605	0.216182
703.928	0.215503
704.251	0.215009
704.573	0.214766
704.896	0.214732
705.218	0.214819
705.540	0.214997
705.863	0.214960
706.185	0.214995
706.507	0.214752
706.830	0.214412
707.152	0.213954
707.474	0.213495
707.796	0.212953
708.118	0.212534
708.440	0.212154
708.762	0.211946
709.084	0.211880
709.406	0.211824
709.728	0.211958
710.049	0.211917
710.371	0.211876
710.693	0.211767
711.014	0.211533
711.336	0.211302
711.658	0.210999
711.979	0.210719
712.301	0.210370
712.622	0.210222
712.943	0.209985
713.265	0.209996
713.586	0.209887
713.907	0.209902
714.228	0.209930
714.549	0.209932
714.870	0.209883
715.191	0.209825
715.512	0.209657
715.833	0.209719
716.154	0.209699
716.475	0.209593
716.796	0.209550
717.117	0.209508
717.437	0.209349
717.758	0.209126
718.078	0.208852
718.399	0.208597
718.719	0.208218
719.040	0.207857
719.360	0.207381
719.681	0.206961
720.001	0.206422
720.321	0.206077
720.642	0.205592
720.962	0.205078
721.282	0.204730
721.602	0.204398
721.922	0.204094
722.242	0.203717
722.562	0.203371
722.882	0.203044
723.202	0.202891
723.521	0.202853
723.841	0.202870
724.161	0.202910
724.481	0.202963
724.800	0.202922
725.120	0.202660
725.439	0.202467
725.759	0.202221
726.078	0.202025
726.398	0.201744
726.717	0.201554
727.036	0.201434
727.355	0.201480
727.675	0.201633
727.994	0.201704
728.313	0.201925
728.632	0.202103
728.951	0.202364
729.270	0.202391
729.589	0.202446
729.908	0.202251
730.226	0.201930
730.545	0.201583
730.864	0.201221
731.182	0.200882
731.501	0.200685
731.820	0.200626
732.138	0.200636
732.457	0.200640
732.775	0.200619
733.093	0.200658
733.412	0.200686
733.730	0.200688
734.048	0.200631
734.367	0.200515
734.685	0.200445
735.003	0.200080
735.321	0.199769
735.639	0.199435
735.957	0.199139
736.275	0.198806
736.593	0.198672
736.910	0.198639
737.228	0.198766
737.546	0.198890
737.863	0.199038
738.181	0.198996
738.499	0.198853
738.816	0.198575
739.134	0.198343
739.451	0.198106
739.768	0.197906
740.086	0.197618
740.403	0.197344
740.720	0.196999
741.038	0.196622
741.355	0.196194
741.672	0.195855
741.989	0.195493
742.306	0.195055
742.623	0.194738
742.940	0.194343
743.257	0.193751
743.573	0.193146
743.890	0.192298
744.207	0.191516
744.523	0.190807
744.840	0.190140
745.157	0.189553
745.473	0.189033
745.790	0.188463
746.106	0.187957
746.422	0.187276
746.739	0.186813
747.055	0.186301
747.371	0.185972
747.687	0.185914
748.004	0.185877
748.320	0.185888
748.636	0.185924
748.952	0.185964
749.268	0.185832
749.584	0.185886
749.899	0.185797
750.215	0.185721
750.531	0.185518
750.847	0.185403
751.162	0.185305
751.478	0.185242
751.793	0.185138
752.109	0.184966
752.424	0.184827
752.740	0.184625
753.055	0.184523
753.370	0.184298
753.686	0.184250
754.001	0.184283
754.316	0.184195
754.631	0.184112
754.946	0.184147
755.261	0.184150
755.576	0.184146
755.891	0.184176
756.206	0.184066
756.521	0.184024
756.836	0.183866
757.150	0.183862
757.465	0.183829
757.780	0.183842
758.094	0.183905
758.409	0.184023
758.723	0.184208
759.038	0.184277
759.352	0.184410
759.667	0.184457
759.981	0.184429
760.295	0.184147
760.609	0.183775
760.923	0.183467
761.238	0.183185
761.552	0.182807
761.866	0.182460
762.180	0.182316
762.493	0.182279
762.807	0.182267
763.121	0.182333
763.435	0.182466
763.749	0.182380
764.062	0.182263
764.376	0.181850
764.689	0.181372
765.003	0.180824
765.316	0.180211
765.630	0.179872
765.943	0.179506
766.257	0.179272
766.570	0.179067
766.883	0.179005
767.196	0.178932
767.509	0.178748
767.822	0.178479
768.135	0.178271
768.448	0.178055
768.761	0.177588
769.074	0.177156
769.387	0.176781
769.700	0.176278
770.013	0.175817
770.325	0.175511
770.638	0.175276
770.950	0.175180
771.263	0.175122
771.575	0.175059
771.888	0.175032
772.200	0.174843
772.513	0.174559
772.825	0.174202
773.137	0.173908
773.449	0.173644
773.761	0.173229
774.074	0.172764
774.386	0.172373
774.698	0.171852
775.010	0.171218
775.321	0.170601
775.633	0.169824
775.945	0.169317
776.257	0.168942
776.568	0.168538
776.880	0.168247
777.192	0.167929
777.503	0.167754
777.815	0.167476
778.126	0.167284
778.438	0.167224
778.749	0.167272
779.060	0.167428
779.372	0.167535
779.683	0.167640
779.994	0.167623
780.305	0.167779
780.616	0.167978
780.927	0.168064
781.238	0.168060
781.549	0.168225
781.860	0.168382
782.171	0.168568
782.481	0.168569
782.792	0.168500
783.103	0.168490
783.413	0.168380
783.724	0.168166
784.034	0.167944
784.345	0.167741
784.655	0.167366
784.966	0.166978
785.276	0.166677
785.586	0.166292
785.896	0.166019
786.207	0.165803
786.517	0.165725
786.827	0.165523
787.137	0.165326
787.447	0.165095
787.757	0.165118
788.066	0.164971
788.376	0.164871
788.686	0.164728
788.996	0.164565
789.305	0.164363
789.615	0.164087
789.925	0.163798
790.234	0.163582
790.544	0.163510
790.853	0.163307
791.162	0.163310
791.472	0.163351
791.781	0.163402
792.090	0.163581
792.399	0.163569
792.708	0.163406
793.017	0.163294
793.326	0.163130
793.635	0.162953
793.944	0.162690
794.253	0.162298
794.562	0.161944
794.871	0.161632
795.179	0.161338
795.488	0.161175
795.797	0.161095
796.105	0.161008
796.414	0.161068
796.722	0.161083
797.031	0.160870
797.339	0.160737
797.647	0.160480
797.956	0.159995
798.264	0.159268
798.572	0.158548
798.880	0.157936
799.188	0.157329
799.496	0.156608
799.804	0.156115
800.112	0.155479
800.420	0.155251
800.728	0.155176
801.035	0.154862
801.343	0.154445
801.651	0.153885
801.958	0.153250
802.266	0.152790
802.573	0.152575
802.881	0.152372
803.188	0.152044
803.496	0.151929
803.803	0.152025
804.110	0.152192
804.417	0.152383
804.724	0.152422
805.032	0.152214
805.339	0.152006
805.646	0.151980
805.953	0.151828
806.259	0.151724
806.566	0.151668
806.873	0.151575
807.180	0.151504
807.486	0.151556
807.793	0.151652
808.100	0.151798
808.406	0.151842
808.713	0.151923
809.019	0.151633
809.326	0.151196
809.632	0.150943
809.938	0.150229
810.244	0.149611
810.551	0.148795
810.857	0.147961
811.163	0.147549
811.469	0.147326
811.775	0.147154
812.081	0.146907
812.387	0.146730
812.692	0.146635
812.998	0.146486
813.304	0.146237
813.610	0.145978
813.915	0.145570
814.221	0.145291
814.526	0.145231
814.832	0.145266
815.137	0.145053
815.443	0.145133
815.748	0.145112
816.053	0.144970
816.358	0.144899
816.664	0.144788
816.969	0.144524
817.274	0.144659
817.579	0.144299
817.884	0.143974
818.189	0.143844
818.493	0.143720
818.798	0.143739
819.103	0.143428
819.408	0.143193
819.712	0.142955
820.017	0.142733
820.321	0.142442
820.626	0.142176
820.930	0.141611
821.235	0.140957
821.539	0.140411
821.843	0.139827
822.148	0.139435
822.452	0.139361
822.756	0.139410
823.060	0.139127
823.364	0.139435
823.668	0.139405
823.972	0.139364
824.276	0.139277
824.580	0.138873
824.883	0.138613
825.187	0.138272
825.491	0.138208
825.795	0.138060
826.098	0.138051
826.402	0.137866
826.705	0.138229
827.008	0.138185
827.312	0.138292
827.615	0.138426
827.918	0.138336
828.222	0.138222
828.525	0.138214
828.828	0.137965
829.131	0.137997
829.434	0.137818
829.737	0.137142
830.040	0.135977
830.343	0.135243
830.645	0.134757
830.948	0.134238
831.251	0.133480
831.553	0.132935
831.856	0.132276
832.159	0.132402
832.461	0.132434
832.764	0.132176
833.066	0.131356
833.368	0.130965
833.671	0.130621
833.973	0.130226
834.275	0.130064
834.577	0.129806
834.879	0.129635
835.181	0.129154
835.483	0.128106
835.785	0.127636
836.087	0.127728
836.389	0.127933
836.690	0.127324
836.992	0.126264
837.294	0.125453
837.595	0.124756
837.897	0.124048
838.198	0.123406
838.500	0.121877
838.801	0.120475
839.103	0.119446
839.404	0.118950
839.705	0.118023
840.006	0.117215
840.307	0.116866
840.608	0.116684
840.910	0.116698
841.210	0.116456
841.511	0.115958
841.812	0.115987
842.113	0.116138
842.414	0.114917
842.715	0.113989
843.015	0.113531
843.316	0.113265
843.616	0.112197
843.917	0.111362
844.217	0.110514
844.518	0.109663
844.818	0.109180
845.118	0.108862
845.419	0.108471
845.719	0.107855
846.019	0.107006
846.319	0.106977
846.619	0.106595
846.919	0.106304
847.219	0.105707
847.519	0.104937
847.819	0.105052
848.118	0.104718
848.418	0.104281
848.718	0.103923
849.017	0.103494
849.317	0.103429
849.616	0.103385
849.916	0.103910
850.215	0.105008
850.515	0.105474
850.814	0.106342
851.113	0.107310
851.412	0.108159
851.712	0.108742
852.011	0.109442
852.310	0.110760
852.609	0.111221
852.908	0.111682
853.206	0.111825
853.505	0.112435
853.804	0.112762
854.103	0.113049
854.401	0.113400
854.700	0.113478
854.999	0.113659
855.297	0.114037
855.595	0.114293
855.894	0.114502
856.192	0.114695
856.491	0.114422
856.789	0.114551
857.087	0.113930
857.385	0.113446
857.683	0.112576
857.981	0.111978
858.279	0.111139
858.577	0.109581
858.875	0.108387
859.173	0.106766
859.471	0.106247
859.768	0.104978
860.066	0.103684
860.363	0.102639
860.661	0.101034
860.959	0.100436
861.256	0.100388
861.553	0.100339
861.851	0.099551
862.148	0.098983
862.445	0.099087
862.742	0.099262
863.039	0.098328
863.337	0.098047
863.634	0.096526
863.931	0.096315
864.227	0.095850
864.524	0.095481
864.821	0.095158
865.118	0.094056
865.415	0.094280
865.711	0.093136
866.008	0.092311
866.304	0.092964
866.601	0.092879
866.897	0.093391
867.194	0.093096
867.490	0.092578
867.786	0.091160
868.082	0.091422
868.379	0.091120
868.675	0.090710
868.971	0.089847
869.267	0.090254
869.563	0.090781
869.859	0.091233
870.154	0.090186
870.450	0.090184
870.746	0.089764
871.042	0.089637
871.337	0.089836
871.633	0.089233
871.928	0.089738
872.224	0.089564
872.519	0.087900
872.815	0.087060
873.110	0.086805
873.405	0.086471
873.700	0.085508
873.995	0.085466
874.291	0.084920
874.586	0.085470
874.881	0.084596
875.175	0.084580
875.470	0.084790
875.765	0.084342
876.060	0.084509
876.355	0.084956
876.649	0.084940
876.944	0.085760
877.238	0.086295
877.533	0.086877
877.827	0.087801
878.122	0.088088
878.416	0.088429
878.710	0.089951
879.005	0.090129
879.299	0.090046
879.593	0.090232
879.887	0.090768
880.181	0.090890
880.475	0.091524
880.769	0.091044
881.063	0.091062
881.356	0.090857
881.650	0.089967
881.944	0.089457
882.238	0.082857
882.531	0.096601
882.825	0.089674
883.118	0.085647
883.412	0.095237
883.705	0.078905
883.998	0.072572
884.291	0.077861
884.585	0.073397
884.878	0.071271
>>>>>>>>>> END of Data <<<<<<<<<<
>>>>>>>>>> Raw Data Start <<<<<<<<
190.664	-389
191.040	12
191.415	12
191.791	7
192.166	8
192.542	11
192.917	1
193.293	11
193.668	9
194.044	12
194.419	-8
194.794	11
195.170	11
195.545	11
195.920	11
196.296	12
196.671	12
197.046	13
197.421	13
197.796	14
198.171	14
198.546	14
198.922	14
199.297	15
199.672	15
200.047	16
200.422	16
200.796	16
201.171	16
201.546	16
201.921	16
202.296	16
202.671	16
203.045	16
203.420	16
203.795	17
204.170	17
204.544	17
204.919	16
205.294	16
205.668	17
206.043	16
206.417	16
206.792	16
207.166	16
207.541	16
207.915	15
208.289	15
208.664	15
209.038	15
209.412	15
209.787	15
210.161	15
210.535	16
210.909	16
211.284	16
211.658	15
212.032	15
212.406	15
212.780	15
213.154	15
213.528	15
213.902	15
214.276	15
214.650	15
215.024	15
215.398	15
215.772	15
216.145	15
216.519	15
216.893	15
217.267	15
217.640	15
218.014	15
218.388	15
218.761	15
219.135	15
219.508	16
219.882	15
220.256	15
220.629	16
221.003	15
221.376	15
221.749	16
222.123	16
222.496	16
222.869	16
223.243	15
223.616	15
223.989	16
224.362	16
224.736	16
225.109	16
225.482	16
225.855	16
226.228	16
226.601	16
226.974	16
227.347	16
227.720	16
228.093	16
228.466	16
228.839	16
229.212	16
229.585	16
229.957	16
230.330	16
230.703	16
231.076	16
231.448	16
231.821	16
232.194	16
232.566	16
232.939	16
233.311	16
233.684	16
234.056	16
234.429	16
234.801	16
235.174	16
235.546	16
235.918	16
236.291	16
236.663	17
237.035	16
237.408	16
237.780	17
238.152	16
238.524	17
238.896	16
239.268	16
239.641	17
240.013	17
240.385	16
240.757	16
241.129	16
241.500	17
241.872	16
242.244	17
242.616	17
242.988	16
243.360	16
243.731	16
244.103	16
244.475	16
244.847	16
245.218	16
245.590	17
245.961	17
246.333	17
246.705	17
247.076	17
247.448	17
247.819	17
248.190	17
248.562	17
248.933	17
249.305	17
249.676	18
250.047	18
250.418	18
250.790	18
251.161	18
251.532	18
251.903	18
252.274	17
252.645	18
253.016	17
253.387	18
253.758	18
254.129	18
254.500	18
254.871	18
255.242	18
255.613	18
255.984	18
256.355	17
256.725	17
257.096	17
257.467	17
257.838	17
258.208	17
258.579	17
258.949	17
259.320	18
259.690	17
260.061	18
260.431	18
260.802	18
261.172	18
261.543	18
261.913	18
262.283	18
262.654	18
263.024	18
263.394	18
263.764	18
264.135	19
264.505	19
264.875	18
265.245	18
265.615	18
265.985	18
266.355	18
266.725	18
267.095	18
267.465	18
267.835	18
268.205	18
268.575	18
268.944	18
269.314	18
269.684	18
270.054	17
270.423	17
270.793	17
271.163	17
271.532	17
271.902	17
272.271	17
272.641	17
273.010	17
273.380	17
273.749	17
274.119	18
274.488	17
274.857	17
275.227	18
275.596	18
275.965	18
276.335	18
276.704	18
277.073	18
277.442	18
277.811	18
278.180	19
278.549	19
278.918	19
279.287	19
279.656	19
280.025	19
280.394	19
280.763	19
281.132	19
281.501	19
281.869	18
282.238	18
282.607	18
282.976	18
283.344	18
283.713	18
284.081	18
284.450	18
284.819	18
285.187	17
285.556	17
285.924	17
286.292	18
286.661	17
287.029	17
287.398	18
287.766	18
288.134	18
288.502	18
288.871	18
289.239	18
289.607	18
289.975	18
290.343	18
290.711	18
291.079	18
291.447	18
291.815	18
292.183	18
292.551	18
292.919	18
293.287	18
293.655	18
294.022	18
294.390	18
294.758	18
295.126	18
295.493	18
295.861	17
296.229	18
296.596	18
296.964	17
297.331	18
297.699	18
298.066	18
298.434	18
298.801	18
299.168	18
299.536	18
299.903	18
300.270	18
300.638	18
301.005	18
301.372	18
301.739	18
302.106	19
302.473	19
302.840	19
303.207	19
303.574	19
303.941	19
304.308	19
304.675	19
305.042	19
305.409	19
305.776	19
306.143	19
306.509	19
306.876	19
307.243	19
307.610	20
307.976	20
308.343	20
308.709	19
309.076	19
309.442	19
309.809	19
310.175	19
310.542	19
310.908	20
311.275	20
311.641	20
312.007	20
312.373	20
312.740	20
313.106	21
313.472	20
313.838	20
314.204	21
314.570	21
314.936	21
315.302	21
315.668	21
316.034	21
316.400	21
316.766	22
317.132	22
317.498	22
317.864	22
318.230	22
318.595	22
318.961	22
319.327	22
319.692	23
320.058	24
320.424	25
320.789	25
321.155	26
321.520	26
321.886	26
322.251	26
322.616	27
322.982	27
323.347	28
323.712	29
324.078	30
324.443	31
324.808	32
325.173	32
325.539	33
325.904	34
326.269	35
326.634	36
326.999	37
327.364	38
327.729	38
328.094	39
328.459	40
328.823	41
329.188	41
329.553	43
329.918	44
330.283	44
330.647	45
331.012	45
331.377	46
331.741	47
332.106	48
332.470	48
332.835	50
333.199	50
333.564	51
333.928	52
334.293	53
334.657	54
335.021	55
335.386	56
335.750	57
336.114	58
336.478	59
336.843	60
337.207	62
337.571	63
337.935	64
338.299	65
338.663	67
339.027	68
339.391	69
339.755	70
340.119	71
340.483	72
340.846	73
341.210	75
341.574	76
341.938	77
342.301	78
342.665	79
343.029	80
343.392	81
343.756	83
344.119	84
344.483	85
344.846	86
345.210	87
345.573	88
345.937	89
346.300	91
346.663	92
347.027	93
347.390	94
347.753	95
348.116	97
348.479	97
348.843	98
349.206	100
349.569	101
349.932	102
350.295	103
350.658	103
351.021	104
351.383	105
351.746	106
352.109	106
352.472	107
352.835	108
353.197	108
353.560	108
353.923	109
354.285	110
354.648	111
355.011	112
355.373	112
355.736	113
356.098	114
356.461	115
356.823	116
357.185	116
357.548	116
357.910	117
358.272	118
358.635	119
358.997	120
359.359	120
359.721	121
360.083	121
360.445	122
360.807	123
361.169	123
361.531	124
361.893	124
362.255	124
362.617	124
362.979	125
363.341	126
363.703	126
364.064	127
364.426	127
364.788	128
365.149	128
365.511	129
365.873	129
366.234	130
366.596	130
366.957	130
367.319	130
367.680	131
368.042	132
368.403	132
368.764	132
369.126	132
369.487	132
369.848	133
370.209	133
370.570	133
370.931	133
371.293	133
371.654	133
372.015	133
372.376	133
372.737	133
373.098	133
373.458	133
373.819	133
374.180	133
374.541	134
374.902	134
375.263	134
375.623	135
375.984	135
376.345	136
376.705	136
377.066	136
377.426	136
377.787	136
378.147	136
378.508	137
378.868	137
379.228	137
379.589	138
379.949	138
380.309	138
380.670	138
381.030	138
381.390	138
381.750	139
382.110	139
382.470	139
382.830	139
383.190	139
383.550	139
383.910	139
384.270	140
384.630	140
384.990	140
385.350	141
385.709	141
386.069	141
386.429	141
386.788	141
387.148	141
387.508	141
387.867	141
388.227	142
388.586	142
388.946	143
389.305	143
389.665	143
390.024	144
390.383	144
390.743	145
391.102	145
391.461	145
391.820	145
392.179	145
392.539	145
392.898	145
393.257	145
393.616	145
393.975	145
394.334	146
394.693	146
395.051	147
395.410	148
395.769	148
396.128	148
396.487	148
396.845	148
397.204	148
397.563	148
397.921	148
398.280	148
398.638	148
398.997	148
399.355	148
399.714	148
400.072	149
400.431	149
400.789	149
401.147	149
401.506	150
401.864	149
402.222	150
402.580	150
402.938	149
403.297	149
403.655	149
404.013	148
404.371	148
404.729	148
405.087	148
405.444	147
405.802	147
406.160	147
406.518	147
406.876	147
407.233	147
407.591	147
407.949	146
408.306	146
408.664	146
409.022	145
409.379	145
409.737	145
410.094	145
410.451	145
410.809	145
411.166	146
411.523	145
411.881	146
412.238	146
412.595	146
412.952	146
413.310	146
413.667	145
414.024	145
414.381	145
414.738	145
415.095	145
415.452	145
415.809	145
416.165	145
416.522	145
416.879	145
417.236	145
417.593	146
417.949	147
418.306	148
418.663	149
419.019	150
419.376	152
419.732	153
420.089	154
420.445	155
420.802	156
421.158	157
421.514	158
421.871	159
422.227	160
422.583	160
422.939	161
423.295	161
423.652	162
424.008	162
424.364	162
424.720	162
425.076	161
425.432	161
425.788	161
426.143	161
426.499	161
426.855	161
427.211	161
427.567	161
427.922	161
428.278	162
428.634	161
428.989	161
429.345	161
429.700	161
430.056	162
430.411	162
430.767	162
431.122	163
431.478	163
431.833	164
432.188	165
432.543	165
432.899	165
433.254	165
433.609	165
433.964	165
434.319	165
434.674	165
435.029	165
435.384	165
435.739	165
436.094	165
436.449	166
436.804	167
437.158	168
437.513	169
437.868	171
438.223	172
438.577	174
438.932	175
439.287	177
439.641	179
439.996	181
440.350	183
440.704	184
441.059	186
441.413	188
441.768	190
442.122	192
442.476	194
442.830	195
443.185	197
443.539	198
443.893	200
444.247	202
444.601	203
444.955	204
445.309	205
445.663	205
446.017	205
446.371	206
446.724	206
447.078	206
447.432	206
447.786	206
448.139	206
448.493	207
448.847	206
449.200	206
449.554	206
449.907	205
450.261	205
450.614	205
450.968	206
451.321	206
451.674	206
452.027	206
452.381	206
452.734	206
453.087	206
453.440	207
453.793	208
454.146	208
454.499	210
454.852	212
455.205	214
455.558	216
455.911	218
456.264	221
456.617	223
456.970	225
457.322	227
457.675	229
458.028	230
458.380	232
458.733	233
459.086	235
459.438	237
459.791	238
460.143	240
460.496	243
460.848	246
461.200	250
461.553	253
461.905	256
462.257	259
462.609	261
462.961	264
463.314	266
463.666	268
464.018	270
464.370	272
464.722	275
465.074	277
465.426	280
465.777	282
466.129	283
466.481	285
466.833	286
467.184	287
467.536	288
467.888	288
468.239	288
468.591	288
468.943	288
469.294	290
469.646	291
469.997	293
470.348	295
470.700	297
471.051	301
471.402	304
471.754	308
472.105	313
472.456	318
472.807	324
473.158	330
473.509	336
473.860	343
474.211	350
474.562	358
474.913	366
475.264	374
475.615	383
475.966	391
476.316	399
476.667	407
477.018	415
477.368	424
477.719	432
478.070	441
478.420	449
478.771	457
479.121	465
479.472	473
479.822	480
480.172	489
480.523	499
480.873	513
481.223	535
481.573	568
481.924	609
482.274	656
482.624	704
482.974	753
483.324	795
483.674	827
484.024	849
484.374	863
484.724	873
485.073	880
485.423	887
485.773	893
486.123	899
486.472	905
486.822	910
487.172	915
487.521	919
487.871	922
488.220	920
488.570	910
488.919	888
489.268	859
489.618	824
489.967	787
490.316	750
490.666	718
491.015	696
491.364	683
491.713	678
492.062	678
492.411	680
492.760	684
493.109	687
493.458	691
493.807	695
494.156	698
494.505	701
494.853	704
495.202	708
495.551	713
495.900	718
496.248	723
496.597	729
496.945	734
497.294	739
497.642	744
497.991	750
498.339	758
498.688	766
499.036	773
499.384	779
499.732	786
500.081	791
500.429	795
500.777	800
501.125	804
501.473	809
501.821	814
502.169	818
502.517	823
502.865	825
503.213	828
503.561	830
503.908	832
504.256	834
504.604	835
504.952	836
505.299	836
505.647	836
505.994	834
506.342	833
506.689	832
507.037	831
507.384	831
507.732	832
508.079	832
508.426	832
508.774	833
509.121	833
509.468	833
509.815	833
510.162	833
510.509	833
510.856	833
511.203	832
511.550	832
511.897	832
512.244	832
512.591	831
512.938	831
513.284	831
513.631	830
513.978	829
514.324	828
514.671	827
515.018	826
515.364	825
515.711	824
516.057	823
516.403	822
516.750	821
517.096	819
517.443	817
517.789	815
518.135	813
518.481	811
518.827	810
519.173	807
519.519	806
519.865	804
520.211	804
520.557	803
520.903	802
521.249	802
521.595	801
521.941	800
522.287	800
522.632	800
522.978	800
523.324	799
523.669	800
524.015	801
524.360	804
524.706	807
525.051	811
525.397	816
525.742	821
526.087	827
526.433	832
526.778	836
527.123	840
527.468	843
527.813	845
528.158	848
528.504	852
528.849	857
529.193	864
529.538	871
529.883	880
530.228	891
530.573	903
530.918	915
531.263	927
531.607	938
531.952	948
532.296	957
532.641	963
532.986	969
533.330	975
533.675	981
534.019	988
534.363	998
534.708	1009
535.052	1022
535.396	1036
535.741	1049
536.085	1060
536.429	1071
536.773	1080
537.117	1087
537.461	1094
537.805	1101
538.149	1107
538.493	1114
538.837	1122
539.181	1131
539.524	1143
539.868	1156
540.212	1170
540.556	1185
540.899	1201
541.243	1215
541.586	1227
541.930	1238
542.273	1245
542.617	1251
542.960	1257
543.304	1266
543.647	1277
543.990	1291
544.333	1306
544.677	1322
545.020	1337
545.363	1350
545.706	1360
546.049	1368
546.392	1373
546.735	1376
547.078	1379
547.421	1382
547.764	1385
548.106	1390
548.449	1397
548.792	1406
549.135	1418
549.477	1432
549.820	1447
550.162	1459
550.505	1470
550.847	1479
551.190	1485
551.532	1491
551.875	1498
552.217	1505
552.559	1514
552.901	1526
553.244	1539
553.586	1553
553.928	1567
554.270	1580
554.612	1592
554.954	1602
555.296	1611
555.638	1620
555.980	1630
556.322	1642
556.663	1657
557.005	1677
557.347	1700
557.689	1725
558.030	1750
558.372	1773
558.713	1794
559.055	1814
559.396	1835
559.738	1857
560.079	1881
560.421	1907
560.762	1937
561.103	1969
561.444	2005
561.786	2041
562.127	2079
562.468	2121
562.809	2166
563.150	2216
563.491	2270
563.832	2330
564.173	2398
564.514	2476
564.855	2568
565.195	2681
565.536	2815
565.877	2971
566.218	3147
566.558	3345
566.899	3563
567.239	3798
567.580	4044
567.920	4297
568.261	4553
568.601	4815
568.941	5087
569.282	5367
569.622	5659
569.962	5965
570.302	6292
570.643	6631
570.983	6973
571.323	7305
571.663	7624
572.003	7930
572.343	8218
572.683	8491
573.022	8772
573.362	9070
573.702	9381
574.042	9693
574.381	9994
574.721	10281
575.061	10557
575.400	10809
575.740	11035
576.079	11239
576.419	11443
576.758	11677
577.097	11952
577.437	12255
577.776	12577
578.115	12914
578.454	13254
578.794	13566
579.133	13807
579.472	13976
579.811	14079
580.150	14123
580.489	14125
580.828	14109
581.167	14100
581.505	14106
581.844	14119
582.183	14131
582.522	14152
582.860	14179
583.199	14205
583.538	14210
583.876	14167
584.215	14064
584.553	13892
584.891	13656
585.230	13362
585.568	13035
585.906	12706
586.245	12414
586.583	12168
586.921	11969
587.259	11788
587.597	11602
587.935	11405
588.273	11201
588.611	11014
588.949	10853
589.287	10724
589.625	10630
589.963	10562
590.300	10509
590.638	10462
590.976	10402
591.313	10328
591.651	10256
591.989	10197
592.326	10152
592.664	10115
593.001	10088
593.338	10076
593.676	10077
594.013	10097
594.350	10150
594.687	10230
595.025	10317
595.362	10397
595.699	10457
596.036	10498
596.373	10515
596.710	10504
597.047	10476
597.384	10439
597.720	10398
598.057	10368
598.394	10351
598.731	10347
599.067	10362
599.404	10397
599.741	10455
600.077	10530
600.414	10612
600.750	10695
601.087	10759
601.423	10792
601.759	10801
602.096	10790
602.432	10766
602.768	10725
603.104	10667
603.440	10591
603.776	10511
604.112	10425
604.448	10337
604.784	10243
605.120	10143
605.456	10046
605.792	9944
606.128	9835
606.463	9722
606.799	9609
607.135	9508
607.470	9407
607.806	9306
608.142	9209
608.477	9116
608.812	9026
609.148	8934
609.483	8836
609.819	8736
610.154	8642
610.489	8556
610.824	8482
611.159	8421
611.494	8358
611.830	8304
612.165	8249
612.500	8187
612.834	8112
613.169	8025
613.504	7930
613.839	7823
614.174	7701
614.509	7579
614.843	7459
615.178	7343
615.512	7229
615.847	7118
616.182	7007
616.516	6894
616.850	6774
617.185	6648
617.519	6520
617.853	6381
618.188	6239
618.522	6110
618.856	6002
619.190	5909
619.524	5829
619.858	5767
620.192	5719
620.526	5676
620.860	5632
621.194	5589
621.528	5547
621.862	5505
622.195	5452
622.529	5396
622.863	5339
623.196	5281
623.530	5223
623.864	5164
624.197	5105
624.530	5048
624.864	4997
625.197	4942
625.531	4880
625.864	4803
626.197	4722
626.530	4633
626.863	4534
627.196	4425
627.529	4316
627.862	4208
628.195	4102
628.528	3997
628.861	3897
629.194	3806
629.527	3721
629.860	3635
630.192	3552
630.525	3473
630.858	3400
631.190	3331
631.523	3264
631.855	3203
632.188	3150
632.520	3100
632.852	3053
633.185	3004
633.517	2957
633.849	2915
634.182	2876
634.514	2839
634.846	2806
635.178	2778
635.510	2752
635.842	2729
636.174	2707
636.506	2684
636.837	2662
637.169	2639
637.501	2616
637.833	2589
638.164	2559
638.496	2525
638.828	2487
639.159	2444
639.491	2397
639.822	2349
640.154	2301
640.485	2253
640.816	2206
641.147	2160
641.479	2115
641.810	2072
642.141	2030
642.472	1988
642.803	1947
643.134	1908
643.465	1876
643.796	1850
644.127	1831
644.458	1823
644.789	1825
645.119	1837
645.450	1857
645.781	1877
646.111	1897
646.442	1914
646.773	1927
647.103	1936
647.433	1945
647.764	1953
648.094	1967
648.425	1983
648.755	2003
649.085	2026
649.415	2050
649.745	2074
650.075	2099
650.405	2126
650.735	2189
651.065	2656
651.395	4113
651.725	6540
652.055	9624
652.385	13203
652.715	16874
653.044	20546
653.374	24223
653.704	27003
654.033	28899
654.363	30161
654.692	30969
655.022	31479
655.351	31807
655.680	32005
656.010	32110
656.339	32153
656.668	32160
656.997	32149
657.326	32123
657.655	32052
657.984	31571
658.313	30091
658.642	27634
658.971	24512
659.300	20893
659.629	17182
659.958	13472
660.286	9761
660.615	6953
660.944	5035
661.272	3755
661.601	2929
661.929	2399
662.258	2047
662.586	1819
662.915	1681
663.243	1601
663.571	1556
663.899	1529
664.228	1512
664.556	1500
664.884	1492
665.212	1487
665.540	1483
665.868	1482
666.196	1481
666.524	1481
666.852	1483
667.179	1490
667.507	1502
667.835	1520
668.162	1544
668.490	1573
668.818	1607
669.145	1642
669.473	1676
669.800	1708
670.127	1736
670.455	1758
670.782	1777
671.109	1794
671.436	1808
671.764	1819
672.091	1829
672.418	1837
672.745	1844
673.072	1851
673.399	1859
673.726	1868
674.053	1875
674.379	1877
674.706	1877
675.033	1876
675.359	1873
675.686	1869
676.013	1868
676.339	1869
676.666	1876
676.992	1892
677.318	1912
677.645	1935
677.971	1957
678.297	1975
678.624	1994
678.950	2011
679.276	2027
679.602	2043
679.928	2059
680.254	2080
680.580	2106
680.906	2140
681.232	2182
681.558	2226
681.883	2269
682.209	2308
682.535	2345
682.860	2377
683.186	2404
683.511	2425
683.837	2438
684.162	2448
684.488	2456
684.813	2465
685.138	2474
685.464	2481
685.789	2487
686.114	2494
686.439	2502
686.764	2511
687.089	2517
687.414	2518
687.739	2509
688.064	2493
688.389	2473
688.714	2450
689.039	2424
689.363	2398
689.688	2370
690.013	2342
690.337	2318
690.662	2299
690.986	2281
691.311	2263
691.635	2244
691.959	2227
692.284	2216
692.608	2214
692.932	2219
693.256	2227
693.580	2238
693.904	2251
694.228	2265
694.552	2278
694.876	2284
695.200	2281
695.524	2270
695.848	2254
696.172	2235
696.495	2215
696.819	2195
697.143	2174
697.466	2153
697.790	2135
698.113	2124
698.437	2118
698.760	2118
699.083	2118
699.407	2112
699.730	2100
700.053	2083
700.376	2057
700.699	2023
701.022	1979
701.345	1933
701.668	1889
701.991	1854
702.314	1831
702.637	1822
702.960	1828
703.283	1850
703.605	1885
703.928	1933
704.251	1986
704.573	2039
704.896	2085
705.218	2122
705.540	2150
705.863	2173
706.185	2191
706.507	2207
706.830	2222
707.152	2239
707.474	2257
707.796	2277
708.118	2299
708.440	2320
708.762	2338
709.084	2352
709.406	2360
709.728	2360
710.049	2354
710.371	2344
710.693	2327
711.014	2309
711.336	2292
711.658	2277
711.979	2264
712.301	2252
712.622	2239
712.943	2224
713.265	2204
713.586	2184
713.907	2165
714.228	2148
714.549	2135
714.870	2126
715.191	2122
715.512	2122
715.833	2119
716.154	2113
716.475	2103
716.796	2089
717.117	2068
717.437	2045
717.758	2018
718.078	1991
718.399	1965
718.719	1942
719.040	1922
719.360	1907
719.681	1897
720.001	1891
720.321	1888
720.642	1887
720.962	1890
721.282	1895
721.602	1902
721.922	1909
722.242	1919
722.562	1932
722.882	1948
723.202	1962
723.521	1974
723.841	1987
724.161	2000
724.481	2013
724.800	2027
725.120	2045
725.439	2067
725.759	2092
726.078	2121
726.398	2155
726.717	2198
727.036	2246
727.355	2295
727.675	2344
727.994	2390
728.313	2433
728.632	2471
728.951	2501
729.270	2528
729.589	2552
729.908	2584
730.226	2620
730.545	2660
730.864	2704
731.182	2750
731.501	2797
731.820	2841
732.138	2879
732.457	2911
732.775	2941
733.093	2966
733.412	2979
733.730	2982
734.048	2975
734.367	2960
734.685	2941
735.003	2920
735.321	2902
735.639	2887
735.957	2876
736.275	2866
736.593	2850
736.910	2826
737.228	2791
737.546	2746
737.863	2694
738.181	2638
738.499	2578
738.816	2521
739.134	2464
739.451	2407
739.768	2350
740.086	2294
740.403	2243
740.720	2195
741.038	2151
741.355	2108
741.672	2065
741.989	2022
742.306	1977
742.623	1929
742.940	1883
743.257	1841
743.573	1804
743.890	1776
744.207	1754
744.523	1740
744.840	1730
745.157	1725
745.473	1725
745.790	1732
746.106	1746
746.422	1768
746.739	1794
747.055	1826
747.371	1861
747.687	1897
748.004	1932
748.320	1962
748.636	1989
748.952	2016
749.268	2043
749.584	2069
749.899	2094
750.215	2118
750.531	2147
750.847	2178
751.162	2209
751.478	2239
751.793	2271
752.109	2304
752.424	2340
752.740	2378
753.055	2419
753.370	2470
753.686	2529
754.001	2592
754.316	2659
754.631	2729
754.946	2803
755.261	2881
755.576	2956
755.891	3028
756.206	3099
756.521	3175
756.836	3252
757.150	3326
757.465	3391
757.780	3446
758.094	3493
758.409	3529
758.723	3551
759.038	3560
759.352	3559
759.667	3548
759.981	3530
760.295	3513
760.609	3501
760.923	3493
761.238	3488
761.552	3486
761.866	3482
762.180	3475
762.493	3456
762.807	3419
763.121	3363
763.435	3292
763.749	3215
764.062	3143
764.376	3085
764.689	3045
765.003	3025
765.316	3024
765.630	3036
765.943	3055
766.257	3077
766.570	3094
766.883	3098
767.196	3090
767.509	3069
767.822	3040
768.135	3001
768.448	2960
768.761	2918
769.074	2881
769.387	2853
769.700	2837
770.013	2827
770.325	2820
770.638	2808
770.950	2784
771.263	2746
771.575	2694
771.888	2626
772.200	2548
772.513	2464
772.825	2376
773.137	2286
773.449	2197
773.761	2112
774.074	2033
774.386	1963
774.698	1905
775.010	1857
775.321	1824
775.633	1802
775.945	1791
776.257	1784
776.568	1783
776.880	1789
777.192	1803
777.503	1823
777.815	1849
778.126	1881
778.438	1920
778.749	1961
779.060	2001
779.372	2038
779.683	2075
779.994	2108
780.305	2133
780.616	2150
780.927	2161
781.238	2165
781.549	2160
781.860	2145
782.171	2125
782.481	2103
782.792	2081
783.103	2059
783.413	2036
783.724	2011
784.034	1988
784.345	1966
784.655	1946
784.966	1926
785.276	1905
785.586	1885
785.896	1864
786.207	1842
786.517	1818
786.827	1796
787.137	1774
787.447	1753
787.757	1733
788.066	1714
788.376	1695
788.686	1677
788.996	1658
789.305	1640
789.615	1626
789.925	1618
790.234	1617
790.544	1621
790.853	1630
791.162	1639
791.472	1646
791.781	1650
792.090	1646
792.399	1636
792.708	1621
793.017	1603
793.326	1587
793.635	1571
793.944	1557
794.253	1545
794.562	1537
794.871	1532
795.179	1529
795.488	1524
795.797	1515
796.105	1502
796.414	1479
796.722	1448
797.031	1409
797.339	1363
797.647	1310
797.956	1255
798.264	1205
798.572	1164
798.880	1132
799.188	1108
799.496	1092
799.804	1079
800.112	1070
800.420	1062
800.728	1054
801.035	1043
801.343	1031
801.651	1022
801.958	1020
802.266	1024
802.573	1033
802.881	1045
803.188	1059
803.496	1075
803.803	1091
804.110	1105
804.417	1117
804.724	1128
805.032	1139
805.339	1148
805.646	1153
805.953	1157
806.259	1157
806.566	1156
806.873	1151
807.180	1145
807.486	1139
807.793	1132
808.100	1120
808.406	1101
808.713	1076
809.019	1046
809.326	1017
809.632	989
809.938	963
810.244	939
810.551	919
810.857	903
811.163	888
811.469	873
811.775	856
812.081	839
812.387	823
812.692	810
812.998	801
813.304	793
813.610	788
813.915	783
814.221	779
814.526	776
814.832	773
815.137	770
815.443	765
815.748	757
816.053	747
816.358	737
816.664	727
816.969	719
817.274	712
817.579	706
817.884	703
818.189	702
818.493	701
818.798	699
819.103	695
819.408	688
819.712	681
820.017	672
820.321	663
820.626	654
820.930	646
821.235	641
821.539	639
821.843	639
822.148	641
822.452	642
822.756	642
823.060	640
823.364	636
823.668	630
823.972	624
824.276	617
824.580	612
824.883	610
825.187	609
825.491	610
825.795	610
826.098	610
826.402	609
826.705	607
827.008	602
827.312	596
827.615	585
827.918	573
828.222	559
828.525	545
828.828	532
829.131	518
829.434	505
829.737	493
830.040	484
830.343	476
830.645	469
830.948	462
831.251	455
831.553	450
831.856	445
832.159	440
832.461	434
832.764	428
833.066	422
833.368	418
833.671	414
833.973	412
834.275	409
834.577	406
834.879	403
835.181	399
835.483	395
835.785	390
836.087	382
836.389	374
836.690	365
836.992	355
837.294	344
837.595	333
837.897	322
838.198	310
838.500	300
838.801	290
839.103	282
839.404	275
839.705	269
840.006	264
840.307	260
840.608	257
840.910	255
841.210	254
841.511	252
841.812	250
842.113	247
842.414	244
842.715	240
843.015	234
843.316	229
843.616	225
843.917	221
844.217	217
844.518	214
844.818	212
845.118	210
845.419	210
845.719	209
846.019	208
846.319	207
846.619	206
846.919	205
847.219	204
847.519	203
847.819	202
848.118	202
848.418	205
848.718	211
849.017	221
849.317	236
849.616	253
849.916	274
850.215	296
850.515	320
850.814	343
851.113	364
851.412	383
851.712	400
852.011	416
852.310	431
852.609	444
852.908	455
853.206	466
853.505	475
853.804	483
854.103	491
854.401	496
854.700	498
854.999	496
855.297	490
855.595	479
855.894	465
856.192	448
856.491	429
856.789	407
857.087	385
857.385	365
857.683	347
857.981	331
858.279	316
858.577	302
858.875	289
859.173	280
859.471	271
859.768	265
860.066	259
860.363	254
860.661	251
860.959	247
861.256	244
861.553	240
861.851	236
862.148	231
862.445	226
862.742	222
863.039	218
863.337	215
863.634	213
863.931	211
864.227	210
864.524	210
864.821	210
865.118	210
865.415	208
865.711	205
866.008	202
866.304	197
866.601	194
866.897	190
867.194	187
867.490	185
867.786	185
868.082	184
868.379	185
868.675	186
868.971	186
869.267	186
869.563	186
869.859	185
870.154	185
870.450	184
870.746	183
871.042	182
871.337	182
871.633	183
871.928	183
872.224	185
872.519	187
872.815	188
873.110	189
873.405	189
873.700	189
873.995	188
874.291	188
874.586	189
874.881	190
875.175	192
875.470	195
875.765	199
876.060	202
876.355	206
876.649	210
876.944	214
877.238	217
877.533	220
877.827	222
878.122	224
878.416	225
878.710	224
879.005	224
879.299	223
879.593	222
879.887	221
880.181	219
880.475	218
880.769	216
881.063	214
881.356	212
881.650	209
881.944	206
882.238	172
882.531	160
882.825	160
883.118	163
883.412	162
883.705	166
883.998	175
884.291	177
884.585	180
884.878	188
>>>>>>>>>> END of Data <<<<<<<<<<