Date	2021年06月15日火曜日 05時04分45秒
Spectrometers	USB2+H05879
ダーク	使用
リファレンス	使用
積分時間[msec]	10
平均回数	280
ｽﾑｰｼﾞﾝｸﾞ	10
Electrical Dark	USE
ピクセル数	2048
計測モード	吸光度
保存開始波長[nm]	190.664
保存終了波長[nm]	884.878
保存ﾋﾟｯﾁ波長[nm]	全波長

>>>>>>>>>> Data Start <<<<<<<<<<<<
190.664	0.000000
191.040	0.000000
191.415	0.000000
191.791	-2.402749
192.166	-0.616291
192.542	-1.051313
192.917	0.000000
193.293	-0.565328
193.668	-0.670637
194.044	-1.110593
194.419	0.000000
194.794	-1.426494
195.170	-1.329369
195.545	-1.242777
195.920	-1.114177
196.296	-0.994446
196.671	-0.819795
197.046	-0.663871
197.421	-0.617775
197.796	-0.605718
198.171	-0.572008
198.546	-0.534810
198.922	-0.482142
199.297	-0.463453
199.672	-0.430875
200.047	-0.411593
200.422	-0.378886
200.796	-0.364326
201.171	-0.338511
201.546	-0.341760
201.921	-0.332087
202.296	-0.315888
202.671	-0.291569
203.045	-0.278411
203.420	-0.265916
203.795	-0.249978
204.170	-0.241967
204.544	-0.243142
204.919	-0.245594
205.294	-0.232143
205.668	-0.211750
206.043	-0.196442
206.417	-0.200886
206.792	-0.193760
207.166	-0.187935
207.541	-0.185549
207.915	-0.192606
208.289	-0.184641
208.664	-0.183489
209.038	-0.181822
209.412	-0.163189
209.787	-0.149536
210.161	-0.142226
210.535	-0.139534
210.909	-0.127104
211.284	-0.118469
211.658	-0.122138
212.032	-0.123669
212.406	-0.133331
212.780	-0.133249
213.154	-0.135584
213.528	-0.139834
213.902	-0.133721
214.276	-0.122937
214.650	-0.126092
215.024	-0.120034
215.398	-0.121598
215.772	-0.110764
216.145	-0.104282
216.519	-0.098293
216.893	-0.101571
217.267	-0.106642
217.640	-0.108092
218.014	-0.090151
218.388	-0.081453
218.761	-0.092799
219.135	-0.089099
219.508	-0.088320
219.882	-0.094192
220.256	-0.079960
220.629	-0.068104
221.003	-0.067179
221.376	-0.071074
221.749	-0.080338
222.123	-0.080375
222.496	-0.082699
222.869	-0.073684
223.243	-0.073620
223.616	-0.072509
223.989	-0.075681
224.362	-0.069421
224.736	-0.070045
225.109	-0.068995
225.482	-0.070903
225.855	-0.082284
226.228	-0.092489
226.601	-0.090289
226.974	-0.078238
227.347	-0.073765
227.720	-0.069436
228.093	-0.072134
228.466	-0.081556
228.839	-0.079630
229.212	-0.081451
229.585	-0.082655
229.957	-0.084591
230.330	-0.079799
230.703	-0.089247
231.076	-0.090456
231.448	-0.093986
231.821	-0.092533
232.194	-0.096110
232.566	-0.102074
232.939	-0.112355
233.311	-0.114951
233.684	-0.110150
234.056	-0.112240
234.429	-0.110075
234.801	-0.119909
235.174	-0.118262
235.546	-0.118027
235.918	-0.121445
236.291	-0.116883
236.663	-0.110509
237.035	-0.105031
237.408	-0.097877
237.780	-0.091598
238.152	-0.088491
238.524	-0.088608
238.896	-0.082560
239.268	-0.083419
239.641	-0.083223
240.013	-0.076546
240.385	-0.073361
240.757	-0.064576
241.129	-0.057298
241.500	-0.056186
241.872	-0.047149
242.244	-0.039126
242.616	-0.036545
242.988	-0.033746
243.360	-0.022407
243.731	-0.008420
244.103	-0.012377
244.475	-0.019538
244.847	-0.019511
245.218	-0.015049
245.590	-0.011111
245.961	-0.012642
246.333	-0.008610
246.705	-0.012647
247.076	-0.004136
247.448	-0.003879
247.819	-0.006293
248.190	0.004265
248.562	-0.003022
248.933	-0.003489
249.305	-0.003336
249.676	0.001472
250.047	-0.002756
250.418	0.001217
250.790	0.003158
251.161	0.001632
251.532	-0.004657
251.903	-0.001734
252.274	0.005294
252.645	0.010284
253.016	0.005113
253.387	-0.006466
253.758	-0.006185
254.129	-0.005199
254.500	0.001280
254.871	-0.002311
255.242	-0.005363
255.613	-0.004779
255.984	-0.013565
256.355	-0.005144
256.725	0.000136
257.096	0.002607
257.467	0.000506
257.838	0.000976
258.208	-0.006133
258.579	-0.005497
258.949	-0.009494
259.320	-0.013699
259.690	-0.008026
260.061	-0.005392
260.431	-0.002574
260.802	0.003209
261.172	0.017299
261.543	0.020698
261.913	0.023308
262.283	0.017462
262.654	0.016855
263.024	0.013416
263.394	0.011579
263.764	0.017888
264.135	0.021113
264.505	0.013730
264.875	0.017739
265.245	0.016953
265.615	0.015161
265.985	0.018106
266.355	0.013028
266.725	0.010714
267.095	0.014970
267.465	0.019720
267.835	0.013932
268.205	0.004603
268.575	0.007452
268.944	0.011078
269.314	0.004838
269.684	0.005773
270.054	0.001286
270.423	0.007254
270.793	0.014432
271.163	0.016007
271.532	0.015336
271.902	0.013783
272.271	0.017389
272.641	0.013518
273.010	0.009467
273.380	0.011861
273.749	0.013638
274.119	0.021397
274.488	0.031667
274.857	0.034709
275.227	0.025628
275.596	0.022759
275.965	0.027566
276.335	0.022229
276.704	0.014352
277.073	0.016812
277.442	0.016605
277.811	0.020681
278.180	0.021464
278.549	0.025158
278.918	0.028649
279.287	0.027819
279.656	0.029561
280.025	0.027511
280.394	0.024086
280.763	0.031406
281.132	0.035644
281.501	0.034980
281.869	0.031925
282.238	0.026718
282.607	0.023471
282.976	0.026722
283.344	0.034690
283.713	0.033881
284.081	0.035400
284.450	0.039116
284.819	0.045759
285.187	0.048651
285.556	0.054054
285.924	0.052047
286.292	0.042909
286.661	0.038250
287.029	0.041507
287.398	0.041506
287.766	0.042811
288.134	0.048841
288.502	0.043588
288.871	0.041327
289.239	0.046766
289.607	0.052321
289.975	0.051938
290.343	0.057741
290.711	0.057369
291.079	0.059269
291.447	0.068137
291.815	0.069402
292.183	0.070931
292.551	0.069637
292.919	0.064807
293.287	0.069423
293.655	0.073410
294.022	0.080297
294.390	0.093017
294.758	0.096891
295.126	0.094065
295.493	0.103181
295.861	0.106615
296.229	0.109128
296.596	0.115479
296.964	0.114781
297.331	0.114194
297.699	0.116307
298.066	0.119333
298.434	0.123548
298.801	0.123168
299.168	0.118819
299.536	0.124301
299.903	0.125251
300.270	0.129682
300.638	0.141303
301.005	0.143277
301.372	0.144943
301.739	0.147936
302.106	0.149227
302.473	0.157538
302.840	0.168889
303.207	0.182250
303.574	0.199150
303.941	0.213509
304.308	0.223495
304.675	0.233235
305.042	0.243853
305.409	0.268370
305.776	0.281425
306.143	0.298881
306.509	0.321079
306.876	0.350460
307.243	0.372575
307.610	0.396406
307.976	0.416795
308.343	0.445608
308.709	0.474314
309.076	0.505346
309.442	0.533008
309.809	0.558735
310.175	0.588266
310.542	0.620943
310.908	0.638411
311.275	0.657202
311.641	0.684478
312.007	0.715727
312.373	0.747546
312.740	0.782617
313.106	0.804926
313.472	0.838318
313.838	0.869392
314.204	0.890755
314.570	0.909760
314.936	0.933318
315.302	0.957707
315.668	0.980353
316.034	0.999898
316.400	1.029613
316.766	1.050566
317.132	1.077610
317.498	1.102767
317.864	1.117002
318.230	1.130848
318.595	1.154056
318.961	1.172973
319.327	1.199452
319.692	1.209219
320.058	1.218661
320.424	1.227786
320.789	1.241045
321.155	1.254276
321.520	1.267826
321.886	1.284715
322.251	1.292221
322.616	1.305453
322.982	1.314918
323.347	1.327544
323.712	1.341711
324.078	1.345972
324.443	1.353293
324.808	1.358810
325.173	1.364466
325.539	1.373019
325.904	1.382018
326.269	1.386997
326.634	1.393970
326.999	1.395747
327.364	1.403797
327.729	1.413665
328.094	1.421225
328.459	1.426470
328.823	1.428212
329.188	1.434088
329.553	1.435321
329.918	1.442946
330.283	1.446014
330.647	1.452728
331.012	1.454364
331.377	1.455826
331.741	1.457438
332.106	1.462604
332.470	1.465747
332.835	1.469062
333.199	1.471451
333.564	1.473177
333.928	1.477685
334.293	1.479581
334.657	1.479035
335.021	1.480683
335.386	1.479774
335.750	1.477268
336.114	1.478487
336.478	1.478478
336.843	1.476412
337.207	1.478034
337.571	1.479201
337.935	1.479976
338.299	1.477877
338.663	1.478015
339.027	1.478900
339.391	1.479009
339.755	1.476991
340.119	1.476762
340.483	1.475134
340.846	1.476864
341.210	1.476695
341.574	1.474800
341.938	1.473193
342.301	1.474644
342.665	1.475338
343.029	1.475364
343.392	1.477596
343.756	1.476169
344.119	1.477266
344.483	1.478825
344.846	1.478393
345.210	1.478154
345.573	1.477359
345.937	1.477018
346.300	1.477781
346.663	1.477019
347.027	1.477803
347.390	1.478080
347.753	1.478046
348.116	1.478482
348.479	1.477677
348.843	1.477366
349.206	1.477332
349.569	1.477249
349.932	1.476333
350.295	1.475923
350.658	1.476407
351.021	1.476581
351.383	1.478005
351.746	1.478394
352.109	1.478006
352.472	1.478759
352.835	1.479289
353.197	1.480161
353.560	1.481518
353.923	1.480089
354.285	1.479508
354.648	1.479266
355.011	1.478388
355.373	1.478551
355.736	1.478458
356.098	1.477822
356.461	1.477713
356.823	1.478012
357.185	1.479089
357.548	1.480519
357.910	1.480110
358.272	1.479519
358.635	1.478101
358.997	1.477553
359.359	1.478474
359.721	1.477911
360.083	1.478828
360.445	1.479035
360.807	1.478556
361.169	1.477835
361.531	1.479984
361.893	1.481404
362.255	1.481973
362.617	1.483626
362.979	1.484226
363.341	1.484090
363.703	1.484512
364.064	1.485430
364.426	1.486257
364.788	1.486493
365.149	1.486225
365.511	1.486662
365.873	1.487844
366.234	1.489530
366.596	1.489964
366.957	1.490218
367.319	1.490915
367.680	1.490744
368.042	1.490298
368.403	1.491287
368.764	1.492705
369.126	1.492573
369.487	1.492673
369.848	1.493117
370.209	1.494050
370.570	1.494706
370.931	1.495983
371.293	1.496508
371.654	1.497761
372.015	1.498768
372.376	1.499336
372.737	1.499721
373.098	1.500549
373.458	1.500718
373.819	1.501693
374.180	1.503081
374.541	1.503412
374.902	1.504631
375.263	1.504998
375.623	1.506003
375.984	1.507052
376.345	1.507341
376.705	1.508852
377.066	1.510275
377.426	1.510500
377.787	1.510666
378.147	1.511436
378.508	1.511981
378.868	1.513107
379.228	1.512944
379.589	1.513267
379.949	1.513978
380.309	1.514973
380.670	1.515596
381.030	1.516850
381.390	1.517362
381.750	1.517440
382.110	1.517707
382.470	1.518735
382.830	1.519642
383.190	1.521414
383.550	1.521665
383.910	1.523014
384.270	1.522922
384.630	1.523691
384.990	1.525159
385.350	1.526206
385.709	1.526779
386.069	1.527548
386.429	1.528213
386.788	1.529433
387.148	1.530270
387.508	1.531758
387.867	1.532565
388.227	1.533488
388.586	1.534061
388.946	1.535032
389.305	1.536881
389.665	1.539163
390.024	1.539625
390.383	1.540683
390.743	1.541013
391.102	1.542425
391.461	1.542795
391.820	1.543904
392.179	1.544009
392.539	1.544385
392.898	1.545853
393.257	1.546425
393.616	1.548023
393.975	1.549546
394.334	1.550628
394.693	1.550908
395.051	1.551948
395.410	1.552828
395.769	1.553614
396.128	1.554549
396.487	1.555198
396.845	1.555323
397.204	1.555121
397.563	1.555598
397.921	1.556056
398.280	1.555903
398.638	1.555280
398.997	1.555474
399.355	1.555324
399.714	1.555571
400.072	1.555102
400.431	1.554165
400.789	1.554389
401.147	1.554001
401.506	1.552732
401.864	1.552477
402.222	1.552710
402.580	1.551282
402.938	1.551587
403.297	1.551112
403.655	1.551133
404.013	1.550670
404.371	1.550823
404.729	1.550282
405.087	1.549836
405.444	1.549726
405.802	1.549545
406.160	1.549668
406.518	1.549242
406.876	1.549847
407.233	1.550615
407.591	1.551609
407.949	1.552559
408.306	1.552493
408.664	1.552045
409.022	1.552335
409.379	1.552320
409.737	1.551894
410.094	1.552000
410.451	1.551992
410.809	1.552122
411.166	1.551214
411.523	1.551956
411.881	1.551585
412.238	1.551613
412.595	1.551169
412.952	1.550686
413.310	1.550815
413.667	1.551498
414.024	1.552370
414.381	1.551470
414.738	1.550217
415.095	1.549767
415.452	1.548887
415.809	1.548319
416.165	1.548313
416.522	1.548509
416.879	1.548195
417.236	1.548143
417.593	1.548045
417.949	1.547473
418.306	1.547335
418.663	1.548232
419.019	1.547191
419.376	1.546485
419.732	1.546189
420.089	1.546503
420.445	1.546712
420.802	1.546743
421.158	1.545376
421.514	1.544467
421.871	1.544194
422.227	1.543613
422.583	1.543227
422.939	1.542094
423.295	1.541810
423.652	1.541759
424.008	1.540799
424.364	1.539840
424.720	1.539272
425.076	1.539203
425.432	1.538554
425.788	1.538275
426.143	1.537194
426.499	1.536266
426.855	1.535954
427.211	1.535532
427.567	1.535060
427.922	1.534256
428.278	1.531866
428.634	1.531984
428.989	1.531169
429.345	1.529956
429.700	1.529536
430.056	1.528799
430.411	1.528454
430.767	1.527897
431.122	1.525990
431.478	1.525216
431.833	1.524313
432.188	1.522818
432.543	1.521208
432.899	1.519932
433.254	1.518195
433.609	1.516436
433.964	1.515473
434.319	1.513650
434.674	1.512043
435.029	1.510573
435.384	1.509106
435.739	1.508537
436.094	1.507516
436.449	1.506317
436.804	1.505379
437.158	1.503690
437.513	1.502113
437.868	1.500690
438.223	1.500023
438.577	1.498778
438.932	1.497658
439.287	1.496254
439.641	1.494721
439.996	1.493484
440.350	1.492189
440.704	1.491371
441.059	1.490256
441.413	1.488263
441.768	1.486646
442.122	1.484923
442.476	1.482983
442.830	1.481175
443.185	1.479675
443.539	1.477190
443.893	1.475196
444.247	1.473285
444.601	1.471696
444.955	1.469399
445.309	1.466646
445.663	1.463289
446.017	1.461193
446.371	1.458239
446.724	1.455311
447.078	1.453085
447.432	1.450286
447.786	1.447159
448.139	1.443339
448.493	1.440178
448.847	1.437102
449.200	1.433956
449.554	1.431055
449.907	1.427455
450.261	1.423793
450.614	1.420526
450.968	1.417073
451.321	1.413639
451.674	1.409927
452.027	1.406126
452.381	1.402760
452.734	1.399875
453.087	1.396555
453.440	1.392506
453.793	1.388873
454.146	1.385863
454.499	1.382441
454.852	1.378842
455.205	1.375350
455.558	1.372304
455.911	1.368940
456.264	1.365316
456.617	1.362492
456.970	1.358853
457.322	1.356151
457.675	1.353154
458.028	1.349985
458.380	1.346927
458.733	1.343948
459.086	1.341143
459.438	1.337896
459.791	1.334322
460.143	1.330929
460.496	1.328109
460.848	1.325046
461.200	1.322028
461.553	1.318646
461.905	1.315585
462.257	1.312109
462.609	1.309054
462.961	1.305843
463.314	1.302637
463.666	1.299868
464.018	1.296256
464.370	1.293271
464.722	1.289881
465.074	1.286628
465.426	1.283462
465.777	1.280575
466.129	1.277145
466.481	1.273946
466.833	1.271293
467.184	1.268820
467.536	1.265606
467.888	1.262174
468.239	1.258907
468.591	1.255307
468.943	1.251237
469.294	1.247238
469.646	1.243653
469.997	1.239677
470.348	1.236173
470.700	1.232931
471.051	1.229991
471.402	1.226929
471.754	1.223608
472.105	1.220526
472.456	1.217623
472.807	1.214594
473.158	1.211565
473.509	1.209207
473.860	1.206767
474.211	1.204124
474.562	1.201178
474.913	1.198649
475.264	1.196030
475.615	1.193500
475.966	1.191070
476.316	1.188640
476.667	1.185862
477.018	1.183546
477.368	1.180814
477.719	1.178082
478.070	1.175309
478.420	1.172556
478.771	1.169874
479.121	1.167354
479.472	1.164900
479.822	1.162204
480.172	1.159703
480.523	1.157272
480.873	1.154243
481.223	1.150781
481.573	1.147602
481.924	1.144500
482.274	1.141515
482.624	1.138712
482.974	1.136360
483.324	1.134271
483.674	1.132454
484.024	1.130968
484.374	1.129386
484.724	1.128030
485.073	1.126423
485.423	1.124780
485.773	1.123111
486.123	1.121510
486.472	1.119764
486.822	1.118111
487.172	1.116551
487.521	1.114953
487.871	1.113194
488.220	1.111575
488.570	1.109803
488.919	1.107453
489.268	1.104907
489.618	1.101990
489.967	1.098676
490.316	1.094893
490.666	1.090947
491.015	1.087249
491.364	1.083717
491.713	1.080146
492.062	1.076940
492.411	1.074223
492.760	1.071504
493.109	1.068661
493.458	1.066069
493.807	1.063650
494.156	1.060903
494.505	1.058233
494.853	1.055406
495.202	1.052621
495.551	1.049762
495.900	1.047102
496.248	1.044375
496.597	1.041639
496.945	1.039111
497.294	1.036443
497.642	1.033718
497.991	1.030884
498.339	1.028050
498.688	1.025406
499.036	1.023141
499.384	1.020653
499.732	1.018026
500.081	1.015494
500.429	1.012908
500.777	1.010243
501.125	1.007619
501.473	1.005344
501.821	1.002927
502.169	1.000595
502.517	0.998292
502.865	0.996045
503.213	0.993639
503.561	0.991341
503.908	0.989070
504.256	0.986547
504.604	0.984159
504.952	0.981735
505.299	0.979555
505.647	0.977386
505.994	0.974948
506.342	0.972414
506.689	0.970017
507.037	0.967703
507.384	0.965348
507.732	0.963226
508.079	0.960854
508.426	0.958601
508.774	0.956190
509.121	0.954009
509.468	0.951809
509.815	0.949688
510.162	0.947378
510.509	0.945163
510.856	0.943004
511.203	0.940950
511.550	0.938951
511.897	0.937037
512.244	0.935059
512.591	0.932871
512.938	0.930793
513.284	0.928825
513.631	0.926878
513.978	0.924894
514.324	0.922793
514.671	0.920763
515.018	0.918692
515.364	0.916791
515.711	0.914881
516.057	0.912819
516.403	0.910743
516.750	0.908859
517.096	0.906919
517.443	0.905202
517.789	0.903468
518.135	0.901699
518.481	0.899725
518.827	0.897850
519.173	0.895947
519.519	0.894161
519.865	0.892477
520.211	0.890748
520.557	0.888807
520.903	0.886835
521.249	0.885008
521.595	0.883167
521.941	0.881323
522.287	0.879329
522.632	0.877393
522.978	0.875469
523.324	0.873501
523.669	0.871749
524.015	0.869738
524.360	0.867775
524.706	0.865907
525.051	0.864047
525.397	0.862186
525.742	0.860330
526.087	0.858633
526.433	0.856767
526.778	0.855206
527.123	0.853413
527.468	0.851500
527.813	0.849875
528.158	0.848167
528.504	0.846180
528.849	0.844204
529.193	0.842179
529.538	0.840325
529.883	0.838469
530.228	0.836484
530.573	0.834694
530.918	0.832716
531.263	0.830782
531.607	0.828972
531.952	0.827033
532.296	0.825070
532.641	0.823216
532.986	0.821256
533.330	0.819197
533.675	0.817425
534.019	0.815258
534.363	0.813212
534.708	0.811294
535.052	0.809275
535.396	0.807296
535.741	0.805572
536.085	0.803652
536.429	0.801647
536.773	0.799535
537.117	0.797439
537.461	0.795135
537.805	0.792814
538.149	0.790402
538.493	0.787965
538.837	0.785464
539.181	0.782875
539.524	0.780337
539.868	0.777774
540.212	0.775314
540.556	0.772871
540.899	0.770244
541.243	0.767768
541.586	0.765289
541.930	0.762714
542.273	0.760155
542.617	0.757564
542.960	0.754771
543.304	0.751882
543.647	0.749033
543.990	0.746155
544.333	0.743209
544.677	0.740435
545.020	0.737605
545.363	0.734775
545.706	0.731949
546.049	0.729086
546.392	0.726273
546.735	0.723414
547.078	0.720430
547.421	0.717347
547.764	0.714169
548.106	0.710928
548.449	0.707519
548.792	0.704073
549.135	0.700695
549.477	0.697226
549.820	0.693920
550.162	0.690535
550.505	0.687301
550.847	0.683938
551.190	0.680415
551.532	0.676616
551.875	0.672653
552.217	0.668678
552.559	0.664761
552.901	0.660905
553.244	0.657085
553.586	0.653391
553.928	0.649800
554.270	0.646304
554.612	0.642820
554.954	0.639307
555.296	0.635686
555.638	0.632005
555.980	0.628046
556.322	0.623876
556.663	0.619599
557.005	0.615128
557.347	0.610835
557.689	0.606538
558.030	0.602363
558.372	0.598156
558.713	0.594122
559.055	0.590042
559.396	0.585870
559.738	0.581588
560.079	0.577290
560.421	0.573065
560.762	0.568877
561.103	0.564673
561.444	0.560542
561.786	0.556547
562.127	0.552536
562.468	0.548506
562.809	0.544333
563.150	0.540083
563.491	0.535782
563.832	0.531293
564.173	0.526697
564.514	0.521867
564.855	0.516951
565.195	0.511821
565.536	0.506759
565.877	0.501821
566.218	0.497011
566.558	0.492287
566.899	0.487794
567.239	0.483524
567.580	0.479489
567.920	0.475686
568.261	0.472189
568.601	0.468890
568.941	0.465719
569.282	0.462657
569.622	0.459678
569.962	0.456713
570.302	0.453758
570.643	0.450860
570.983	0.448126
571.323	0.445478
571.663	0.442901
572.003	0.440351
572.343	0.437814
572.683	0.435123
573.022	0.432294
573.362	0.429320
573.702	0.426329
574.042	0.423337
574.381	0.420423
574.721	0.417591
575.061	0.414889
575.400	0.412341
575.740	0.409820
576.079	0.407336
576.419	0.404745
576.758	0.402026
577.097	0.399222
577.437	0.396323
577.776	0.393361
578.115	0.390409
578.454	0.387643
578.794	0.385126
579.133	0.382857
579.472	0.380788
579.811	0.378887
580.150	0.376999
580.489	0.375071
580.828	0.373013
581.167	0.370883
581.505	0.368721
581.844	0.366555
582.183	0.364358
582.522	0.362214
582.860	0.360145
583.199	0.358164
583.538	0.356299
583.876	0.354478
584.215	0.352636
584.553	0.350779
584.891	0.348966
585.230	0.347106
585.568	0.345141
585.906	0.343120
586.245	0.341105
586.583	0.339169
586.921	0.337359
587.259	0.335716
587.597	0.334163
587.935	0.332562
588.273	0.330859
588.611	0.328952
588.949	0.326913
589.287	0.324848
589.625	0.322734
589.963	0.320716
590.300	0.318767
590.638	0.316935
590.976	0.315137
591.313	0.313344
591.651	0.311551
591.989	0.309738
592.326	0.308045
592.664	0.306502
593.001	0.305028
593.338	0.303649
593.676	0.302364
594.013	0.301112
594.350	0.299869
594.687	0.298675
595.025	0.297537
595.362	0.296369
595.699	0.295178
596.036	0.293963
596.373	0.292763
596.710	0.291506
597.047	0.290184
597.384	0.288868
597.720	0.287530
598.057	0.286251
598.394	0.284974
598.731	0.283679
599.067	0.282439
599.404	0.281195
599.741	0.279933
600.077	0.278736
600.414	0.277631
600.750	0.276643
601.087	0.275698
601.423	0.274743
601.759	0.273781
602.096	0.272806
602.432	0.271869
602.768	0.270908
603.104	0.269958
603.440	0.268961
603.776	0.268043
604.112	0.267136
604.448	0.266259
604.784	0.265415
605.120	0.264531
605.456	0.263702
605.792	0.262929
606.128	0.262118
606.463	0.261321
606.799	0.260506
607.135	0.259670
607.470	0.258882
607.806	0.258024
608.142	0.257209
608.477	0.256420
608.812	0.255637
609.148	0.254890
609.483	0.254102
609.819	0.253342
610.154	0.252567
610.489	0.251776
610.824	0.250986
611.159	0.250235
611.494	0.249461
611.830	0.248771
612.165	0.248174
612.500	0.247550
612.834	0.246960
613.169	0.246374
613.504	0.245742
613.839	0.245111
614.174	0.244502
614.509	0.243851
614.843	0.243215
615.178	0.242592
615.512	0.242061
615.847	0.241478
616.182	0.240948
616.516	0.240454
616.850	0.239944
617.185	0.239435
617.519	0.238914
617.853	0.238391
618.188	0.237774
618.522	0.237156
618.856	0.236452
619.190	0.235724
619.524	0.235065
619.858	0.234417
620.192	0.233821
620.526	0.233247
620.860	0.232807
621.194	0.232275
621.528	0.231733
621.862	0.231233
622.195	0.230816
622.529	0.230215
622.863	0.229712
623.196	0.229193
623.530	0.228741
623.864	0.228268
624.197	0.227805
624.530	0.227365
624.864	0.226917
625.197	0.226556
625.531	0.226162
625.864	0.225788
626.197	0.225373
626.530	0.224941
626.863	0.224472
627.196	0.223983
627.529	0.223482
627.862	0.222887
628.195	0.222372
628.528	0.221842
628.861	0.221318
629.194	0.220753
629.527	0.220284
629.860	0.219852
630.192	0.219309
630.525	0.218724
630.858	0.218198
631.190	0.217719
631.523	0.217146
631.855	0.216494
632.188	0.215903
632.520	0.215372
632.852	0.214833
633.185	0.214283
633.517	0.213832
633.849	0.213358
634.182	0.212925
634.514	0.212579
634.846	0.212213
635.178	0.211876
635.510	0.211552
635.842	0.211199
636.174	0.210844
636.506	0.210537
636.837	0.210133
637.169	0.209788
637.501	0.209446
637.833	0.209151
638.164	0.208806
638.496	0.208473
638.828	0.208120
639.159	0.207685
639.491	0.207222
639.822	0.206681
640.154	0.206162
640.485	0.205506
640.816	0.204882
641.147	0.204273
641.479	0.203671
641.810	0.203108
642.141	0.202532
642.472	0.201963
642.803	0.201408
643.134	0.200804
643.465	0.200264
643.796	0.199742
644.127	0.199238
644.458	0.198816
644.789	0.198338
645.119	0.198024
645.450	0.197871
645.781	0.197881
646.111	0.197958
646.442	0.198020
646.773	0.198008
647.103	0.198004
647.433	0.198035
647.764	0.197913
648.094	0.197770
648.425	0.197657
648.755	0.197579
649.085	0.197418
649.415	0.197366
649.745	0.197298
650.075	0.197265
650.405	0.197138
650.735	0.195441
651.065	0.186147
651.395	0.177313
651.725	0.162411
652.055	0.122947
652.385	0.091071
652.715	0.071126
653.044	0.057467
653.374	0.047554
653.704	0.041511
654.033	0.054777
654.363	0.062692
654.692	0.067351
655.022	0.070142
655.351	0.071873
655.680	0.072908
656.010	0.073470
656.339	0.073712
656.668	0.073770
656.997	0.073720
657.326	0.073602
657.655	0.073429
657.984	0.072343
658.313	0.067596
658.642	0.061102
658.971	0.065170
659.300	0.076290
659.629	0.091174
659.958	0.112125
660.286	0.143864
660.615	0.192893
660.944	0.191887
661.272	0.190355
661.601	0.189307
661.929	0.188604
662.258	0.188036
662.586	0.187475
662.915	0.186820
663.243	0.186058
663.571	0.185245
663.899	0.184723
664.228	0.184263
664.556	0.183833
664.884	0.183509
665.212	0.183124
665.540	0.182881
665.868	0.182583
666.196	0.182276
666.524	0.181992
666.852	0.181720
667.179	0.181412
667.507	0.181106
667.835	0.180918
668.162	0.180705
668.490	0.180508
668.818	0.180358
669.145	0.180207
669.473	0.180099
669.800	0.180069
670.127	0.180089
670.455	0.180160
670.782	0.180165
671.109	0.180073
671.436	0.180066
671.764	0.180021
672.091	0.179987
672.418	0.179833
672.745	0.179673
673.072	0.179623
673.399	0.179461
673.726	0.179351
674.053	0.179302
674.379	0.179207
674.706	0.178999
675.033	0.178792
675.359	0.178559
675.686	0.178293
676.013	0.178036
676.339	0.177656
676.666	0.177240
676.992	0.176870
677.318	0.176615
677.645	0.176403
677.971	0.176230
678.297	0.176105
678.624	0.175937
678.950	0.175741
679.276	0.175608
679.602	0.175343
679.928	0.175077
680.254	0.174836
680.580	0.174555
680.906	0.174207
681.232	0.173972
681.558	0.173852
681.883	0.173793
682.209	0.173790
682.535	0.173757
682.860	0.173715
683.186	0.173756
683.511	0.173676
683.837	0.173525
684.162	0.173324
684.488	0.173131
684.813	0.172988
685.138	0.172697
685.464	0.172495
685.789	0.172259
686.114	0.172044
686.439	0.171946
686.764	0.171835
687.089	0.171774
687.414	0.171744
687.739	0.171724
688.064	0.171605
688.389	0.171424
688.714	0.171198
689.039	0.170876
689.363	0.170674
689.688	0.170434
690.013	0.170050
690.337	0.169818
690.662	0.169623
690.986	0.169511
691.311	0.169319
691.635	0.169135
691.959	0.169006
692.284	0.168723
692.608	0.168507
692.932	0.168368
693.256	0.168211
693.580	0.168074
693.904	0.167921
694.228	0.167777
694.552	0.167767
694.876	0.167741
695.200	0.167663
695.524	0.167455
695.848	0.167278
696.172	0.166982
696.495	0.166632
696.819	0.166485
697.143	0.166118
697.466	0.165826
697.790	0.165464
698.113	0.165139
698.437	0.164812
698.760	0.164532
699.083	0.164429
699.407	0.164288
699.730	0.164056
700.053	0.163958
700.376	0.163799
700.699	0.163527
701.022	0.163160
701.345	0.162596
701.668	0.161897
701.991	0.161264
702.314	0.160596
702.637	0.159873
702.960	0.159211
703.283	0.158660
703.605	0.158015
703.928	0.157833
704.251	0.157707
704.573	0.157541
704.896	0.157501
705.218	0.157309
705.540	0.157129
705.863	0.156808
706.185	0.156468
706.507	0.155996
706.830	0.155460
707.152	0.154841
707.474	0.154358
707.796	0.153883
708.118	0.153452
708.440	0.153178
708.762	0.152953
709.084	0.152777
709.406	0.152642
709.728	0.152471
710.049	0.152314
710.371	0.152191
710.693	0.151852
711.014	0.151516
711.336	0.151267
711.658	0.150905
711.979	0.150728
712.301	0.150522
712.622	0.150447
712.943	0.150310
713.265	0.150223
713.586	0.150088
713.907	0.150074
714.228	0.150066
714.549	0.150048
714.870	0.150062
715.191	0.150042
715.512	0.150025
715.833	0.150061
716.154	0.150051
716.475	0.149968
716.796	0.149848
717.117	0.149627
717.437	0.149340
717.758	0.148943
718.078	0.148470
718.399	0.148159
718.719	0.147766
719.040	0.147423
719.360	0.147049
719.681	0.146745
720.001	0.146560
720.321	0.146442
720.642	0.146251
720.962	0.146034
721.282	0.145906
721.602	0.145811
721.922	0.145673
722.242	0.145464
722.562	0.145239
722.882	0.145077
723.202	0.145107
723.521	0.145044
723.841	0.145009
724.161	0.144999
724.481	0.145036
724.800	0.145015
725.120	0.144902
725.439	0.144887
725.759	0.144832
726.078	0.144800
726.398	0.144798
726.717	0.144845
727.036	0.144853
727.355	0.144926
727.675	0.145081
727.994	0.145280
728.313	0.145448
728.632	0.145617
728.951	0.145712
729.270	0.145718
729.589	0.145617
729.908	0.145398
730.226	0.145259
730.545	0.145159
730.864	0.145036
731.182	0.144876
731.501	0.144822
731.820	0.144807
732.138	0.144802
732.457	0.144683
732.775	0.144625
733.093	0.144557
733.412	0.144492
733.730	0.144425
734.048	0.144313
734.367	0.144050
734.685	0.143769
735.003	0.143401
735.321	0.143117
735.639	0.142873
735.957	0.142682
736.275	0.142563
736.593	0.142540
736.910	0.142433
737.228	0.142361
737.546	0.142299
737.863	0.142293
738.181	0.142162
738.499	0.141944
738.816	0.141706
739.134	0.141519
739.451	0.141353
739.768	0.141211
740.086	0.140973
740.403	0.140785
740.720	0.140598
741.038	0.140412
741.355	0.140164
741.672	0.139910
741.989	0.139580
742.306	0.139291
742.623	0.138994
742.940	0.138627
743.257	0.138075
743.573	0.137650
743.890	0.137055
744.207	0.136565
744.523	0.136196
744.840	0.135820
745.157	0.135517
745.473	0.135232
745.790	0.135050
746.106	0.134741
746.422	0.134469
746.739	0.134293
747.055	0.134097
747.371	0.133961
747.687	0.134001
748.004	0.134018
748.320	0.134093
748.636	0.134164
748.952	0.134202
749.268	0.134325
749.584	0.134437
749.899	0.134605
750.215	0.134682
750.531	0.134733
750.847	0.134933
751.162	0.134940
751.478	0.135063
751.793	0.135104
752.109	0.135078
752.424	0.135064
752.740	0.135084
753.055	0.135162
753.370	0.135215
753.686	0.135409
754.001	0.135682
754.316	0.135866
754.631	0.136112
754.946	0.136345
755.261	0.136558
755.576	0.136699
755.891	0.136664
756.206	0.136587
756.521	0.136563
756.836	0.136618
757.150	0.136767
757.465	0.136770
757.780	0.136792
758.094	0.136919
758.409	0.137016
758.723	0.137146
759.038	0.137237
759.352	0.137301
759.667	0.137306
759.981	0.137297
760.295	0.137125
760.609	0.136927
760.923	0.136822
761.238	0.136650
761.552	0.136480
761.866	0.136265
762.180	0.136220
762.493	0.136220
762.807	0.136242
763.121	0.136232
763.435	0.136148
763.749	0.135985
764.062	0.135813
764.376	0.135630
764.689	0.135301
765.003	0.135071
765.316	0.134876
765.630	0.134775
765.943	0.134706
766.257	0.134671
766.570	0.134567
766.883	0.134510
767.196	0.134390
767.509	0.134102
767.822	0.133879
768.135	0.133619
768.448	0.133398
768.761	0.133023
769.074	0.132820
769.387	0.132572
769.700	0.132358
770.013	0.132142
770.325	0.131949
770.638	0.131857
770.950	0.131718
771.263	0.131614
771.575	0.131451
771.888	0.131190
772.200	0.130925
772.513	0.130548
772.825	0.130129
773.137	0.129844
773.449	0.129575
773.761	0.129216
774.074	0.128928
774.386	0.128660
774.698	0.128408
775.010	0.128146
775.321	0.127946
775.633	0.127525
775.945	0.127417
776.257	0.127168
776.568	0.127040
776.880	0.127000
777.192	0.126924
777.503	0.126933
777.815	0.126926
778.126	0.126987
778.438	0.127129
778.749	0.127330
779.060	0.127623
779.372	0.127826
779.683	0.127985
779.994	0.128011
780.305	0.128125
780.616	0.128321
780.927	0.128347
781.238	0.128366
781.549	0.128431
781.860	0.128484
782.171	0.128579
782.481	0.128623
782.792	0.128666
783.103	0.128700
783.413	0.128680
783.724	0.128515
784.034	0.128547
784.345	0.128447
784.655	0.128360
784.966	0.128236
785.276	0.128095
785.586	0.127849
785.896	0.127742
786.207	0.127616
786.517	0.127620
786.827	0.127608
787.137	0.127489
787.447	0.127476
787.757	0.127523
788.066	0.127522
788.376	0.127509
788.686	0.127542
788.996	0.127502
789.305	0.127507
789.615	0.127429
789.925	0.127314
790.234	0.127386
790.544	0.127316
790.853	0.127366
791.162	0.127420
791.472	0.127581
791.781	0.127747
792.090	0.127860
792.399	0.127827
792.708	0.127769
793.017	0.127670
793.326	0.127501
793.635	0.127416
793.944	0.127205
794.253	0.126887
794.562	0.126586
794.871	0.126413
795.179	0.126234
795.488	0.126073
795.797	0.125941
796.105	0.125877
796.414	0.125921
796.722	0.125776
797.031	0.125622
797.339	0.125513
797.647	0.125178
797.956	0.124558
798.264	0.123891
798.572	0.123324
798.880	0.122976
799.188	0.122493
799.496	0.122093
799.804	0.121840
800.112	0.121615
800.420	0.121526
800.728	0.121504
801.035	0.121395
801.343	0.121193
801.651	0.120656
801.958	0.120273
802.266	0.120106
802.573	0.120059
802.881	0.119946
803.188	0.119964
803.496	0.120064
803.803	0.120058
804.110	0.120086
804.417	0.120268
804.724	0.120120
805.032	0.119996
805.339	0.119810
805.646	0.119835
805.953	0.119657
806.259	0.119620
806.566	0.119466
806.873	0.119342
807.180	0.119296
807.486	0.119327
807.793	0.119221
808.100	0.119427
808.406	0.119439
808.713	0.119339
809.019	0.118871
809.326	0.118494
809.632	0.118186
809.938	0.117554
810.244	0.116919
810.551	0.116514
810.857	0.115875
811.163	0.115663
811.469	0.115546
811.775	0.115355
812.081	0.115127
812.387	0.114988
812.692	0.114825
812.998	0.114780
813.304	0.114627
813.610	0.114526
813.915	0.114352
814.221	0.114268
814.526	0.114135
814.832	0.114083
815.137	0.113846
815.443	0.113886
815.748	0.113883
816.053	0.113515
816.358	0.113287
816.664	0.113273
816.969	0.113030
817.274	0.113334
817.579	0.113194
817.884	0.113015
818.189	0.112820
818.493	0.112734
818.798	0.112764
819.103	0.112446
819.408	0.112225
819.712	0.112085
820.017	0.111774
820.321	0.111519
820.626	0.111297
820.930	0.111016
821.235	0.110793
821.539	0.110667
821.843	0.110577
822.148	0.110304
822.452	0.110488
822.756	0.110563
823.060	0.110494
823.364	0.110573
823.668	0.110420
823.972	0.110298
824.276	0.110193
824.580	0.110208
824.883	0.110260
825.187	0.110315
825.491	0.110395
825.795	0.110236
826.098	0.110166
826.402	0.110003
826.705	0.110224
827.008	0.109968
827.312	0.109876
827.615	0.109605
827.918	0.109452
828.222	0.108903
828.525	0.108492
828.828	0.108250
829.131	0.108203
829.434	0.107713
829.737	0.107081
830.040	0.106154
830.343	0.105673
830.645	0.105076
830.948	0.104611
831.251	0.104056
831.553	0.103412
831.856	0.103031
832.159	0.102932
832.461	0.102844
832.764	0.102896
833.066	0.102078
833.368	0.101870
833.671	0.101453
833.973	0.101087
834.275	0.100837
834.577	0.100898
834.879	0.100884
835.181	0.100204
835.483	0.099454
835.785	0.099198
836.087	0.099000
836.389	0.099029
836.690	0.098396
836.992	0.097893
837.294	0.097002
837.595	0.096005
837.897	0.095192
838.198	0.094120
838.500	0.093191
838.801	0.092008
839.103	0.090791
839.404	0.090218
839.705	0.089626
840.006	0.089267
840.307	0.089222
840.608	0.088609
840.910	0.088609
841.210	0.088691
841.511	0.088901
841.812	0.089008
842.113	0.088850
842.414	0.088028
842.715	0.087725
843.015	0.087151
843.316	0.087006
843.616	0.086290
843.917	0.085468
844.217	0.085111
844.518	0.084688
844.818	0.083930
845.118	0.083895
845.419	0.084055
845.719	0.084423
846.019	0.083928
846.319	0.084010
846.619	0.083713
846.919	0.084047
847.219	0.084191
847.519	0.083884
847.819	0.083417
848.118	0.082779
848.418	0.082396
848.718	0.081823
849.017	0.081101
849.317	0.081874
849.616	0.081956
849.916	0.082775
850.215	0.083780
850.515	0.084554
850.814	0.085391
851.113	0.086020
851.412	0.086350
851.712	0.086569
852.011	0.086534
852.310	0.087240
852.609	0.087159
852.908	0.087208
853.206	0.087477
853.505	0.087627
853.804	0.087753
854.103	0.087976
854.401	0.088292
854.700	0.088297
854.999	0.088438
855.297	0.088594
855.595	0.088607
855.894	0.088522
856.192	0.088578
856.491	0.088245
856.789	0.087732
857.087	0.086982
857.385	0.086225
857.683	0.085720
857.981	0.085017
858.279	0.084576
858.577	0.083477
858.875	0.083012
859.173	0.082083
859.471	0.081242
859.768	0.080393
860.066	0.079474
860.363	0.078640
860.661	0.077431
860.959	0.077191
861.256	0.077343
861.553	0.076956
861.851	0.076317
862.148	0.075619
862.445	0.074880
862.742	0.074615
863.039	0.073654
863.337	0.073420
863.634	0.072775
863.931	0.071848
864.227	0.071807
864.524	0.071168
864.821	0.071273
865.118	0.070803
865.415	0.070782
865.711	0.069871
866.008	0.068951
866.304	0.068957
866.601	0.068597
866.897	0.068399
867.194	0.068158
867.490	0.067589
867.786	0.067297
868.082	0.066926
868.379	0.066272
868.675	0.065439
868.971	0.064888
869.267	0.064913
869.563	0.065558
869.859	0.066100
870.154	0.065742
870.450	0.065603
870.746	0.065730
871.042	0.065687
871.337	0.065919
871.633	0.065778
871.928	0.066206
872.224	0.066164
872.519	0.065463
872.815	0.065016
873.110	0.065284
873.405	0.064936
873.700	0.064994
873.995	0.064324
874.291	0.064264
874.586	0.065098
874.881	0.065130
875.175	0.065376
875.470	0.065406
875.765	0.064746
876.060	0.064494
876.355	0.064948
876.649	0.064693
876.944	0.064972
877.238	0.064750
877.533	0.065099
877.827	0.065792
878.122	0.066147
878.416	0.066430
878.710	0.066843
879.005	0.066842
879.299	0.066578
879.593	0.066584
879.887	0.066463
880.181	0.066335
880.475	0.066707
880.769	0.066078
881.063	0.066086
881.356	0.065855
881.650	0.065970
881.944	0.065567
882.238	0.060258
882.531	0.070370
882.825	0.062406
883.118	0.049686
883.412	0.073434
883.705	0.051767
883.998	0.055961
884.291	0.062440
884.585	0.060545
884.878	0.054365
>>>>>>>>>> END of Data <<<<<<<<<<
>>>>>>>>>> Raw Data Start <<<<<<<<
190.664	-408
191.040	9
191.415	9
191.791	5
192.166	9
192.542	14
192.917	7
193.293	10
193.668	10
194.044	10
194.419	-10
194.794	10
195.170	10
195.545	11
195.920	11
196.296	11
196.671	11
197.046	12
197.421	13
197.796	13
198.171	14
198.546	14
198.922	14
199.297	15
199.672	15
200.047	15
200.422	16
200.796	15
201.171	15
201.546	16
201.921	16
202.296	16
202.671	16
203.045	16
203.420	17
203.795	17
204.170	17
204.544	17
204.919	17
205.294	16
205.668	16
206.043	16
206.417	15
206.792	15
207.166	15
207.541	15
207.915	15
208.289	15
208.664	15
209.038	15
209.412	15
209.787	15
210.161	15
210.535	15
210.909	15
211.284	15
211.658	15
212.032	15
212.406	15
212.780	15
213.154	15
213.528	15
213.902	15
214.276	15
214.650	14
215.024	14
215.398	15
215.772	15
216.145	14
216.519	14
216.893	15
217.267	14
217.640	15
218.014	15
218.388	15
218.761	15
219.135	15
219.508	15
219.882	15
220.256	15
220.629	15
221.003	15
221.376	15
221.749	16
222.123	16
222.496	15
222.869	15
223.243	15
223.616	15
223.989	15
224.362	15
224.736	16
225.109	16
225.482	16
225.855	16
226.228	16
226.601	16
226.974	16
227.347	16
227.720	16
228.093	15
228.466	15
228.839	16
229.212	16
229.585	15
229.957	15
230.330	15
230.703	16
231.076	16
231.448	16
231.821	16
232.194	16
232.566	16
232.939	16
233.311	16
233.684	16
234.056	16
234.429	16
234.801	16
235.174	17
235.546	17
235.918	17
236.291	17
236.663	17
237.035	17
237.408	18
237.780	18
238.152	17
238.524	17
238.896	17
239.268	17
239.641	18
240.013	18
240.385	18
240.757	17
241.129	17
241.500	17
241.872	17
242.244	17
242.616	17
242.988	16
243.360	16
243.731	16
244.103	16
244.475	16
244.847	17
245.218	16
245.590	16
245.961	16
246.333	16
246.705	16
247.076	16
247.448	16
247.819	17
248.190	17
248.562	17
248.933	17
249.305	17
249.676	17
250.047	17
250.418	17
250.790	17
251.161	17
251.532	17
251.903	17
252.274	17
252.645	17
253.016	17
253.387	17
253.758	17
254.129	17
254.500	17
254.871	18
255.242	18
255.613	18
255.984	18
256.355	17
256.725	17
257.096	17
257.467	17
257.838	17
258.208	17
258.579	17
258.949	18
259.320	18
259.690	18
260.061	18
260.431	18
260.802	18
261.172	17
261.543	17
261.913	17
262.283	18
262.654	18
263.024	18
263.394	18
263.764	18
264.135	18
264.505	18
264.875	18
265.245	18
265.615	18
265.985	18
266.355	18
266.725	18
267.095	18
267.465	18
267.835	18
268.205	18
268.575	18
268.944	18
269.314	18
269.684	18
270.054	18
270.423	18
270.793	18
271.163	18
271.532	18
271.902	18
272.271	17
272.641	18
273.010	18
273.380	18
273.749	18
274.119	18
274.488	18
274.857	17
275.227	18
275.596	18
275.965	18
276.335	19
276.704	19
277.073	19
277.442	19
277.811	19
278.180	19
278.549	19
278.918	19
279.287	20
279.656	19
280.025	20
280.394	20
280.763	20
281.132	20
281.501	20
281.869	19
282.238	19
282.607	19
282.976	19
283.344	19
283.713	19
284.081	19
284.450	18
284.819	19
285.187	18
285.556	18
285.924	18
286.292	19
286.661	19
287.029	18
287.398	18
287.766	18
288.134	18
288.502	19
288.871	19
289.239	19
289.607	19
289.975	19
290.343	19
290.711	19
291.079	19
291.447	18
291.815	18
292.183	18
292.551	18
292.919	19
293.287	19
293.655	18
294.022	18
294.390	18
294.758	18
295.126	17
295.493	17
295.861	17
296.229	17
296.596	17
296.964	17
297.331	17
297.699	17
298.066	17
298.434	17
298.801	17
299.168	17
299.536	17
299.903	17
300.270	17
300.638	17
301.005	17
301.372	17
301.739	18
302.106	18
302.473	18
302.840	18
303.207	18
303.574	18
303.941	18
304.308	19
304.675	19
305.042	19
305.409	19
305.776	19
306.143	19
306.509	19
306.876	19
307.243	19
307.610	19
307.976	20
308.343	20
308.709	20
309.076	19
309.442	20
309.809	20
310.175	20
310.542	20
310.908	20
311.275	21
311.641	21
312.007	21
312.373	21
312.740	21
313.106	21
313.472	21
313.838	21
314.204	21
314.570	22
314.936	22
315.302	22
315.668	22
316.034	23
316.400	23
316.766	23
317.132	23
317.498	23
317.864	23
318.230	24
318.595	24
318.961	24
319.327	24
319.692	24
320.058	25
320.424	26
320.789	26
321.155	27
321.520	27
321.886	28
322.251	29
322.616	29
322.982	30
323.347	31
323.712	31
324.078	32
324.443	33
324.808	34
325.173	35
325.539	36
325.904	37
326.269	38
326.634	39
326.999	40
327.364	41
327.729	41
328.094	42
328.459	43
328.823	44
329.188	45
329.553	46
329.918	47
330.283	48
330.647	48
331.012	50
331.377	51
331.741	52
332.106	53
332.470	53
332.835	54
333.199	55
333.564	57
333.928	57
334.293	58
334.657	60
335.021	61
335.386	62
335.750	64
336.114	65
336.478	67
336.843	68
337.207	70
337.571	71
337.935	72
338.299	74
338.663	75
339.027	76
339.391	78
339.755	79
340.119	81
340.483	83
340.846	84
341.210	85
341.574	87
341.938	88
342.301	89
342.665	91
343.029	92
343.392	93
343.756	94
344.119	95
344.483	96
344.846	98
345.210	99
345.573	100
345.937	102
346.300	103
346.663	104
347.027	105
347.390	106
347.753	107
348.116	108
348.479	110
348.843	111
349.206	112
349.569	113
349.932	114
350.295	116
350.658	116
351.021	117
351.383	118
351.746	119
352.109	120
352.472	120
352.835	121
353.197	122
353.560	122
353.923	124
354.285	125
354.648	126
355.011	127
355.373	127
355.736	128
356.098	129
356.461	130
356.823	131
357.185	131
357.548	131
357.910	132
358.272	133
358.635	135
358.997	135
359.359	136
359.721	137
360.083	137
360.445	138
360.807	139
361.169	140
361.531	140
361.893	140
362.255	141
362.617	141
362.979	141
363.341	142
363.703	143
364.064	143
364.426	144
364.788	144
365.149	145
365.511	146
365.873	146
366.234	146
366.596	146
366.957	147
367.319	147
367.680	148
368.042	148
368.403	148
368.764	148
369.126	149
369.487	149
369.848	149
370.209	149
370.570	149
370.931	149
371.293	149
371.654	149
372.015	148
372.376	148
372.737	149
373.098	149
373.458	149
373.819	149
374.180	149
374.541	149
374.902	150
375.263	150
375.623	150
375.984	151
376.345	151
376.705	152
377.066	152
377.426	152
377.787	153
378.147	153
378.508	153
378.868	154
379.228	154
379.589	155
379.949	155
380.309	155
380.670	155
381.030	155
381.390	155
381.750	156
382.110	156
382.470	156
382.830	156
383.190	155
383.550	156
383.910	155
384.270	156
384.630	156
384.990	157
385.350	157
385.709	157
386.069	157
386.429	158
386.788	158
387.148	158
387.508	157
387.867	158
388.227	158
388.586	159
388.946	159
389.305	159
389.665	160
390.024	160
390.383	161
390.743	162
391.102	162
391.461	162
391.820	162
392.179	162
392.539	163
392.898	162
393.257	163
393.616	163
393.975	163
394.334	164
394.693	165
395.051	166
395.410	166
395.769	167
396.128	167
396.487	168
396.845	168
397.204	168
397.563	168
397.921	168
398.280	168
398.638	168
398.997	168
399.355	168
399.714	168
400.072	169
400.431	169
400.789	169
401.147	170
401.506	171
401.864	171
402.222	171
402.580	171
402.938	170
403.297	170
403.655	170
404.013	169
404.371	169
404.729	169
405.087	169
405.444	169
405.802	169
406.160	169
406.518	170
406.876	169
407.233	169
407.591	169
407.949	168
408.306	168
408.664	168
409.022	168
409.379	168
409.737	168
410.094	168
410.451	168
410.809	169
411.166	169
411.523	169
411.881	170
412.238	170
412.595	170
412.952	170
413.310	170
413.667	170
414.024	170
414.381	170
414.738	170
415.095	171
415.452	171
415.809	172
416.165	172
416.522	172
416.879	172
417.236	173
417.593	173
417.949	175
418.306	176
418.663	177
419.019	179
419.376	181
419.732	182
420.089	183
420.445	184
420.802	186
421.158	187
421.514	188
421.871	189
422.227	190
422.583	191
422.939	192
423.295	192
423.652	193
424.008	193
424.364	194
424.720	194
425.076	194
425.432	194
425.788	194
426.143	194
426.499	195
426.855	195
427.211	196
427.567	196
427.922	197
428.278	197
428.634	197
428.989	197
429.345	198
429.700	198
430.056	199
430.411	199
430.767	200
431.122	202
431.478	202
431.833	203
432.188	204
432.543	204
432.899	205
433.254	205
433.609	205
433.964	205
434.319	205
434.674	205
435.029	205
435.384	205
435.739	205
436.094	206
436.449	207
436.804	209
437.158	210
437.513	212
437.868	214
438.223	216
438.577	218
438.932	221
439.287	223
439.641	226
439.996	228
440.350	231
440.704	233
441.059	236
441.413	239
441.768	241
442.122	244
442.476	246
442.830	249
443.185	251
443.539	254
443.893	256
444.247	258
444.601	259
444.955	261
445.309	262
445.663	263
446.017	264
446.371	265
446.724	265
447.078	265
447.432	266
447.786	266
448.139	267
448.493	267
448.847	267
449.200	267
449.554	266
449.907	267
450.261	267
450.614	267
450.968	267
451.321	267
451.674	268
452.027	268
452.381	269
452.734	269
453.087	270
453.440	271
453.793	272
454.146	273
454.499	275
454.852	278
455.205	281
455.558	283
455.911	286
456.264	289
456.617	292
456.970	295
457.322	297
457.675	299
458.028	301
458.380	303
458.733	305
459.086	307
459.438	309
459.791	312
460.143	315
460.496	319
460.848	322
461.200	326
461.553	331
461.905	335
462.257	339
462.609	343
462.961	346
463.314	349
463.666	352
464.018	355
464.370	357
464.722	360
465.074	363
465.426	366
465.777	369
466.129	371
466.481	373
466.833	375
467.184	375
467.536	376
467.888	376
468.239	376
468.591	377
468.943	377
469.294	379
469.646	380
469.997	382
470.348	385
470.700	388
471.051	392
471.402	397
471.754	403
472.105	409
472.456	415
472.807	423
473.158	431
473.509	439
473.860	448
474.211	457
474.562	467
474.913	477
475.264	488
475.615	499
475.966	509
476.316	519
476.667	530
477.018	540
477.368	552
477.719	563
478.070	574
478.420	584
478.771	595
479.121	605
479.472	615
479.822	625
480.172	637
480.523	649
480.873	667
481.223	696
481.573	739
481.924	792
482.274	852
482.624	915
482.974	978
483.324	1033
483.674	1076
484.024	1105
484.374	1124
484.724	1137
485.073	1146
485.423	1155
485.773	1163
486.123	1170
486.472	1178
486.822	1185
487.172	1191
487.521	1196
487.871	1199
488.220	1197
488.570	1183
488.919	1156
489.268	1118
489.618	1073
489.967	1024
490.316	975
490.666	933
491.015	903
491.364	886
491.713	879
492.062	878
492.411	880
492.760	884
493.109	889
493.458	893
493.807	897
494.156	901
494.505	904
494.853	909
495.202	914
495.551	920
495.900	927
496.248	933
496.597	940
496.945	947
497.294	953
497.642	960
497.991	968
498.339	978
498.688	987
499.036	996
499.384	1004
499.732	1012
500.081	1018
500.429	1025
500.777	1031
501.125	1037
501.473	1042
501.821	1048
502.169	1053
502.517	1058
502.865	1061
503.213	1064
503.561	1066
503.908	1068
504.256	1070
504.604	1072
504.952	1073
505.299	1072
505.647	1071
505.994	1070
506.342	1068
506.689	1067
507.037	1065
507.384	1065
507.732	1064
508.079	1065
508.426	1065
508.774	1066
509.121	1066
509.468	1066
509.815	1065
510.162	1065
510.509	1065
510.856	1064
511.203	1063
511.550	1062
511.897	1061
512.244	1060
512.591	1059
512.938	1058
513.284	1058
513.631	1056
513.978	1055
514.324	1053
514.671	1051
515.018	1049
515.364	1047
515.711	1046
516.057	1044
516.403	1043
516.750	1041
517.096	1039
517.443	1035
517.789	1032
518.135	1029
518.481	1027
518.827	1025
519.173	1023
519.519	1020
519.865	1018
520.211	1016
520.557	1015
520.903	1014
521.249	1014
521.595	1013
521.941	1012
522.287	1012
522.632	1011
522.978	1011
523.324	1011
523.669	1011
524.015	1012
524.360	1015
524.706	1019
525.051	1024
525.397	1030
525.742	1036
526.087	1042
526.433	1049
526.778	1054
527.123	1059
527.468	1063
527.813	1066
528.158	1070
528.504	1075
528.849	1081
529.193	1090
529.538	1099
529.883	1111
530.228	1123
530.573	1138
530.918	1153
531.263	1168
531.607	1182
531.952	1195
532.296	1205
532.641	1214
532.986	1222
533.330	1229
533.675	1236
534.019	1246
534.363	1258
534.708	1271
535.052	1287
535.396	1304
535.741	1319
536.085	1333
536.429	1347
536.773	1358
537.117	1367
537.461	1376
537.805	1383
538.149	1392
538.493	1401
538.837	1411
539.181	1422
539.524	1436
539.868	1453
540.212	1470
540.556	1489
540.899	1509
541.243	1527
541.586	1542
541.930	1555
542.273	1565
542.617	1572
542.960	1581
543.304	1592
543.647	1605
543.990	1622
544.333	1641
544.677	1660
545.020	1679
545.363	1695
545.706	1708
546.049	1718
546.392	1725
546.735	1728
547.078	1731
547.421	1735
547.764	1739
548.106	1745
548.449	1753
548.792	1764
549.135	1778
549.477	1796
549.820	1813
550.162	1829
550.505	1841
550.847	1851
551.190	1859
551.532	1866
551.875	1874
552.217	1883
552.559	1893
552.901	1907
553.244	1922
553.586	1939
553.928	1956
554.270	1972
554.612	1985
554.954	1997
555.296	2008
555.638	2018
555.980	2030
556.322	2043
556.663	2061
557.005	2084
557.347	2112
557.689	2142
558.030	2171
558.372	2199
558.713	2224
559.055	2248
559.396	2273
559.738	2299
560.079	2327
560.421	2358
560.762	2393
561.103	2431
561.444	2473
561.786	2516
562.127	2562
562.468	2612
562.809	2666
563.150	2726
563.491	2790
563.832	2862
564.173	2942
564.514	3036
564.855	3146
565.195	3281
565.536	3442
565.877	3628
566.218	3838
566.558	4075
566.899	4336
567.239	4617
567.580	4912
567.920	5217
568.261	5525
568.601	5841
568.941	6168
569.282	6506
569.622	6857
569.962	7222
570.302	7613
570.643	8019
570.983	8427
571.323	8824
571.663	9208
572.003	9575
572.343	9920
572.683	10248
573.022	10583
573.362	10937
573.702	11305
574.042	11674
574.381	12030
574.721	12371
575.061	12698
575.400	12997
575.740	13267
576.079	13509
576.419	13750
576.758	14024
577.097	14344
577.437	14694
577.776	15067
578.115	15458
578.454	15853
578.794	16217
579.133	16504
579.472	16708
579.811	16833
580.150	16889
580.489	16891
580.828	16869
581.167	16851
581.505	16847
581.844	16851
582.183	16856
582.522	16872
582.860	16896
583.199	16919
583.538	16917
583.876	16862
584.215	16738
584.553	16535
584.891	16257
585.230	15911
585.568	15527
585.906	15134
586.245	14781
586.583	14478
586.921	14230
587.259	14005
587.597	13776
587.935	13538
588.273	13294
588.611	13068
588.949	12872
589.287	12709
589.625	12585
589.963	12490
590.300	12417
590.638	12351
590.976	12275
591.313	12182
591.651	12093
591.989	12018
592.326	11959
592.664	11909
593.001	11870
593.338	11850
593.676	11845
594.013	11862
594.350	11917
594.687	12002
595.025	12097
595.362	12184
595.699	12249
596.036	12294
596.373	12312
596.710	12299
597.047	12266
597.384	12223
597.720	12172
598.057	12133
598.394	12107
598.731	12098
599.067	12108
599.404	12139
599.741	12199
600.077	12279
600.414	12367
600.750	12458
601.087	12529
601.423	12567
601.759	12577
602.096	12564
602.432	12535
602.768	12487
603.104	12417
603.440	12330
603.776	12235
604.112	12132
604.448	12026
604.784	11914
605.120	11795
605.456	11678
605.792	11555
606.128	11426
606.463	11293
606.799	11159
607.135	11037
607.470	10916
607.806	10797
608.142	10680
608.477	10568
608.812	10459
609.148	10350
609.483	10235
609.819	10117
610.154	10004
610.489	9900
610.824	9810
611.159	9735
611.494	9659
611.830	9593
612.165	9526
612.500	9452
612.834	9365
613.169	9265
613.504	9155
613.839	9032
614.174	8892
614.509	8750
614.843	8609
615.178	8476
615.512	8342
615.847	8212
616.182	8082
616.516	7950
616.850	7811
617.185	7667
617.519	7520
617.853	7362
618.188	7198
618.522	7048
618.856	6921
619.190	6811
619.524	6715
619.858	6638
620.192	6578
620.526	6525
620.860	6472
621.194	6421
621.528	6372
621.862	6322
622.195	6260
622.529	6196
622.863	6129
623.196	6061
623.530	5992
623.864	5924
624.197	5854
624.530	5786
624.864	5725
625.197	5662
625.531	5590
625.864	5502
626.197	5409
626.530	5308
626.863	5194
627.196	5071
627.529	4946
627.862	4823
628.195	4701
628.528	4580
628.861	4464
629.194	4360
629.527	4261
629.860	4163
630.192	4066
630.525	3976
630.858	3892
631.190	3812
631.523	3735
631.855	3663
632.188	3600
632.520	3542
632.852	3487
633.185	3430
633.517	3375
633.849	3326
634.182	3281
634.514	3238
634.846	3199
635.178	3165
635.510	3135
635.842	3108
636.174	3081
636.506	3054
636.837	3028
637.169	3002
637.501	2975
637.833	2944
638.164	2910
638.496	2872
638.828	2829
639.159	2781
639.491	2729
639.822	2675
640.154	2620
640.485	2567
640.816	2514
641.147	2461
641.479	2410
641.810	2360
642.141	2312
642.472	2265
642.803	2218
643.134	2174
643.465	2136
643.796	2106
644.127	2085
644.458	2074
644.789	2074
645.119	2086
645.450	2106
645.781	2128
646.111	2149
646.442	2168
646.773	2183
647.103	2195
647.433	2205
647.764	2215
648.094	2230
648.425	2248
648.755	2270
649.085	2295
649.415	2321
649.745	2349
650.075	2378
650.405	2410
650.735	2480
651.065	2982
651.395	4543
651.725	7142
652.055	10486
652.385	14145
652.715	17804
653.044	21464
653.374	25129
653.704	28701
654.033	30968
654.363	32532
654.692	33569
655.022	34244
655.351	34685
655.680	34958
656.010	35107
656.339	35173
656.668	35191
656.997	35183
657.326	35156
657.655	35080
657.984	34561
658.313	32977
658.642	30345
658.971	26961
659.300	23257
659.629	19553
659.958	15850
660.286	12147
660.615	8541
660.944	6249
661.272	4662
661.601	3605
661.929	2907
662.258	2438
662.586	2132
662.915	1946
663.243	1839
663.571	1778
663.899	1741
664.228	1718
664.556	1703
664.884	1693
665.212	1686
665.540	1680
665.868	1678
666.196	1677
666.524	1677
666.852	1679
667.179	1686
667.507	1700
667.835	1719
668.162	1745
668.490	1776
668.818	1813
669.145	1852
669.473	1891
669.800	1927
670.127	1959
670.455	1985
670.782	2007
671.109	2027
671.436	2043
671.764	2057
672.091	2068
672.418	2078
672.745	2086
673.072	2094
673.399	2104
673.726	2114
674.053	2122
674.379	2124
674.706	2124
675.033	2123
675.359	2121
675.686	2117
676.013	2115
676.339	2117
676.666	2125
676.992	2141
677.318	2164
677.645	2189
677.971	2213
678.297	2234
678.624	2255
678.950	2275
679.276	2294
679.602	2312
679.928	2331
680.254	2354
680.580	2384
680.906	2423
681.232	2470
681.558	2519
681.883	2568
682.209	2613
682.535	2655
682.860	2693
683.186	2724
683.511	2750
683.837	2765
684.162	2779
684.488	2789
684.813	2800
685.138	2811
685.464	2819
685.789	2827
686.114	2835
686.439	2845
686.764	2855
687.089	2862
687.414	2863
687.739	2854
688.064	2838
688.389	2816
688.714	2791
689.039	2763
689.363	2734
689.688	2702
690.013	2672
690.337	2645
690.662	2622
690.986	2602
691.311	2582
691.635	2561
691.959	2541
692.284	2529
692.608	2525
692.932	2530
693.256	2539
693.580	2550
693.904	2564
694.228	2581
694.552	2596
694.876	2603
695.200	2601
695.524	2590
695.848	2574
696.172	2554
696.495	2532
696.819	2509
697.143	2486
697.466	2462
697.790	2442
698.113	2428
698.437	2421
698.760	2420
699.083	2419
699.407	2413
699.730	2401
700.053	2381
700.376	2354
700.699	2316
701.022	2268
701.345	2217
701.668	2169
701.991	2129
702.314	2101
702.637	2088
702.960	2094
703.283	2116
703.605	2155
703.928	2207
704.251	2266
704.573	2326
704.896	2378
705.218	2422
705.540	2456
705.863	2484
706.185	2507
706.507	2527
706.830	2545
707.152	2565
707.474	2586
707.796	2609
708.118	2634
708.440	2658
708.762	2679
709.084	2695
709.406	2704
709.728	2706
710.049	2701
710.371	2689
710.693	2671
711.014	2651
711.336	2632
711.658	2615
711.979	2599
712.301	2585
712.622	2570
712.943	2551
713.265	2530
713.586	2507
713.907	2485
714.228	2466
714.549	2451
714.870	2440
715.191	2435
715.512	2434
715.833	2431
716.154	2424
716.475	2413
716.796	2397
717.117	2374
717.437	2348
717.758	2318
718.078	2288
718.399	2258
718.719	2232
719.040	2209
719.360	2191
719.681	2179
720.001	2170
720.321	2166
720.642	2163
720.962	2165
721.282	2170
721.602	2176
721.922	2184
722.242	2195
722.562	2209
722.882	2226
723.202	2241
723.521	2255
723.841	2270
724.161	2285
724.481	2300
724.800	2316
725.120	2336
725.439	2360
725.759	2388
726.078	2419
726.398	2457
726.717	2505
727.036	2558
727.355	2614
727.675	2669
727.994	2721
728.313	2771
728.632	2814
728.951	2850
729.270	2880
729.589	2909
729.908	2945
730.226	2985
730.545	3029
730.864	3077
731.182	3129
731.501	3181
731.820	3231
732.138	3274
732.457	3312
732.775	3346
733.093	3374
733.412	3391
733.730	3395
734.048	3387
734.367	3371
734.685	3351
735.003	3327
735.321	3306
735.639	3289
735.957	3275
736.275	3262
736.593	3244
736.910	3216
737.228	3178
737.546	3129
737.863	3070
738.181	3006
738.499	2939
738.816	2874
739.134	2809
739.451	2743
739.768	2677
740.086	2614
740.403	2555
740.720	2500
741.038	2448
741.355	2399
741.672	2349
741.989	2299
742.306	2247
742.623	2194
742.940	2141
743.257	2093
743.573	2050
743.890	2016
744.207	1991
744.523	1973
744.840	1961
745.157	1954
745.473	1952
745.790	1959
746.106	1974
746.422	1997
746.739	2025
747.055	2059
747.371	2098
747.687	2138
748.004	2177
748.320	2211
748.636	2240
748.952	2271
749.268	2301
749.584	2330
749.899	2355
750.215	2382
750.531	2413
750.847	2446
751.162	2481
751.478	2514
751.793	2548
752.109	2585
752.424	2625
752.740	2665
753.055	2711
753.370	2766
753.686	2830
754.001	2899
754.316	2972
754.631	3048
754.946	3129
755.261	3214
755.576	3297
755.891	3378
756.206	3457
756.521	3541
756.836	3626
757.150	3707
757.465	3779
757.780	3841
758.094	3892
758.409	3932
758.723	3957
759.038	3967
759.352	3967
759.667	3955
759.981	3935
760.295	3915
760.609	3899
760.923	3889
761.238	3882
761.552	3878
761.866	3873
762.180	3864
762.493	3843
762.807	3802
763.121	3740
763.435	3663
763.749	3578
764.062	3498
764.376	3431
764.689	3386
765.003	3361
765.316	3357
765.630	3369
765.943	3387
766.257	3410
766.570	3428
766.883	3433
767.196	3424
767.509	3402
767.822	3369
768.135	3326
768.448	3280
768.761	3233
769.074	3190
769.387	3159
769.700	3138
770.013	3127
770.325	3117
770.638	3103
770.950	3077
771.263	3036
771.575	2978
771.888	2904
772.200	2819
772.513	2726
772.825	2629
773.137	2530
773.449	2432
773.761	2337
774.074	2249
774.386	2171
774.698	2105
775.010	2051
775.321	2012
775.633	1987
775.945	1972
776.257	1964
776.568	1962
776.880	1968
777.192	1982
777.503	2003
777.815	2030
778.126	2064
778.438	2106
778.749	2150
779.060	2193
779.372	2233
779.683	2273
779.994	2309
780.305	2337
780.616	2356
780.927	2368
781.238	2372
781.549	2367
781.860	2351
782.171	2330
782.481	2306
782.792	2281
783.103	2257
783.413	2231
783.724	2204
784.034	2176
784.345	2152
784.655	2129
784.966	2106
785.276	2082
785.586	2059
785.896	2036
786.207	2011
786.517	1985
786.827	1960
787.137	1936
787.447	1912
787.757	1890
788.066	1868
788.376	1848
788.686	1827
788.996	1806
789.305	1786
789.615	1769
789.925	1760
790.234	1758
790.544	1762
790.853	1771
791.162	1780
791.472	1788
791.781	1791
792.090	1787
792.399	1776
792.708	1759
793.017	1741
793.326	1722
793.635	1705
793.944	1690
794.253	1677
794.562	1667
794.871	1662
795.179	1657
795.488	1652
795.797	1643
796.105	1628
796.414	1603
796.722	1571
797.031	1529
797.339	1478
797.647	1421
797.956	1362
798.264	1307
798.572	1262
798.880	1226
799.188	1201
799.496	1182
799.804	1168
800.112	1157
800.420	1148
800.728	1138
801.035	1127
801.343	1113
801.651	1103
801.958	1100
802.266	1105
802.573	1114
802.881	1126
803.188	1141
803.496	1157
803.803	1174
804.110	1190
804.417	1203
804.724	1215
805.032	1226
805.339	1236
805.646	1242
805.953	1246
806.259	1246
806.566	1244
806.873	1240
807.180	1234
807.486	1227
807.793	1220
808.100	1207
808.406	1187
808.713	1160
809.019	1128
809.326	1097
809.632	1066
809.938	1038
810.244	1012
810.551	990
810.857	972
811.163	956
811.469	939
811.775	921
812.081	902
812.387	885
812.692	872
812.998	861
813.304	853
813.610	847
813.915	842
814.221	837
814.526	833
814.832	830
815.137	827
815.443	822
815.748	813
816.053	803
816.358	792
816.664	782
816.969	773
817.274	765
817.579	758
817.884	754
818.189	754
818.493	753
818.798	751
819.103	747
819.408	739
819.712	731
820.017	721
820.321	712
820.626	702
820.930	693
821.235	687
821.539	684
821.843	684
822.148	686
822.452	687
822.756	686
823.060	684
823.364	680
823.668	674
823.972	667
824.276	660
824.580	654
824.883	651
825.187	650
825.491	650
825.795	650
826.098	650
826.402	650
826.705	647
827.008	643
827.312	636
827.615	626
827.918	613
828.222	598
828.525	584
828.828	570
829.131	555
829.434	541
829.737	528
830.040	518
830.343	509
830.645	502
830.948	495
831.251	487
831.553	481
831.856	476
832.159	471
832.461	464
832.764	458
833.066	452
833.368	447
833.671	443
833.973	440
834.275	437
834.577	434
834.879	430
835.181	426
835.483	422
835.785	416
836.087	409
836.389	400
836.690	390
836.992	379
837.294	368
837.595	356
837.897	344
838.198	332
838.500	320
838.801	310
839.103	302
839.404	294
839.705	287
840.006	282
840.307	278
840.608	275
840.910	272
841.210	271
841.511	268
841.812	266
842.113	263
842.414	259
842.715	255
843.015	249
843.316	244
843.616	239
843.917	235
844.217	231
844.518	227
844.818	225
845.118	223
845.419	222
845.719	220
846.019	219
846.319	218
846.619	217
846.919	216
847.219	215
847.519	213
847.819	213
848.118	213
848.418	215
848.718	222
849.017	233
849.317	248
849.616	266
849.916	287
850.215	311
850.515	336
850.814	360
851.113	383
851.412	403
851.712	421
852.011	439
852.310	455
852.609	469
852.908	482
853.206	493
853.505	503
853.804	512
854.103	520
854.401	525
854.700	528
854.999	526
855.297	519
855.595	508
855.894	494
856.192	476
856.491	455
856.789	433
857.087	410
857.385	389
857.683	369
857.981	352
858.279	336
858.577	320
858.875	307
859.173	296
859.471	287
859.768	280
860.066	274
860.363	268
860.661	265
860.959	261
861.256	258
861.553	254
861.851	249
862.148	244
862.445	239
862.742	235
863.039	231
863.337	228
863.634	225
863.931	224
864.227	222
864.524	222
864.821	222
865.118	221
865.415	219
865.711	216
866.008	213
866.304	209
866.601	205
866.897	201
867.194	198
867.490	196
867.786	195
868.082	195
868.379	196
868.675	197
868.971	197
869.267	197
869.563	197
869.859	196
870.154	196
870.450	195
870.746	194
871.042	193
871.337	192
871.633	193
871.928	193
872.224	195
872.519	197
872.815	198
873.110	199
873.405	198
873.700	198
873.995	197
874.291	197
874.586	198
874.881	199
875.175	201
875.470	204
875.765	208
876.060	212
876.355	216
876.649	220
876.944	224
877.238	228
877.533	231
877.827	234
878.122	236
878.416	237
878.710	237
879.005	236
879.299	235
879.593	234
879.887	233
880.181	232
880.475	231
880.769	229
881.063	227
881.356	225
881.650	221
881.944	218
882.238	181
882.531	170
882.825	170
883.118	178
883.412	171
883.705	177
883.998	181
884.291	184
884.585	185
884.878	196
>>>>>>>>>> END of Data <<<<<<<<<<