Date	2021年06月15日火曜日 04時24分31秒
Spectrometers	USB2+H05879
ダーク	使用
リファレンス	使用
積分時間[msec]	10
平均回数	280
ｽﾑｰｼﾞﾝｸﾞ	10
Electrical Dark	USE
ピクセル数	2048
計測モード	吸光度
保存開始波長[nm]	190.664
保存終了波長[nm]	884.878
保存ﾋﾟｯﾁ波長[nm]	全波長

>>>>>>>>>> Data Start <<<<<<<<<<<<
190.664	0.000000
191.040	0.000000
191.415	0.000000
191.791	-2.469377
192.166	-0.573835
192.542	-1.032590
192.917	0.000000
193.293	-0.701582
193.668	-0.578254
194.044	-1.097039
194.419	0.000000
194.794	-1.422410
195.170	-1.328088
195.545	-1.233718
195.920	-1.105971
196.296	-0.984862
196.671	-0.816169
197.046	-0.660879
197.421	-0.601277
197.796	-0.597491
198.171	-0.567451
198.546	-0.521181
198.922	-0.476551
199.297	-0.450925
199.672	-0.428033
200.047	-0.413828
200.422	-0.385670
200.796	-0.380474
201.171	-0.361616
201.546	-0.355989
201.921	-0.347386
202.296	-0.332843
202.671	-0.306477
203.045	-0.288090
203.420	-0.280080
203.795	-0.266192
204.170	-0.262601
204.544	-0.258853
204.919	-0.261411
205.294	-0.257905
205.668	-0.240841
206.043	-0.220520
206.417	-0.221849
206.792	-0.211583
207.166	-0.214507
207.541	-0.216318
207.915	-0.225133
208.289	-0.211487
208.664	-0.203390
209.038	-0.208524
209.412	-0.191830
209.787	-0.171289
210.161	-0.168644
210.535	-0.167415
210.909	-0.155046
211.284	-0.147481
211.658	-0.150499
212.032	-0.151546
212.406	-0.154647
212.780	-0.153393
213.154	-0.150547
213.528	-0.146918
213.902	-0.146836
214.276	-0.141027
214.650	-0.144096
215.024	-0.137557
215.398	-0.134324
215.772	-0.116281
216.145	-0.109710
216.519	-0.101710
216.893	-0.091318
217.267	-0.097203
217.640	-0.106746
218.014	-0.089522
218.388	-0.087146
218.761	-0.095424
219.135	-0.089916
219.508	-0.091728
219.882	-0.092842
220.256	-0.090773
220.629	-0.089265
221.003	-0.088528
221.376	-0.090019
221.749	-0.095439
222.123	-0.100322
222.496	-0.102701
222.869	-0.092832
223.243	-0.088220
223.616	-0.091132
223.989	-0.100680
224.362	-0.101096
224.736	-0.101426
225.109	-0.099022
225.482	-0.095573
225.855	-0.098071
226.228	-0.105335
226.601	-0.109301
226.974	-0.104507
227.347	-0.094840
227.720	-0.091059
228.093	-0.094195
228.466	-0.094523
228.839	-0.095229
229.212	-0.094679
229.585	-0.106513
229.957	-0.106198
230.330	-0.100723
230.703	-0.096597
231.076	-0.097498
231.448	-0.103032
231.821	-0.099147
232.194	-0.102089
232.566	-0.105229
232.939	-0.110752
233.311	-0.116546
233.684	-0.116561
234.056	-0.115094
234.429	-0.110468
234.801	-0.113805
235.174	-0.111646
235.546	-0.114414
235.918	-0.114345
236.291	-0.113656
236.663	-0.106415
237.035	-0.100528
237.408	-0.082790
237.780	-0.070490
238.152	-0.069247
238.524	-0.080526
238.896	-0.079451
239.268	-0.073140
239.641	-0.076865
240.013	-0.065319
240.385	-0.061232
240.757	-0.058959
241.129	-0.054015
241.500	-0.058290
241.872	-0.046838
242.244	-0.042822
242.616	-0.043592
242.988	-0.042228
243.360	-0.031437
243.731	-0.026451
244.103	-0.024198
244.475	-0.029240
244.847	-0.033577
245.218	-0.033899
245.590	-0.033081
245.961	-0.033287
246.333	-0.027439
246.705	-0.030295
247.076	-0.029853
247.448	-0.022481
247.819	-0.024969
248.190	-0.016345
248.562	-0.015283
248.933	-0.015815
249.305	-0.015821
249.676	-0.016289
250.047	-0.017067
250.418	-0.016221
250.790	-0.019056
251.161	-0.026095
251.532	-0.034031
251.903	-0.035920
252.274	-0.026807
252.645	-0.022284
253.016	-0.024668
253.387	-0.030020
253.758	-0.034152
254.129	-0.037347
254.500	-0.028805
254.871	-0.027582
255.242	-0.031497
255.613	-0.038178
255.984	-0.043602
256.355	-0.044927
256.725	-0.041429
257.096	-0.039621
257.467	-0.039401
257.838	-0.040727
258.208	-0.042316
258.579	-0.036605
258.949	-0.035184
259.320	-0.025940
259.690	-0.020963
260.061	-0.016396
260.431	-0.013545
260.802	-0.014580
261.172	-0.013541
261.543	0.001066
261.913	0.004382
262.283	-0.001818
262.654	-0.003833
263.024	-0.004103
263.394	-0.000601
263.764	0.000866
264.135	0.008149
264.505	0.008752
264.875	0.010829
265.245	0.007078
265.615	0.010670
265.985	0.015633
266.355	0.015119
266.725	0.013699
267.095	0.014391
267.465	0.016848
267.835	0.004100
268.205	-0.005675
268.575	-0.002658
268.944	0.000997
269.314	-0.010591
269.684	-0.012773
270.054	-0.016471
270.423	-0.011172
270.793	-0.003976
271.163	0.002857
271.532	-0.000201
271.902	-0.002763
272.271	-0.001186
272.641	-0.001590
273.010	-0.001724
273.380	-0.008909
273.749	-0.010751
274.119	-0.007291
274.488	-0.003597
274.857	0.003401
275.227	0.000736
275.596	0.005047
275.965	0.017568
276.335	0.022765
276.704	0.019284
277.073	0.017953
277.442	0.022532
277.811	0.030541
278.180	0.032179
278.549	0.027102
278.918	0.018611
279.287	0.026602
279.656	0.028418
280.025	0.030699
280.394	0.029290
280.763	0.034980
281.132	0.043485
281.501	0.048097
281.869	0.043309
282.238	0.043090
282.607	0.035710
282.976	0.037293
283.344	0.040447
283.713	0.033883
284.081	0.027926
284.450	0.031316
284.819	0.037397
285.187	0.041073
285.556	0.043690
285.924	0.038678
286.292	0.038434
286.661	0.041771
287.029	0.033984
287.398	0.040051
287.766	0.032459
288.134	0.035412
288.502	0.031785
288.871	0.033009
289.239	0.036126
289.607	0.040162
289.975	0.039835
290.343	0.045070
290.711	0.045261
291.079	0.043376
291.447	0.046127
291.815	0.048028
292.183	0.051620
292.551	0.050991
292.919	0.051788
293.287	0.051081
293.655	0.056565
294.022	0.061451
294.390	0.064842
294.758	0.069510
295.126	0.063629
295.493	0.072349
295.861	0.073940
296.229	0.076803
296.596	0.076863
296.964	0.072152
297.331	0.069599
297.699	0.075602
298.066	0.077311
298.434	0.080604
298.801	0.082734
299.168	0.082193
299.536	0.084832
299.903	0.079885
300.270	0.084403
300.638	0.089835
301.005	0.095535
301.372	0.101538
301.739	0.105246
302.106	0.109886
302.473	0.117123
302.840	0.128259
303.207	0.139717
303.574	0.155486
303.941	0.166998
304.308	0.175403
304.675	0.189131
305.042	0.206863
305.409	0.222024
305.776	0.235663
306.143	0.250789
306.509	0.267072
306.876	0.292165
307.243	0.318979
307.610	0.344473
307.976	0.364239
308.343	0.385766
308.709	0.413164
309.076	0.436600
309.442	0.463130
309.809	0.487603
310.175	0.513254
310.542	0.534871
310.908	0.558735
311.275	0.577300
311.641	0.600296
312.007	0.626874
312.373	0.645515
312.740	0.668661
313.106	0.693290
313.472	0.720702
313.838	0.745743
314.204	0.765675
314.570	0.780428
314.936	0.794464
315.302	0.812845
315.668	0.831861
316.034	0.852425
316.400	0.871174
316.766	0.885771
317.132	0.905436
317.498	0.921445
317.864	0.931575
318.230	0.945819
318.595	0.958012
318.961	0.970077
319.327	0.983344
319.692	0.992288
320.058	1.002502
320.424	1.009169
320.789	1.016149
321.155	1.022229
321.520	1.027885
321.886	1.039419
322.251	1.045552
322.616	1.051379
322.982	1.058852
323.347	1.062832
323.712	1.066865
324.078	1.068053
324.443	1.070655
324.808	1.070368
325.173	1.073389
325.539	1.077040
325.904	1.079450
326.269	1.080959
326.634	1.082674
326.999	1.083753
327.364	1.085418
327.729	1.087680
328.094	1.089090
328.459	1.089620
328.823	1.090096
329.188	1.091361
329.553	1.089474
329.918	1.090376
330.283	1.091909
330.647	1.091360
331.012	1.091950
331.377	1.092370
331.741	1.091284
332.106	1.092138
332.470	1.092556
332.835	1.092430
333.199	1.092498
333.564	1.092561
333.928	1.092558
334.293	1.092972
334.657	1.092370
335.021	1.093331
335.386	1.093412
335.750	1.093906
336.114	1.094060
336.478	1.093082
336.843	1.092165
337.207	1.093242
337.571	1.094258
337.935	1.094011
338.299	1.093886
338.663	1.093460
339.027	1.093467
339.391	1.094590
339.755	1.094219
340.119	1.094114
340.483	1.093904
340.846	1.094722
341.210	1.094921
341.574	1.095373
341.938	1.094953
342.301	1.095645
342.665	1.095647
343.029	1.095661
343.392	1.096273
343.756	1.096101
344.119	1.097171
344.483	1.098406
344.846	1.098421
345.210	1.098971
345.573	1.099137
345.937	1.099797
346.300	1.100539
346.663	1.100612
347.027	1.101385
347.390	1.102238
347.753	1.102398
348.116	1.103260
348.479	1.103529
348.843	1.103914
349.206	1.104018
349.569	1.104625
349.932	1.105140
350.295	1.105286
350.658	1.106035
351.021	1.106690
351.383	1.107721
351.746	1.107905
352.109	1.108195
352.472	1.108457
352.835	1.108456
353.197	1.109320
353.560	1.109770
353.923	1.109957
354.285	1.110569
354.648	1.110669
355.011	1.110780
355.373	1.111575
355.736	1.111832
356.098	1.111966
356.461	1.112448
356.823	1.112712
357.185	1.113461
357.548	1.114107
357.910	1.114330
358.272	1.114249
358.635	1.113740
358.997	1.113738
359.359	1.114963
359.721	1.115215
360.083	1.116221
360.445	1.116645
360.807	1.116980
361.169	1.117364
361.531	1.117882
361.893	1.118478
362.255	1.119188
362.617	1.120117
362.979	1.120523
363.341	1.120769
363.703	1.121006
364.064	1.121609
364.426	1.122419
364.788	1.122887
365.149	1.123330
365.511	1.123893
365.873	1.124665
366.234	1.125407
366.596	1.126244
366.957	1.126190
367.319	1.126768
367.680	1.127203
368.042	1.127419
368.403	1.127728
368.764	1.128213
369.126	1.128357
369.487	1.128472
369.848	1.128379
370.209	1.128696
370.570	1.129347
370.931	1.130191
371.293	1.130612
371.654	1.130688
372.015	1.131321
372.376	1.132029
372.737	1.132413
373.098	1.133172
373.458	1.133999
373.819	1.134879
374.180	1.135645
374.541	1.136376
374.902	1.136810
375.263	1.137336
375.623	1.137665
375.984	1.138406
376.345	1.138554
376.705	1.139443
377.066	1.140295
377.426	1.141099
377.787	1.141448
378.147	1.141773
378.508	1.141557
378.868	1.142215
379.228	1.142887
379.589	1.142895
379.949	1.142890
380.309	1.143027
380.670	1.143348
381.030	1.143181
381.390	1.143046
381.750	1.142612
382.110	1.142690
382.470	1.143042
382.830	1.142822
383.190	1.143303
383.550	1.143378
383.910	1.143800
384.270	1.143827
384.630	1.144063
384.990	1.144191
385.350	1.144362
385.709	1.144420
386.069	1.144923
386.429	1.144790
386.788	1.144687
387.148	1.145047
387.508	1.145139
387.867	1.145017
388.227	1.144734
388.586	1.144678
388.946	1.144817
389.305	1.144800
389.665	1.144672
390.024	1.144471
390.383	1.144484
390.743	1.144238
391.102	1.143903
391.461	1.143497
391.820	1.143205
392.179	1.142484
392.539	1.142031
392.898	1.141656
393.257	1.141181
393.616	1.140838
393.975	1.140551
394.334	1.140290
394.693	1.139720
395.051	1.139344
395.410	1.138957
395.769	1.138613
396.128	1.138147
396.487	1.137367
396.845	1.136734
397.204	1.135875
397.563	1.135075
397.921	1.134247
398.280	1.133372
398.638	1.132207
398.997	1.131635
399.355	1.130687
399.714	1.129859
400.072	1.128759
400.431	1.127605
400.789	1.126490
401.147	1.125363
401.506	1.124073
401.864	1.122907
402.222	1.121408
402.580	1.119931
402.938	1.118809
403.297	1.117263
403.655	1.115989
404.013	1.114821
404.371	1.113601
404.729	1.112201
405.087	1.110808
405.444	1.109571
405.802	1.108212
406.160	1.107214
406.518	1.105694
406.876	1.104302
407.233	1.102800
407.591	1.101530
407.949	1.100364
408.306	1.099123
408.664	1.097831
409.022	1.096609
409.379	1.095179
409.737	1.093779
410.094	1.092058
410.451	1.090389
410.809	1.088875
411.166	1.087246
411.523	1.085697
411.881	1.084344
412.238	1.082804
412.595	1.081306
412.952	1.079486
413.310	1.077893
413.667	1.076255
414.024	1.074723
414.381	1.073291
414.738	1.071532
415.095	1.069765
415.452	1.067861
415.809	1.066109
416.165	1.064076
416.522	1.062127
416.879	1.059879
417.236	1.057867
417.593	1.056163
417.949	1.054228
418.306	1.052295
418.663	1.050778
419.019	1.048852
419.376	1.046852
419.732	1.045018
420.089	1.043160
420.445	1.041411
420.802	1.039851
421.158	1.037986
421.514	1.035980
421.871	1.034036
422.227	1.032202
422.583	1.030385
422.939	1.028356
423.295	1.026449
423.652	1.024622
424.008	1.022586
424.364	1.020509
424.720	1.018672
425.076	1.016470
425.432	1.014113
425.788	1.011866
426.143	1.009277
426.499	1.006976
426.855	1.004674
427.211	1.002490
427.567	1.000212
427.922	0.998127
428.278	0.995267
428.634	0.993089
428.989	0.990986
429.345	0.988702
429.700	0.986602
430.056	0.984633
430.411	0.982666
430.767	0.980442
431.122	0.978154
431.478	0.976025
431.833	0.973832
432.188	0.971562
432.543	0.969389
432.899	0.967039
433.254	0.964532
433.609	0.962077
433.964	0.959518
434.319	0.956839
434.674	0.954131
435.029	0.951514
435.384	0.948664
435.739	0.946383
436.094	0.943979
436.449	0.941453
436.804	0.939073
437.158	0.936440
437.513	0.933622
437.868	0.930847
438.223	0.928207
438.577	0.925534
438.932	0.923043
439.287	0.920585
439.641	0.917990
439.996	0.915270
440.350	0.912931
440.704	0.910574
441.059	0.908043
441.413	0.905496
441.768	0.902783
442.122	0.900437
442.476	0.897814
442.830	0.895433
443.185	0.892979
443.539	0.890508
443.893	0.888045
444.247	0.885514
444.601	0.883131
444.955	0.880622
445.309	0.878024
445.663	0.875237
446.017	0.872678
446.371	0.869793
446.724	0.867068
447.078	0.864370
447.432	0.861857
447.786	0.859129
448.139	0.856323
448.493	0.853519
448.847	0.850686
449.200	0.848050
449.554	0.845397
449.907	0.842985
450.261	0.840236
450.614	0.837515
450.968	0.834666
451.321	0.831910
451.674	0.829199
452.027	0.826324
452.381	0.823633
452.734	0.820952
453.087	0.818376
453.440	0.815407
453.793	0.812859
454.146	0.810111
454.499	0.807490
454.852	0.804698
455.205	0.801954
455.558	0.799393
455.911	0.796952
456.264	0.794504
456.617	0.792066
456.970	0.789542
457.322	0.787088
457.675	0.784854
458.028	0.782586
458.380	0.780430
458.733	0.778260
459.086	0.776070
459.438	0.773882
459.791	0.771578
460.143	0.769221
460.496	0.766902
460.848	0.764650
461.200	0.762202
461.553	0.759874
461.905	0.757637
462.257	0.755356
462.609	0.753237
462.961	0.751130
463.314	0.748994
463.666	0.746823
464.018	0.744609
464.370	0.742570
464.722	0.740539
465.074	0.738423
465.426	0.736558
465.777	0.734726
466.129	0.732785
466.481	0.730901
466.833	0.729072
467.184	0.727381
467.536	0.725598
467.888	0.723685
468.239	0.721747
468.591	0.719713
468.943	0.717498
469.294	0.715091
469.646	0.712790
469.997	0.710402
470.348	0.708253
470.700	0.706066
471.051	0.704069
471.402	0.702111
471.754	0.700089
472.105	0.698042
472.456	0.696279
472.807	0.694411
473.158	0.692620
473.509	0.691005
473.860	0.689273
474.211	0.687646
474.562	0.685972
474.913	0.684360
475.264	0.682752
475.615	0.681112
475.966	0.679516
476.316	0.677930
476.667	0.676402
477.018	0.674849
477.368	0.673295
477.719	0.671641
478.070	0.670124
478.420	0.668523
478.771	0.666918
479.121	0.665369
479.472	0.663875
479.822	0.662261
480.172	0.660636
480.523	0.658956
480.873	0.656984
481.223	0.654761
481.573	0.652456
481.924	0.650244
482.274	0.648037
482.624	0.646109
482.974	0.644534
483.324	0.643240
483.674	0.642208
484.024	0.641170
484.374	0.640128
484.724	0.639130
485.073	0.638159
485.423	0.637145
485.773	0.636124
486.123	0.635106
486.472	0.634050
486.822	0.633017
487.172	0.632045
487.521	0.631010
487.871	0.629990
488.220	0.629025
488.570	0.628041
488.919	0.626848
489.268	0.625372
489.618	0.623798
489.967	0.622001
490.316	0.619843
490.666	0.617442
491.015	0.615122
491.364	0.613013
491.713	0.611127
492.062	0.609332
492.411	0.607533
492.760	0.605948
493.109	0.604344
493.458	0.602858
493.807	0.601337
494.156	0.599780
494.505	0.598100
494.853	0.596541
495.202	0.594876
495.551	0.593233
495.900	0.591647
496.248	0.590020
496.597	0.588395
496.945	0.586881
497.294	0.585356
497.642	0.583869
497.991	0.582345
498.339	0.580718
498.688	0.579227
499.036	0.577812
499.384	0.576392
499.732	0.574991
500.081	0.573466
500.429	0.572036
500.777	0.570543
501.125	0.569169
501.473	0.567746
501.821	0.566406
502.169	0.565095
502.517	0.563776
502.865	0.562476
503.213	0.561114
503.561	0.559885
503.908	0.558681
504.256	0.557402
504.604	0.556105
504.952	0.554765
505.299	0.553443
505.647	0.552156
505.994	0.550820
506.342	0.549460
506.689	0.548062
507.037	0.546690
507.384	0.545411
507.732	0.544069
508.079	0.542782
508.426	0.541454
508.774	0.540176
509.121	0.538899
509.468	0.537711
509.815	0.536552
510.162	0.535409
510.509	0.534228
510.856	0.533050
511.203	0.531922
511.550	0.530753
511.897	0.529621
512.244	0.528509
512.591	0.527368
512.938	0.526195
513.284	0.524948
513.631	0.523758
513.978	0.522624
514.324	0.521487
514.671	0.520288
515.018	0.519137
515.364	0.517964
515.711	0.516847
516.057	0.515692
516.403	0.514614
516.750	0.513447
517.096	0.512331
517.443	0.511156
517.789	0.510094
518.135	0.508920
518.481	0.507816
518.827	0.506756
519.173	0.505575
519.519	0.504416
519.865	0.503322
520.211	0.502304
520.557	0.501255
520.903	0.500134
521.249	0.499037
521.595	0.497944
521.941	0.496814
522.287	0.495711
522.632	0.494533
522.978	0.493337
523.324	0.492187
523.669	0.490945
524.015	0.489740
524.360	0.488464
524.706	0.487287
525.051	0.486078
525.397	0.484881
525.742	0.483681
526.087	0.482484
526.433	0.481332
526.778	0.480268
527.123	0.479164
527.468	0.477952
527.813	0.476804
528.158	0.475655
528.504	0.474450
528.849	0.473188
529.193	0.472053
529.538	0.470752
529.883	0.469516
530.228	0.468160
530.573	0.466898
530.918	0.465675
531.263	0.464403
531.607	0.463209
531.952	0.462010
532.296	0.460787
532.641	0.459657
532.986	0.458386
533.330	0.457092
533.675	0.455919
534.019	0.454592
534.363	0.453257
534.708	0.451997
535.052	0.450790
535.396	0.449637
535.741	0.448469
536.085	0.447206
536.429	0.445846
536.773	0.444601
537.117	0.443290
537.461	0.441936
537.805	0.440424
538.149	0.438887
538.493	0.437344
538.837	0.435932
539.181	0.434385
539.524	0.432847
539.868	0.431247
540.212	0.429708
540.556	0.428200
540.899	0.426700
541.243	0.425220
541.586	0.423734
541.930	0.422230
542.273	0.420651
542.617	0.418949
542.960	0.417238
543.304	0.415558
543.647	0.413895
543.990	0.412127
544.333	0.410366
544.677	0.408690
545.020	0.407104
545.363	0.405490
545.706	0.403881
546.049	0.402197
546.392	0.400545
546.735	0.398849
547.078	0.397152
547.421	0.395370
547.764	0.393581
548.106	0.391710
548.449	0.389810
548.792	0.387905
549.135	0.386004
549.477	0.384147
549.820	0.382405
550.162	0.380657
550.505	0.378843
550.847	0.377016
551.190	0.375116
551.532	0.373151
551.875	0.371080
552.217	0.368948
552.559	0.366905
552.901	0.364881
553.244	0.362835
553.586	0.360852
553.928	0.358978
554.270	0.357181
554.612	0.355427
554.954	0.353667
555.296	0.351786
555.638	0.349871
555.980	0.347869
556.322	0.345728
556.663	0.343505
557.005	0.341213
557.347	0.339030
557.689	0.336866
558.030	0.334728
558.372	0.332598
558.713	0.330511
559.055	0.328471
559.396	0.326371
559.738	0.324232
560.079	0.322067
560.421	0.319956
560.762	0.317896
561.103	0.315828
561.444	0.313750
561.786	0.311712
562.127	0.309678
562.468	0.307642
562.809	0.305575
563.150	0.303445
563.491	0.301264
563.832	0.299026
564.173	0.296757
564.514	0.294334
564.855	0.291867
565.195	0.289321
565.536	0.286813
565.877	0.284299
566.218	0.281884
566.558	0.279555
566.899	0.277289
567.239	0.275186
567.580	0.273275
567.920	0.271548
568.261	0.269954
568.601	0.268486
568.941	0.267069
569.282	0.265733
569.622	0.264396
569.962	0.263042
570.302	0.261736
570.643	0.260512
570.983	0.259352
571.323	0.258260
571.663	0.257213
572.003	0.256200
572.343	0.255156
572.683	0.253999
573.022	0.252795
573.362	0.251538
573.702	0.250280
574.042	0.249098
574.381	0.247913
574.721	0.246755
575.061	0.245638
575.400	0.244608
575.740	0.243544
576.079	0.242498
576.419	0.241355
576.758	0.240168
577.097	0.238948
577.437	0.237684
577.776	0.236352
578.115	0.235047
578.454	0.233796
578.794	0.232710
579.133	0.231754
579.472	0.230883
579.811	0.230094
580.150	0.229295
580.489	0.228476
580.828	0.227583
581.167	0.226643
581.505	0.225748
581.844	0.224842
582.183	0.223910
582.522	0.222982
582.860	0.222096
583.199	0.221238
583.538	0.220444
583.876	0.219689
584.215	0.218958
584.553	0.218224
584.891	0.217547
585.230	0.216831
585.568	0.216053
585.906	0.215184
586.245	0.214268
586.583	0.213402
586.921	0.212610
587.259	0.211942
587.597	0.211301
587.935	0.210633
588.273	0.209883
588.611	0.208984
588.949	0.208020
589.287	0.207056
589.625	0.206071
589.963	0.205156
590.300	0.204305
590.638	0.203533
590.976	0.202772
591.313	0.202001
591.651	0.201198
591.989	0.200352
592.326	0.199565
592.664	0.198886
593.001	0.198225
593.338	0.197636
593.676	0.197107
594.013	0.196575
594.350	0.196058
594.687	0.195543
595.025	0.195135
595.362	0.194663
595.699	0.194185
596.036	0.193689
596.373	0.193183
596.710	0.192671
597.047	0.192114
597.384	0.191559
597.720	0.190994
598.057	0.190437
598.394	0.189859
598.731	0.189289
599.067	0.188732
599.404	0.188177
599.741	0.187618
600.077	0.187099
600.414	0.186618
600.750	0.186183
601.087	0.185795
601.423	0.185371
601.759	0.184954
602.096	0.184470
602.432	0.184070
602.768	0.183647
603.104	0.183235
603.440	0.182797
603.776	0.182405
604.112	0.182009
604.448	0.181652
604.784	0.181294
605.120	0.180940
605.456	0.180599
605.792	0.180291
606.128	0.179983
606.463	0.179690
606.799	0.179363
607.135	0.179030
607.470	0.178698
607.806	0.178304
608.142	0.177954
608.477	0.177629
608.812	0.177282
609.148	0.176963
609.483	0.176608
609.819	0.176264
610.154	0.175896
610.489	0.175534
610.824	0.175154
611.159	0.174841
611.494	0.174467
611.830	0.174192
612.165	0.173946
612.500	0.173716
612.834	0.173500
613.169	0.173265
613.504	0.172950
613.839	0.172635
614.174	0.172317
614.509	0.172016
614.843	0.171709
615.178	0.171375
615.512	0.171103
615.847	0.170864
616.182	0.170659
616.516	0.170452
616.850	0.170264
617.185	0.170052
617.519	0.169856
617.853	0.169653
618.188	0.169344
618.522	0.169054
618.856	0.168675
619.190	0.168324
619.524	0.167995
619.858	0.167673
620.192	0.167377
620.526	0.167134
620.860	0.166943
621.194	0.166689
621.528	0.166392
621.862	0.166159
622.195	0.165974
622.529	0.165662
622.863	0.165345
623.196	0.165043
623.530	0.164815
623.864	0.164567
624.197	0.164358
624.530	0.164111
624.864	0.163867
625.197	0.163689
625.531	0.163490
625.864	0.163247
626.197	0.162966
626.530	0.162734
626.863	0.162401
627.196	0.162115
627.529	0.161816
627.862	0.161470
628.195	0.161180
628.528	0.160882
628.861	0.160573
629.194	0.160262
629.527	0.159946
629.860	0.159717
630.192	0.159403
630.525	0.158979
630.858	0.158629
631.190	0.158275
631.523	0.157906
631.855	0.157425
632.188	0.157033
632.520	0.156684
632.852	0.156398
633.185	0.156103
633.517	0.155772
633.849	0.155508
634.182	0.155254
634.514	0.155127
634.846	0.154958
635.178	0.154770
635.510	0.154650
635.842	0.154460
636.174	0.154229
636.506	0.154092
636.837	0.153887
637.169	0.153684
637.501	0.153527
637.833	0.153369
638.164	0.153208
638.496	0.152974
638.828	0.152774
639.159	0.152498
639.491	0.152177
639.822	0.151783
640.154	0.151422
640.485	0.150961
640.816	0.150480
641.147	0.150104
641.479	0.149451
641.810	0.149030
642.141	0.148664
642.472	0.148212
642.803	0.147834
643.134	0.147456
643.465	0.147040
643.796	0.146667
644.127	0.146399
644.458	0.146186
644.789	0.145925
645.119	0.145827
645.450	0.145836
645.781	0.146042
646.111	0.146288
646.442	0.146407
646.773	0.146566
647.103	0.146609
647.433	0.146676
647.764	0.146702
648.094	0.146599
648.425	0.146732
648.755	0.146764
649.085	0.146692
649.415	0.146709
649.745	0.146757
650.075	0.146737
650.405	0.146781
650.735	0.145457
651.065	0.137330
651.395	0.130440
651.725	0.118196
652.055	0.080801
652.385	0.059968
652.715	0.046646
653.044	0.037405
653.374	0.030655
653.704	0.025512
654.033	0.035366
654.363	0.041683
654.692	0.045313
655.022	0.047426
655.351	0.048695
655.680	0.049432
656.010	0.049818
656.339	0.049981
656.668	0.050004
656.997	0.049962
657.326	0.049859
657.655	0.049726
657.984	0.048946
658.313	0.045186
658.642	0.040231
658.971	0.046490
659.300	0.054506
659.629	0.065144
659.958	0.079947
660.286	0.101964
660.615	0.138248
660.944	0.139463
661.272	0.137785
661.601	0.137085
661.929	0.137336
662.258	0.138142
662.586	0.139090
662.915	0.139838
663.243	0.140016
663.571	0.139983
663.899	0.139820
664.228	0.139709
664.556	0.139629
664.884	0.139511
665.212	0.139343
665.540	0.139195
665.868	0.139078
666.196	0.138983
666.524	0.138914
666.852	0.138833
667.179	0.138698
667.507	0.138708
667.835	0.138738
668.162	0.138685
668.490	0.138718
668.818	0.138785
669.145	0.138844
669.473	0.138886
669.800	0.139073
670.127	0.139321
670.455	0.139399
670.782	0.139473
671.109	0.139543
671.436	0.139619
671.764	0.139653
672.091	0.139794
672.418	0.139924
672.745	0.139948
673.072	0.140037
673.399	0.140039
673.726	0.140023
674.053	0.140124
674.379	0.140078
674.706	0.140001
675.033	0.139842
675.359	0.139753
675.686	0.139661
676.013	0.139587
676.339	0.139535
676.666	0.139327
676.992	0.139203
677.318	0.139199
677.645	0.139166
677.971	0.139119
678.297	0.139063
678.624	0.139048
678.950	0.138976
679.276	0.138840
679.602	0.138720
679.928	0.138546
680.254	0.138441
680.580	0.138315
680.906	0.138183
681.232	0.138152
681.558	0.138241
681.883	0.138461
682.209	0.138676
682.535	0.138824
682.860	0.138957
683.186	0.139014
683.511	0.139049
683.837	0.138996
684.162	0.138938
684.488	0.138923
684.813	0.138869
685.138	0.138803
685.464	0.138677
685.789	0.138584
686.114	0.138552
686.439	0.138482
686.764	0.138478
687.089	0.138420
687.414	0.138436
687.739	0.138523
688.064	0.138563
688.389	0.138503
688.714	0.138436
689.039	0.138187
689.363	0.138029
689.688	0.137874
690.013	0.137759
690.337	0.137628
690.662	0.137569
690.986	0.137634
691.311	0.137565
691.635	0.137572
691.959	0.137565
692.284	0.137540
692.608	0.137429
692.932	0.137458
693.256	0.137560
693.580	0.137593
693.904	0.137683
694.228	0.137745
694.552	0.137841
694.876	0.137879
695.200	0.137873
695.524	0.137701
695.848	0.137690
696.172	0.137569
696.495	0.137339
696.819	0.137182
697.143	0.136993
697.466	0.136768
697.790	0.136482
698.113	0.136337
698.437	0.136137
698.760	0.135930
699.083	0.135876
699.407	0.135855
699.730	0.135685
700.053	0.135593
700.376	0.135450
700.699	0.135223
701.022	0.134921
701.345	0.134368
701.668	0.133774
701.991	0.133295
702.314	0.132801
702.637	0.132192
702.960	0.131685
703.283	0.131367
703.605	0.131062
703.928	0.130963
704.251	0.130996
704.573	0.130949
704.896	0.130877
705.218	0.130759
705.540	0.130616
705.863	0.130354
706.185	0.130079
706.507	0.129621
706.830	0.129177
707.152	0.128722
707.474	0.128309
707.796	0.127908
708.118	0.127543
708.440	0.127313
708.762	0.127101
709.084	0.126929
709.406	0.126802
709.728	0.126723
710.049	0.126494
710.371	0.126311
710.693	0.126056
711.014	0.125742
711.336	0.125492
711.658	0.125237
711.979	0.125100
712.301	0.124894
712.622	0.124779
712.943	0.124579
713.265	0.124535
713.586	0.124414
713.907	0.124361
714.228	0.124388
714.549	0.124413
714.870	0.124533
715.191	0.124530
715.512	0.124544
715.833	0.124589
716.154	0.124595
716.475	0.124427
716.796	0.124379
717.117	0.124187
717.437	0.123918
717.758	0.123610
718.078	0.123281
718.399	0.122992
718.719	0.122593
719.040	0.122340
719.360	0.122109
719.681	0.121915
720.001	0.121760
720.321	0.121705
720.642	0.121532
720.962	0.121282
721.282	0.121148
721.602	0.121039
721.922	0.120945
722.242	0.120784
722.562	0.120658
722.882	0.120483
723.202	0.120442
723.521	0.120342
723.841	0.120281
724.161	0.120212
724.481	0.120180
724.800	0.120081
725.120	0.120004
725.439	0.119965
725.759	0.119936
726.078	0.119913
726.398	0.119923
726.717	0.120011
727.036	0.120021
727.355	0.120114
727.675	0.120327
727.994	0.120509
728.313	0.120613
728.632	0.120700
728.951	0.120751
729.270	0.120677
729.589	0.120614
729.908	0.120408
730.226	0.120240
730.545	0.120091
730.864	0.119959
731.182	0.119808
731.501	0.119746
731.820	0.119620
732.138	0.119585
732.457	0.119426
732.775	0.119252
733.093	0.119096
733.412	0.118936
733.730	0.118785
734.048	0.118613
734.367	0.118328
734.685	0.117958
735.003	0.117573
735.321	0.117244
735.639	0.116940
735.957	0.116723
736.275	0.116462
736.593	0.116388
736.910	0.116276
737.228	0.116207
737.546	0.116060
737.863	0.115914
738.181	0.115660
738.499	0.115426
738.816	0.115103
739.134	0.114858
739.451	0.114663
739.768	0.114467
740.086	0.114169
740.403	0.113887
740.720	0.113640
741.038	0.113376
741.355	0.113117
741.672	0.112825
741.989	0.112509
742.306	0.112177
742.623	0.111706
742.940	0.111347
743.257	0.110789
743.573	0.110246
743.890	0.109636
744.207	0.109152
744.523	0.108762
744.840	0.108432
745.157	0.108056
745.473	0.107624
745.790	0.107370
746.106	0.107042
746.422	0.106759
746.739	0.106566
747.055	0.106380
747.371	0.106154
747.687	0.106041
748.004	0.106003
748.320	0.105997
748.636	0.105873
748.952	0.105721
749.268	0.105824
749.584	0.105800
749.899	0.105814
750.215	0.105825
750.531	0.105742
750.847	0.105709
751.162	0.105694
751.478	0.105653
751.793	0.105572
752.109	0.105571
752.424	0.105457
752.740	0.105324
753.055	0.105314
753.370	0.105309
753.686	0.105409
754.001	0.105627
754.316	0.105750
754.631	0.105913
754.946	0.106032
755.261	0.106152
755.576	0.106228
755.891	0.106118
756.206	0.106021
756.521	0.105941
756.836	0.105914
757.150	0.105898
757.465	0.105917
757.780	0.105872
758.094	0.105890
758.409	0.105914
758.723	0.105976
759.038	0.105959
759.352	0.105960
759.667	0.105858
759.981	0.105736
760.295	0.105458
760.609	0.105119
760.923	0.104886
761.238	0.104555
761.552	0.104283
761.866	0.104022
762.180	0.103894
762.493	0.103800
762.807	0.103739
763.121	0.103604
763.435	0.103342
763.749	0.103085
764.062	0.102738
764.376	0.102420
764.689	0.102046
765.003	0.101739
765.316	0.101486
765.630	0.101379
765.943	0.101219
766.257	0.101036
766.570	0.100780
766.883	0.100573
767.196	0.100292
767.509	0.099870
767.822	0.099515
768.135	0.099146
768.448	0.098810
768.761	0.098331
769.074	0.097986
769.387	0.097576
769.700	0.097269
770.013	0.097087
770.325	0.096935
770.638	0.096840
770.950	0.096678
771.263	0.096476
771.575	0.096241
771.888	0.095854
772.200	0.095396
772.513	0.094896
772.825	0.094470
773.137	0.094084
773.449	0.093719
773.761	0.093360
774.074	0.093038
774.386	0.092758
774.698	0.092422
775.010	0.091990
775.321	0.091695
775.633	0.091165
775.945	0.090944
776.257	0.090670
776.568	0.090447
776.880	0.090231
777.192	0.090101
777.503	0.089950
777.815	0.089890
778.126	0.089860
778.438	0.089935
778.749	0.090108
779.060	0.090249
779.372	0.090373
779.683	0.090452
779.994	0.090439
780.305	0.090471
780.616	0.090556
780.927	0.090557
781.238	0.090435
781.549	0.090428
781.860	0.090374
782.171	0.090497
782.481	0.090490
782.792	0.090491
783.103	0.090451
783.413	0.090409
783.724	0.090201
784.034	0.090050
784.345	0.089895
784.655	0.089745
784.966	0.089502
785.276	0.089313
785.586	0.089111
785.896	0.088857
786.207	0.088774
786.517	0.088812
786.827	0.088776
787.137	0.088670
787.447	0.088511
787.757	0.088559
788.066	0.088609
788.376	0.088680
788.686	0.088606
788.996	0.088582
789.305	0.088505
789.615	0.088419
789.925	0.088313
790.234	0.088237
790.544	0.088214
790.853	0.088229
791.162	0.088240
791.472	0.088312
791.781	0.088333
792.090	0.088434
792.399	0.088414
792.708	0.088225
793.017	0.088034
793.326	0.087848
793.635	0.087681
793.944	0.087511
794.253	0.087203
794.562	0.086888
794.871	0.086579
795.179	0.086435
795.488	0.086267
795.797	0.086169
796.105	0.085993
796.414	0.085896
796.722	0.085874
797.031	0.085798
797.339	0.085468
797.647	0.085042
797.956	0.084559
798.264	0.083948
798.572	0.083440
798.880	0.083052
799.188	0.082742
799.496	0.082351
799.804	0.082083
800.112	0.081811
800.420	0.081761
800.728	0.081789
801.035	0.081666
801.343	0.081475
801.651	0.081032
801.958	0.080683
802.266	0.080341
802.573	0.080249
802.881	0.080280
803.188	0.080205
803.496	0.080203
803.803	0.080526
804.110	0.080704
804.417	0.080782
804.724	0.080717
805.032	0.080575
805.339	0.080415
805.646	0.080308
805.953	0.080080
806.259	0.079927
806.566	0.079794
806.873	0.079687
807.180	0.079687
807.486	0.079816
807.793	0.079857
808.100	0.079975
808.406	0.079970
808.713	0.079970
809.019	0.079692
809.326	0.079220
809.632	0.078822
809.938	0.078297
810.244	0.077571
810.551	0.077104
810.857	0.076669
811.163	0.076521
811.469	0.076384
811.775	0.076337
812.081	0.076208
812.387	0.076364
812.692	0.076475
812.998	0.076521
813.304	0.076510
813.610	0.076513
813.915	0.076265
814.221	0.076198
814.526	0.076133
814.832	0.076117
815.137	0.076019
815.443	0.075958
815.748	0.075925
816.053	0.075900
816.358	0.075537
816.664	0.075531
816.969	0.075398
817.274	0.075526
817.579	0.075484
817.884	0.075321
818.189	0.075318
818.493	0.075297
818.798	0.075099
819.103	0.074783
819.408	0.074469
819.712	0.074078
820.017	0.073683
820.321	0.073475
820.626	0.073257
820.930	0.073011
821.235	0.072782
821.539	0.072521
821.843	0.072416
822.148	0.072286
822.452	0.072165
822.756	0.072643
823.060	0.072622
823.364	0.072904
823.668	0.072827
823.972	0.072795
824.276	0.072870
824.580	0.072702
824.883	0.072723
825.187	0.072803
825.491	0.072824
825.795	0.072963
826.098	0.073220
826.402	0.073168
826.705	0.073273
827.008	0.073058
827.312	0.073005
827.615	0.072702
827.918	0.072568
828.222	0.072371
828.525	0.072266
828.828	0.072203
829.131	0.071887
829.434	0.071778
829.737	0.071219
830.040	0.070601
830.343	0.070085
830.645	0.069706
830.948	0.069439
831.251	0.068957
831.553	0.068588
831.856	0.068497
832.159	0.068624
832.461	0.068282
832.764	0.068143
833.066	0.067777
833.368	0.067678
833.671	0.067487
833.973	0.067481
834.275	0.067369
834.577	0.067198
834.879	0.067306
835.181	0.066865
835.483	0.066281
835.785	0.065855
836.087	0.065571
836.389	0.065554
836.690	0.064729
836.992	0.063829
837.294	0.062821
837.595	0.061953
837.897	0.061344
838.198	0.060610
838.500	0.059747
838.801	0.059203
839.103	0.058935
839.404	0.058637
839.705	0.058233
840.006	0.057828
840.307	0.057868
840.608	0.057723
840.910	0.057738
841.210	0.057613
841.511	0.057589
841.812	0.057853
842.113	0.057739
842.414	0.057486
842.715	0.057139
843.015	0.057070
843.316	0.057151
843.616	0.056808
843.917	0.056685
844.217	0.056449
844.518	0.056119
844.818	0.055683
845.118	0.055312
845.419	0.054691
845.719	0.054055
846.019	0.053944
846.319	0.054371
846.619	0.053993
846.919	0.054594
847.219	0.054475
847.519	0.053756
847.819	0.054262
848.118	0.053811
848.418	0.053866
848.718	0.053541
849.017	0.053256
849.317	0.053863
849.616	0.054276
849.916	0.055493
850.215	0.056121
850.515	0.056624
850.814	0.057416
851.113	0.057980
851.412	0.058464
851.712	0.058703
852.011	0.058660
852.310	0.059169
852.609	0.059204
852.908	0.059458
853.206	0.059356
853.505	0.059948
853.804	0.060265
854.103	0.060448
854.401	0.060648
854.700	0.060667
854.999	0.060743
855.297	0.060793
855.595	0.060767
855.894	0.060946
856.192	0.060824
856.491	0.060884
856.789	0.060602
857.087	0.060015
857.385	0.059636
857.683	0.059342
857.981	0.059074
858.279	0.059182
858.577	0.058466
858.875	0.058007
859.173	0.057132
859.471	0.057326
859.768	0.056554
860.066	0.055646
860.363	0.054721
860.661	0.054592
860.959	0.054714
861.256	0.054731
861.553	0.054744
861.851	0.054169
862.148	0.053079
862.445	0.052592
862.742	0.052319
863.039	0.051711
863.337	0.051510
863.634	0.050408
863.931	0.049830
864.227	0.049424
864.524	0.048981
864.821	0.048969
865.118	0.048986
865.415	0.049420
865.711	0.048227
866.008	0.047290
866.304	0.047211
866.601	0.046757
866.897	0.046147
867.194	0.045835
867.490	0.045638
867.786	0.045369
868.082	0.045894
868.379	0.046130
868.675	0.045512
868.971	0.045275
869.267	0.045729
869.563	0.046206
869.859	0.046289
870.154	0.045736
870.450	0.046187
870.746	0.046015
871.042	0.046392
871.337	0.046089
871.633	0.046261
871.928	0.046483
872.224	0.046552
872.519	0.046585
872.815	0.047274
873.110	0.047278
873.405	0.046552
873.700	0.046378
873.995	0.046317
874.291	0.046222
874.586	0.046524
874.881	0.047293
875.175	0.047183
875.470	0.047469
875.765	0.046952
876.060	0.047762
876.355	0.048616
876.649	0.048378
876.944	0.048905
877.238	0.048807
877.533	0.049193
877.827	0.049321
878.122	0.049600
878.416	0.050177
878.710	0.051121
879.005	0.050821
879.299	0.050619
879.593	0.050725
879.887	0.051039
880.181	0.050447
880.475	0.050350
880.769	0.050221
881.063	0.050376
881.356	0.050419
881.650	0.050065
881.944	0.050127
882.238	0.038379
882.531	0.045323
882.825	0.051755
883.118	0.027031
883.412	0.042809
883.705	0.043798
883.998	0.055241
884.291	0.048099
884.585	0.045424
884.878	0.046294
>>>>>>>>>> END of Data <<<<<<<<<<
>>>>>>>>>> Raw Data Start <<<<<<<<
190.664	-389
191.040	9
191.415	9
191.791	6
192.166	8
192.542	13
192.917	6
193.293	14
193.668	8
194.044	10
194.419	-9
194.794	10
195.170	10
195.545	10
195.920	11
196.296	11
196.671	11
197.046	12
197.421	12
197.796	13
198.171	13
198.546	14
198.922	14
199.297	14
199.672	15
200.047	16
200.422	16
200.796	16
201.171	16
201.546	16
201.921	16
202.296	16
202.671	16
203.045	17
203.420	17
203.795	17
204.170	17
204.544	17
204.919	17
205.294	17
205.668	17
206.043	17
206.417	16
206.792	16
207.166	16
207.541	16
207.915	16
208.289	16
208.664	16
209.038	16
209.412	16
209.787	16
210.161	16
210.535	16
210.909	16
211.284	16
211.658	16
212.032	15
212.406	15
212.780	15
213.154	15
213.528	15
213.902	15
214.276	15
214.650	15
215.024	15
215.398	15
215.772	15
216.145	15
216.519	14
216.893	14
217.267	14
217.640	15
218.014	15
218.388	15
218.761	15
219.135	15
219.508	15
219.882	15
220.256	16
220.629	16
221.003	16
221.376	16
221.749	16
222.123	16
222.496	16
222.869	16
223.243	16
223.616	16
223.989	16
224.362	17
224.736	17
225.109	17
225.482	17
225.855	17
226.228	16
226.601	17
226.974	17
227.347	16
227.720	16
228.093	16
228.466	16
228.839	16
229.212	16
229.585	16
229.957	16
230.330	16
230.703	16
231.076	16
231.448	16
231.821	16
232.194	16
232.566	16
232.939	16
233.311	16
233.684	16
234.056	16
234.429	16
234.801	16
235.174	16
235.546	17
235.918	17
236.291	17
236.663	17
237.035	17
237.408	17
237.780	17
238.152	17
238.524	17
238.896	17
239.268	17
239.641	17
240.013	17
240.385	17
240.757	17
241.129	17
241.500	17
241.872	17
242.244	17
242.616	17
242.988	17
243.360	17
243.731	17
244.103	17
244.475	17
244.847	17
245.218	17
245.590	17
245.961	17
246.333	17
246.705	17
247.076	17
247.448	17
247.819	17
248.190	17
248.562	17
248.933	18
249.305	18
249.676	18
250.047	18
250.418	18
250.790	18
251.161	18
251.532	18
251.903	18
252.274	18
252.645	18
253.016	18
253.387	18
253.758	19
254.129	19
254.500	19
254.871	19
255.242	19
255.613	19
255.984	19
256.355	19
256.725	19
257.096	19
257.467	18
257.838	18
258.208	19
258.579	19
258.949	19
259.320	19
259.690	18
260.061	19
260.431	19
260.802	19
261.172	19
261.543	18
261.913	18
262.283	19
262.654	18
263.024	18
263.394	18
263.764	18
264.135	18
264.505	18
264.875	18
265.245	18
265.615	18
265.985	18
266.355	18
266.725	18
267.095	18
267.465	18
267.835	19
268.205	19
268.575	19
268.944	19
269.314	19
269.684	19
270.054	19
270.423	18
270.793	18
271.163	18
271.532	18
271.902	18
272.271	18
272.641	18
273.010	18
273.380	19
273.749	19
274.119	19
274.488	19
274.857	19
275.227	19
275.596	19
275.965	19
276.335	19
276.704	19
277.073	19
277.442	19
277.811	19
278.180	19
278.549	19
278.918	20
279.287	20
279.656	20
280.025	20
280.394	19
280.763	20
281.132	19
281.501	19
281.869	19
282.238	19
282.607	19
282.976	19
283.344	18
283.713	19
284.081	19
284.450	19
284.819	19
285.187	19
285.556	19
285.924	19
286.292	19
286.661	18
287.029	19
287.398	19
287.766	19
288.134	19
288.502	19
288.871	19
289.239	19
289.607	19
289.975	19
290.343	19
290.711	19
291.079	19
291.447	19
291.815	19
292.183	19
292.551	19
292.919	19
293.287	19
293.655	19
294.022	19
294.390	19
294.758	19
295.126	19
295.493	18
295.861	18
296.229	18
296.596	18
296.964	18
297.331	19
297.699	19
298.066	19
298.434	19
298.801	19
299.168	19
299.536	19
299.903	19
300.270	19
300.638	19
301.005	19
301.372	19
301.739	20
302.106	20
302.473	20
302.840	20
303.207	20
303.574	20
303.941	21
304.308	21
304.675	21
305.042	21
305.409	21
305.776	21
306.143	21
306.509	22
306.876	22
307.243	22
307.610	22
307.976	22
308.343	23
308.709	23
309.076	23
309.442	23
309.809	23
310.175	23
310.542	24
310.908	24
311.275	25
311.641	25
312.007	26
312.373	26
312.740	27
313.106	27
313.472	27
313.838	28
314.204	28
314.570	29
314.936	30
315.302	31
315.668	32
316.034	32
316.400	33
316.766	33
317.132	34
317.498	34
317.864	36
318.230	36
318.595	37
318.961	38
319.327	39
319.692	40
320.058	41
320.424	43
320.789	44
321.155	46
321.520	48
321.886	49
322.251	50
322.616	52
322.982	54
323.347	56
323.712	58
324.078	61
324.443	64
324.808	67
325.173	69
325.539	72
325.904	74
326.269	77
326.634	80
326.999	82
327.364	85
327.729	88
328.094	91
328.459	93
328.823	96
329.188	99
329.553	103
329.918	106
330.283	108
330.647	111
331.012	114
331.377	117
331.741	120
332.106	123
332.470	126
332.835	129
333.199	132
333.564	136
333.928	139
334.293	142
334.657	146
335.021	149
335.386	152
335.750	155
336.114	158
336.478	162
336.843	166
337.207	169
337.571	172
337.935	175
338.299	179
338.663	182
339.027	186
339.391	188
339.755	192
340.119	195
340.483	199
340.846	202
341.210	205
341.574	208
341.938	211
342.301	214
342.665	217
343.029	220
343.392	223
343.756	227
344.119	229
344.483	232
344.846	235
345.210	237
345.573	240
345.937	242
346.300	245
346.663	248
347.027	250
347.390	252
347.753	255
348.116	257
348.479	260
348.843	262
349.206	264
349.569	267
349.932	269
350.295	271
350.658	273
351.021	275
351.383	276
351.746	278
352.109	280
352.472	282
352.835	284
353.197	286
353.560	288
353.923	290
354.285	291
354.648	293
355.011	295
355.373	296
355.736	298
356.098	300
356.461	302
356.823	303
357.185	304
357.548	306
357.910	307
358.272	309
358.635	311
358.997	313
359.359	314
359.721	316
360.083	316
360.445	318
360.807	319
361.169	320
361.531	322
361.893	323
362.255	324
362.617	325
362.979	327
363.341	328
363.703	330
364.064	331
364.426	332
364.788	334
365.149	335
365.511	336
365.873	337
366.234	338
366.596	338
366.957	340
367.319	340
367.680	341
368.042	342
368.403	343
368.764	343
369.126	344
369.487	344
369.848	345
370.209	345
370.570	346
370.931	345
371.293	345
371.654	346
372.015	346
372.376	346
372.737	346
373.098	346
373.458	346
373.819	347
374.180	347
374.541	348
374.902	349
375.263	350
375.623	351
375.984	352
376.345	354
376.705	355
377.066	355
377.426	356
377.787	357
378.147	358
378.508	360
378.868	361
379.228	361
379.589	363
379.949	364
380.309	365
380.670	366
381.030	367
381.390	368
381.750	369
382.110	370
382.470	370
382.830	371
383.190	371
383.550	372
383.910	372
384.270	374
384.630	375
384.990	377
385.350	378
385.709	379
386.069	380
386.429	381
386.788	382
387.148	383
387.508	384
387.867	385
388.227	387
388.586	389
388.946	391
389.305	393
389.665	396
390.024	398
390.383	401
390.743	403
391.102	405
391.461	407
391.820	408
392.179	409
392.539	411
392.898	412
393.257	414
393.616	415
393.975	418
394.334	421
394.693	424
395.051	428
395.410	432
395.769	435
396.128	437
396.487	439
396.845	440
397.204	441
397.563	442
397.921	443
398.280	444
398.638	445
398.997	446
399.355	447
399.714	449
400.072	450
400.431	452
400.789	454
401.147	456
401.506	458
401.864	459
402.222	461
402.580	461
402.938	461
403.297	462
403.655	462
404.013	462
404.371	463
404.729	463
405.087	465
405.444	466
405.802	468
406.160	469
406.518	471
406.876	473
407.233	474
407.591	476
407.949	477
408.306	478
408.664	479
409.022	480
409.379	481
409.737	483
410.094	485
410.451	487
410.809	490
411.166	492
411.523	495
411.881	497
412.238	500
412.595	502
412.952	504
413.310	505
413.667	507
414.024	509
414.381	511
414.738	513
415.095	515
415.452	518
415.809	521
416.165	523
416.522	526
416.879	529
417.236	534
417.593	538
417.949	543
418.306	550
418.663	556
419.019	563
419.376	571
419.732	578
420.089	584
420.445	590
420.802	597
421.158	602
421.514	607
421.871	613
422.227	617
422.583	622
422.939	626
423.295	630
423.652	634
424.008	638
424.364	641
424.720	643
425.076	646
425.432	649
425.788	651
426.143	655
426.499	659
426.855	663
427.211	667
427.567	672
427.922	676
428.278	679
428.634	682
428.989	685
429.345	688
429.700	692
430.056	696
430.411	701
430.767	707
431.122	712
431.478	716
431.833	721
432.188	725
432.543	728
432.899	731
433.254	734
433.609	736
433.964	737
434.319	738
434.674	740
435.029	742
435.384	745
435.739	749
436.094	755
436.449	761
436.804	768
437.158	777
437.513	786
437.868	796
438.223	806
438.577	817
438.932	829
439.287	841
439.641	853
439.996	865
440.350	877
440.704	888
441.059	900
441.413	913
441.768	925
442.122	936
442.476	947
442.830	958
443.185	969
443.539	979
443.893	990
444.247	999
444.601	1006
444.955	1012
445.309	1016
445.663	1020
446.017	1023
446.371	1026
446.724	1028
447.078	1029
447.432	1030
447.786	1030
448.139	1030
448.493	1030
448.847	1029
449.200	1028
449.554	1026
449.907	1025
450.261	1024
450.614	1022
450.968	1022
451.321	1020
451.674	1020
452.027	1019
452.381	1020
452.734	1021
453.087	1021
453.440	1023
453.793	1025
454.146	1029
454.499	1035
454.852	1042
455.205	1051
455.558	1059
455.911	1068
456.264	1076
456.617	1084
456.970	1093
457.322	1100
457.675	1107
458.028	1113
458.380	1118
458.733	1122
459.086	1127
459.438	1134
459.791	1140
460.143	1149
460.496	1160
460.848	1171
461.200	1185
461.553	1198
461.905	1211
462.257	1222
462.609	1232
462.961	1241
463.314	1249
463.666	1257
464.018	1263
464.370	1269
464.722	1276
465.074	1284
465.426	1289
465.777	1296
466.129	1300
466.481	1304
466.833	1305
467.184	1305
467.536	1304
467.888	1300
468.239	1297
468.591	1293
468.943	1290
469.294	1289
469.646	1290
469.997	1293
470.348	1298
470.700	1306
471.051	1316
471.402	1329
471.754	1345
472.105	1362
472.456	1380
472.807	1401
473.158	1423
473.509	1447
473.860	1474
474.211	1501
474.562	1530
474.913	1560
475.264	1591
475.615	1622
475.966	1653
476.316	1683
476.667	1713
477.018	1744
477.368	1775
477.719	1807
478.070	1837
478.420	1865
478.771	1894
479.121	1921
479.472	1948
479.822	1977
480.172	2009
480.523	2045
480.873	2096
481.223	2182
481.573	2310
481.924	2471
482.274	2653
482.624	2844
482.974	3035
483.324	3201
483.674	3327
484.024	3412
484.374	3468
484.724	3504
485.073	3528
485.423	3549
485.773	3568
486.123	3586
486.472	3604
486.822	3621
487.172	3634
487.521	3644
487.871	3648
488.220	3635
488.570	3586
488.919	3496
489.268	3372
489.618	3226
489.967	3070
490.316	2913
490.666	2776
491.015	2678
491.364	2619
491.713	2587
492.062	2576
492.411	2577
492.760	2582
493.109	2588
493.458	2595
493.807	2600
494.156	2604
494.505	2609
494.853	2614
495.202	2622
495.551	2634
495.900	2645
496.248	2657
496.597	2670
496.945	2682
497.294	2693
497.642	2705
497.991	2720
498.339	2738
498.688	2758
499.036	2776
499.384	2793
499.732	2807
500.081	2818
500.429	2828
500.777	2837
501.125	2845
501.473	2853
501.821	2862
502.169	2870
502.517	2877
502.865	2879
503.213	2880
503.561	2880
503.908	2878
504.256	2875
504.604	2872
504.952	2867
505.299	2861
505.647	2852
505.994	2841
506.342	2829
506.689	2818
507.037	2808
507.384	2800
507.732	2794
508.079	2788
508.426	2783
508.774	2779
509.121	2772
509.468	2766
509.815	2758
510.162	2750
510.509	2743
510.856	2735
511.203	2726
511.550	2718
511.897	2710
512.244	2702
512.591	2694
512.938	2687
513.284	2680
513.631	2672
513.978	2663
514.324	2653
514.671	2643
515.018	2632
515.364	2623
515.711	2615
516.057	2605
516.403	2596
516.750	2587
517.096	2576
517.443	2565
517.789	2553
518.135	2542
518.481	2532
518.827	2523
519.173	2512
519.519	2503
519.865	2494
520.211	2486
520.557	2478
520.903	2471
521.249	2465
521.595	2460
521.941	2453
522.287	2447
522.632	2441
522.978	2436
523.324	2432
523.669	2429
524.015	2428
524.360	2431
524.706	2437
525.051	2445
525.397	2455
525.742	2467
526.087	2478
526.433	2490
526.778	2500
527.123	2506
527.468	2513
527.813	2518
528.158	2523
528.504	2530
528.849	2541
529.193	2556
529.538	2574
529.883	2597
530.228	2624
530.573	2653
530.918	2684
531.263	2715
531.607	2743
531.952	2768
532.296	2789
532.641	2805
532.986	2817
533.330	2829
533.675	2841
534.019	2858
534.363	2881
534.708	2907
535.052	2938
535.396	2970
535.741	3002
536.085	3030
536.429	3055
536.773	3075
537.117	3090
537.461	3103
537.805	3114
538.149	3127
538.493	3140
538.837	3155
539.181	3173
539.524	3197
539.868	3226
540.212	3259
540.556	3293
540.899	3329
541.243	3361
541.586	3386
541.930	3406
542.273	3419
542.617	3429
542.960	3439
543.304	3454
543.647	3473
543.990	3501
544.333	3532
544.677	3564
545.020	3594
545.363	3618
545.706	3635
546.049	3647
546.392	3651
546.735	3649
547.078	3645
547.421	3641
547.764	3639
548.106	3639
548.449	3643
548.792	3653
549.135	3671
549.477	3693
549.820	3715
550.162	3733
550.505	3746
550.847	3753
551.190	3754
551.532	3754
551.875	3753
552.217	3755
552.559	3759
552.901	3770
553.244	3785
553.586	3802
553.928	3821
554.270	3837
554.612	3848
554.954	3855
555.296	3860
555.638	3864
555.980	3869
556.322	3877
556.663	3892
557.005	3916
557.347	3949
557.689	3985
558.030	4020
558.372	4052
558.713	4080
559.055	4106
559.396	4131
559.738	4158
560.079	4188
560.421	4223
560.762	4265
561.103	4312
561.444	4366
561.786	4421
562.127	4482
562.468	4548
562.809	4620
563.150	4701
563.491	4788
563.832	4885
564.173	4996
564.514	5126
564.855	5283
565.195	5477
565.536	5712
565.877	5986
566.218	6298
566.558	6651
566.899	7040
567.239	7459
567.580	7898
567.920	8348
568.261	8802
568.601	9266
568.941	9746
569.282	10238
569.622	10750
569.962	11281
570.302	11847
570.643	12429
570.983	13016
571.323	13580
571.663	14121
572.003	14632
572.343	15107
572.683	15551
573.022	15999
573.362	16470
573.702	16955
574.042	17437
574.381	17897
574.721	18333
575.061	18749
575.400	19125
575.740	19455
576.079	19745
576.419	20031
576.758	20358
577.097	20747
577.437	21173
577.776	21629
578.115	22107
578.454	22592
578.794	23035
579.133	23372
579.472	23595
579.811	23712
580.150	23730
580.489	23672
580.828	23579
581.167	23489
581.505	23416
581.844	23353
582.183	23292
582.522	23248
582.860	23219
583.199	23191
583.538	23131
583.876	22999
584.215	22771
584.553	22437
584.891	22002
585.230	21477
585.568	20901
585.906	20319
586.245	19794
586.583	19341
586.921	18965
587.259	18623
587.597	18281
587.935	17927
588.273	17564
588.611	17226
588.949	16925
589.287	16668
589.625	16463
589.963	16298
590.300	16162
590.638	16037
590.976	15899
591.313	15741
591.651	15591
591.989	15461
592.326	15353
592.664	15258
593.001	15179
593.338	15126
593.676	15094
594.013	15091
594.350	15135
594.687	15219
595.025	15313
595.362	15399
595.699	15456
596.036	15487
596.373	15485
596.710	15442
597.047	15374
597.384	15292
597.720	15202
598.057	15128
598.394	15071
598.731	15035
599.067	15023
599.404	15038
599.741	15088
600.077	15164
600.414	15251
600.750	15343
601.087	15411
601.423	15439
601.759	15432
602.096	15398
602.432	15343
602.768	15266
603.104	15162
603.440	15036
603.776	14902
604.112	14759
604.448	14613
604.784	14460
605.120	14298
605.456	14141
605.792	13977
606.128	13805
606.463	13629
606.799	13451
607.135	13289
607.470	13130
607.806	12972
608.142	12818
608.477	12670
608.812	12527
609.148	12384
609.483	12234
609.819	12081
610.154	11935
610.489	11800
610.824	11682
611.159	11581
611.494	11480
611.830	11390
612.165	11302
612.500	11204
612.834	11091
613.169	10964
613.504	10826
613.839	10673
614.174	10499
614.509	10324
614.843	10150
615.178	9986
615.512	9822
615.847	9662
616.182	9502
616.516	9341
616.850	9171
617.185	8995
617.519	8816
617.853	8624
618.188	8426
618.522	8244
618.856	8090
619.190	7955
619.524	7836
619.858	7741
620.192	7665
620.526	7598
620.860	7531
621.194	7468
621.528	7406
621.862	7344
622.195	7268
622.529	7189
622.863	7108
623.196	7026
623.530	6943
623.864	6859
624.197	6775
624.530	6693
624.864	6620
625.197	6544
625.531	6458
625.864	6354
626.197	6245
626.530	6126
626.863	5992
627.196	5847
627.529	5700
627.862	5556
628.195	5412
628.528	5270
628.861	5134
629.194	5012
629.527	4896
629.860	4781
630.192	4668
630.525	4563
630.858	4464
631.190	4371
631.523	4281
631.855	4197
632.188	4123
632.520	4054
632.852	3989
633.185	3922
633.517	3858
633.849	3800
634.182	3747
634.514	3695
634.846	3650
635.178	3610
635.510	3574
635.842	3541
636.174	3510
636.506	3478
636.837	3447
637.169	3416
637.501	3383
637.833	3348
638.164	3308
638.496	3264
638.828	3214
639.159	3158
639.491	3098
639.822	3036
640.154	2972
640.485	2910
640.816	2849
641.147	2788
641.479	2730
641.810	2673
642.141	2617
642.472	2564
642.803	2510
643.134	2459
643.465	2415
643.796	2380
644.127	2354
644.458	2341
644.789	2340
645.119	2353
645.450	2374
645.781	2398
646.111	2421
646.442	2442
646.773	2458
647.103	2471
647.433	2481
647.764	2493
648.094	2509
648.425	2528
648.755	2551
649.085	2579
649.415	2609
649.745	2639
650.075	2671
650.405	2706
650.735	2783
651.065	3337
651.395	5061
651.725	7908
652.055	11554
652.385	15195
652.715	18836
653.044	22479
653.374	26126
653.704	29778
654.033	32383
654.363	34145
654.692	35317
655.022	36083
655.351	36586
655.680	36900
656.010	37072
656.339	37149
656.668	37171
656.997	37161
657.326	37132
657.655	37047
657.984	36474
658.313	34723
658.642	31839
658.971	28146
659.300	24453
659.629	20760
659.958	17069
660.286	13377
660.615	9686
660.944	7051
661.272	5262
661.601	4065
661.929	3271
662.258	2735
662.586	2384
662.915	2168
663.243	2044
663.571	1974
663.899	1931
664.228	1904
664.556	1885
664.884	1873
665.212	1864
665.540	1858
665.868	1855
666.196	1853
666.524	1852
666.852	1853
667.179	1861
667.507	1874
667.835	1895
668.162	1922
668.490	1956
668.818	1995
669.145	2037
669.473	2079
669.800	2118
670.127	2152
670.455	2180
670.782	2204
671.109	2225
671.436	2242
671.764	2257
672.091	2268
672.418	2278
672.745	2286
673.072	2294
673.399	2304
673.726	2314
674.053	2322
674.379	2325
674.706	2324
675.033	2322
675.359	2319
675.686	2313
676.013	2311
676.339	2311
676.666	2318
676.992	2335
677.318	2358
677.645	2385
677.971	2410
678.297	2433
678.624	2455
678.950	2476
679.276	2496
679.602	2515
679.928	2536
680.254	2560
680.580	2592
680.906	2632
681.232	2682
681.558	2734
681.883	2786
682.209	2833
682.535	2877
682.860	2917
683.186	2951
683.511	2978
683.837	2994
684.162	3008
684.488	3018
684.813	3029
685.138	3039
685.464	3048
685.789	3055
686.114	3062
686.439	3073
686.764	3083
687.089	3091
687.414	3091
687.739	3081
688.064	3062
688.389	3038
688.714	3009
689.039	2979
689.363	2948
689.688	2913
690.013	2878
690.337	2848
690.662	2823
690.986	2800
691.311	2777
691.635	2754
691.959	2732
692.284	2717
692.608	2713
692.932	2716
693.256	2724
693.580	2735
693.904	2749
694.228	2766
694.552	2781
694.876	2788
695.200	2786
695.524	2774
695.848	2756
696.172	2733
696.495	2709
696.819	2685
697.143	2659
697.466	2633
697.790	2610
698.113	2595
698.437	2587
698.760	2585
699.083	2583
699.407	2576
699.730	2563
700.053	2542
700.376	2512
700.699	2472
701.022	2421
701.345	2366
701.668	2314
701.991	2270
702.314	2240
702.637	2226
702.960	2231
703.283	2254
703.605	2293
703.928	2348
704.251	2410
704.573	2472
704.896	2529
705.218	2575
705.540	2611
705.863	2640
706.185	2664
706.507	2685
706.830	2704
707.152	2724
707.474	2746
707.796	2770
708.118	2796
708.440	2821
708.762	2843
709.084	2861
709.406	2870
709.728	2871
710.049	2866
710.371	2854
710.693	2835
711.014	2813
711.336	2793
711.658	2774
711.979	2757
712.301	2742
712.622	2726
712.943	2707
713.265	2684
713.586	2660
713.907	2637
714.228	2616
714.549	2600
714.870	2588
715.191	2583
715.512	2581
715.833	2577
716.154	2570
716.475	2559
716.796	2542
717.117	2517
717.437	2489
717.758	2458
718.078	2425
718.399	2393
718.719	2365
719.040	2340
719.360	2321
719.681	2307
720.001	2298
720.321	2293
720.642	2290
720.962	2292
721.282	2297
721.602	2304
721.922	2312
722.242	2323
722.562	2337
722.882	2356
723.202	2372
723.521	2387
723.841	2403
724.161	2419
724.481	2435
724.800	2452
725.120	2474
725.439	2500
725.759	2529
726.078	2562
726.398	2602
726.717	2652
727.036	2709
727.355	2768
727.675	2826
727.994	2881
728.313	2934
728.632	2980
728.951	3018
729.270	3051
729.589	3082
729.908	3120
730.226	3162
730.545	3209
730.864	3260
731.182	3315
731.501	3370
731.820	3424
732.138	3469
732.457	3510
732.775	3548
733.093	3578
733.412	3596
733.730	3601
734.048	3593
734.367	3577
734.685	3556
735.003	3531
735.321	3509
735.639	3491
735.957	3477
736.275	3464
736.593	3445
736.910	3416
737.228	3375
737.546	3323
737.863	3262
738.181	3196
738.499	3125
738.816	3055
739.134	2987
739.451	2917
739.768	2847
740.086	2780
740.403	2718
740.720	2660
741.038	2605
741.355	2553
741.672	2501
741.989	2447
742.306	2392
742.623	2336
742.940	2280
743.257	2229
743.573	2184
743.890	2148
744.207	2121
744.523	2101
744.840	2089
745.157	2081
745.473	2080
745.790	2088
746.106	2103
746.422	2128
746.739	2158
747.055	2195
747.371	2237
747.687	2280
748.004	2322
748.320	2358
748.636	2391
748.952	2425
749.268	2457
749.584	2489
749.899	2517
750.215	2546
750.531	2580
750.847	2616
751.162	2654
751.478	2690
751.793	2727
752.109	2767
752.424	2810
752.740	2854
753.055	2904
753.370	2963
753.686	3032
754.001	3106
754.316	3185
754.631	3267
754.946	3355
755.261	3447
755.576	3537
755.891	3624
756.206	3710
756.521	3800
756.836	3891
757.150	3980
757.465	4057
757.780	4124
758.094	4180
758.409	4224
758.723	4252
759.038	4264
759.352	4264
759.667	4252
759.981	4232
760.295	4211
760.609	4196
760.923	4185
761.238	4180
761.552	4177
761.866	4171
762.180	4163
762.493	4140
762.807	4097
763.121	4032
763.435	3950
763.749	3859
764.062	3775
764.376	3704
764.689	3655
765.003	3629
765.316	3626
765.630	3638
765.943	3659
766.257	3684
766.570	3706
766.883	3712
767.196	3703
767.509	3681
767.822	3646
768.135	3601
768.448	3552
768.761	3502
769.074	3457
769.387	3424
769.700	3403
770.013	3389
770.325	3379
770.638	3364
770.950	3336
771.263	3291
771.575	3230
771.888	3151
772.200	3059
772.513	2960
772.825	2854
773.137	2747
773.449	2641
773.761	2538
774.074	2443
774.386	2358
774.698	2287
775.010	2229
775.321	2187
775.633	2160
775.945	2145
776.257	2137
776.568	2134
776.880	2142
777.192	2157
777.503	2181
777.815	2211
778.126	2248
778.438	2294
778.749	2343
779.060	2390
779.372	2435
779.683	2478
779.994	2517
780.305	2549
780.616	2570
780.927	2584
781.238	2589
781.549	2583
781.860	2567
782.171	2543
782.481	2517
782.792	2491
783.103	2465
783.413	2436
783.724	2407
784.034	2378
784.345	2351
784.655	2327
784.966	2303
785.276	2277
785.586	2252
785.896	2226
786.207	2200
786.517	2171
786.827	2143
787.137	2117
787.447	2091
787.757	2067
788.066	2043
788.376	2021
788.686	1999
788.996	1976
789.305	1953
789.615	1935
789.925	1926
790.234	1923
790.544	1928
790.853	1938
791.162	1948
791.472	1957
791.781	1961
792.090	1957
792.399	1945
792.708	1927
793.017	1907
793.326	1887
793.635	1869
793.944	1851
794.253	1837
794.562	1827
794.871	1821
795.179	1816
795.488	1810
795.797	1801
796.105	1785
796.414	1758
796.722	1722
797.031	1675
797.339	1620
797.647	1559
797.956	1494
798.264	1433
798.572	1383
798.880	1344
799.188	1316
799.496	1295
799.804	1280
800.112	1268
800.420	1258
800.728	1247
801.035	1234
801.343	1219
801.651	1208
801.958	1205
802.266	1210
802.573	1221
802.881	1234
803.188	1250
803.496	1268
803.803	1286
804.110	1303
804.417	1317
804.724	1330
805.032	1343
805.339	1353
805.646	1360
805.953	1364
806.259	1365
806.566	1363
806.873	1358
807.180	1351
807.486	1344
807.793	1335
808.100	1321
808.406	1300
808.713	1270
809.019	1235
809.326	1201
809.632	1167
809.938	1136
810.244	1108
810.551	1084
810.857	1064
811.163	1046
811.469	1028
811.775	1007
812.081	987
812.387	968
812.692	952
812.998	941
813.304	932
813.610	924
813.915	919
814.221	914
814.526	910
814.832	906
815.137	902
815.443	897
815.748	888
816.053	876
816.358	864
816.664	853
816.969	843
817.274	834
817.579	827
817.884	823
818.189	822
818.493	821
818.798	819
819.103	814
819.408	806
819.712	798
820.017	788
820.321	777
820.626	766
820.930	756
821.235	750
821.539	747
821.843	747
822.148	748
822.452	750
822.756	749
823.060	746
823.364	741
823.668	735
823.972	727
824.276	719
824.580	713
824.883	710
825.187	709
825.491	709
825.795	708
826.098	708
826.402	707
826.705	704
827.008	700
827.312	692
827.615	681
827.918	667
828.222	651
828.525	635
828.828	619
829.131	604
829.434	588
829.737	574
830.040	562
830.343	553
830.645	545
830.948	536
831.251	528
831.553	521
831.856	515
832.159	510
832.461	503
832.764	496
833.066	489
833.368	483
833.671	479
833.973	475
834.275	472
834.577	469
834.879	465
835.181	460
835.483	455
835.785	449
836.087	441
836.389	432
836.690	421
836.992	410
837.294	398
837.595	385
837.897	371
838.198	358
838.500	346
838.801	334
839.103	324
839.404	316
839.705	309
840.006	303
840.307	298
840.608	295
840.910	292
841.210	291
841.511	289
841.812	286
842.113	282
842.414	278
842.715	273
843.015	267
843.316	261
843.616	256
843.917	251
844.217	246
844.518	243
844.818	240
845.118	238
845.419	237
845.719	236
846.019	235
846.319	233
846.619	232
846.919	231
847.219	230
847.519	229
847.819	227
848.118	227
848.418	230
848.718	237
849.017	248
849.317	264
849.616	284
849.916	306
850.215	331
850.515	358
850.814	384
851.113	408
851.412	430
851.712	449
852.011	468
852.310	485
852.609	500
852.908	514
853.206	526
853.505	536
853.804	546
854.103	554
854.401	560
854.700	562
854.999	560
855.297	553
855.595	542
855.894	526
856.192	507
856.491	485
856.789	461
857.087	436
857.385	413
857.683	392
857.981	374
858.279	356
858.577	339
858.875	325
859.173	314
859.471	304
859.768	296
860.066	289
860.363	284
860.661	279
860.959	275
861.256	271
861.553	267
861.851	262
862.148	257
862.445	252
862.742	247
863.039	243
863.337	239
863.634	237
863.931	235
864.227	234
864.524	234
864.821	234
865.118	233
865.415	230
865.711	227
866.008	224
866.304	219
866.601	215
866.897	212
867.194	208
867.490	206
867.786	205
868.082	205
868.379	205
868.675	206
868.971	206
869.267	206
869.563	206
869.859	206
870.154	205
870.450	204
870.746	202
871.042	201
871.337	201
871.633	202
871.928	202
872.224	204
872.519	205
872.815	206
873.110	207
873.405	207
873.700	206
873.995	206
874.291	206
874.586	207
874.881	207
875.175	210
875.470	213
875.765	216
876.060	220
876.355	224
876.649	229
876.944	233
877.238	237
877.533	240
877.827	243
878.122	245
878.416	246
878.710	245
879.005	245
879.299	244
879.593	243
879.887	242
880.181	241
880.475	239
880.769	237
881.063	235
881.356	233
881.650	230
881.944	226
882.238	190
882.531	180
882.825	174
883.118	187
883.412	183
883.705	180
883.998	182
884.291	190
884.585	192
884.878	200
>>>>>>>>>> END of Data <<<<<<<<<<