Date	2022年07月22日金曜日 10時41分42秒
Spectrometers	USB2+H05879
ダーク	使用
リファレンス	使用
積分時間[usec]	12000
平均回数	10000
ｽﾑｰｼﾞﾝｸﾞ	0
Electrical Dark	USE
ピクセル数	2048
計測モード	吸光度
保存開始波長[nm]	190.664
保存終了波長[nm]	884.878
保存ﾋﾟｯﾁ波長[nm]	全波長

>>>>>>>>>> Data Start <<<<<<<<<<<<
190.664	0.130401
191.040	0.033636
191.415	0.033636
191.791	0.000000
192.166	0.000000
192.542	0.000000
192.917	0.000000
193.293	0.000000
193.668	0.000000
194.044	0.000000
194.419	0.959963
194.794	0.000000
195.170	0.000000
195.545	0.000000
195.920	0.000000
196.296	0.450884
196.671	0.000000
197.046	0.000000
197.421	0.000000
197.796	0.327967
198.171	0.000000
198.546	0.000000
198.922	0.000000
199.297	0.000000
199.672	0.000000
200.047	0.000000
200.422	0.000000
200.796	0.000000
201.171	0.000000
201.546	0.000000
201.921	0.000000
202.296	0.000000
202.671	0.000000
203.045	0.259195
203.420	0.466392
203.795	0.000000
204.170	1.636964
204.544	0.197509
204.919	0.000000
205.294	0.000000
205.668	0.000000
206.043	0.623803
206.417	0.000000
206.792	0.000000
207.166	0.000000
207.541	0.000000
207.915	0.000000
208.289	0.928403
208.664	0.000000
209.038	0.000000
209.412	0.000000
209.787	0.000000
210.161	0.694904
210.535	0.000000
210.909	0.724432
211.284	1.110451
211.658	0.000000
212.032	0.000000
212.406	0.707673
212.780	0.262148
213.154	0.000000
213.528	0.316260
213.902	0.000000
214.276	0.000000
214.650	0.774817
215.024	0.000000
215.398	0.000000
215.772	0.045918
216.145	0.000000
216.519	0.000000
216.893	0.000000
217.267	0.820353
217.640	0.000000
218.014	0.000000
218.388	-0.398783
218.761	0.000000
219.135	0.000000
219.508	0.000000
219.882	0.000000
220.256	0.658861
220.629	0.000000
221.003	1.224562
221.376	0.796748
221.749	0.000000
222.123	0.000000
222.496	0.000000
222.869	0.000000
223.243	0.000000
223.616	0.000000
223.989	0.000000
224.362	0.749951
224.736	0.000000
225.109	0.000000
225.482	0.000000
225.855	0.000000
226.228	0.000000
226.601	0.000000
226.974	0.909971
227.347	0.000000
227.720	0.000000
228.093	0.000000
228.466	0.000000
228.839	0.500056
229.212	0.315433
229.585	0.590264
229.957	0.511833
230.330	0.584109
230.703	0.000000
231.076	0.407017
231.448	0.000000
231.821	0.000000
232.194	0.000000
232.566	0.000000
232.939	0.000000
233.311	0.000000
233.684	0.000000
234.056	0.000000
234.429	0.638891
234.801	0.000000
235.174	1.549454
235.546	0.697229
235.918	0.488008
236.291	0.778045
236.663	0.341076
237.035	0.000000
237.408	0.000000
237.780	0.523930
238.152	0.000000
238.524	0.000000
238.896	0.000000
239.268	0.000000
239.641	0.000000
240.013	0.000000
240.385	0.000000
240.757	0.000000
241.129	-0.211152
241.500	0.571242
241.872	0.246416
242.244	0.000000
242.616	0.368645
242.988	0.219590
243.360	0.653413
243.731	0.000000
244.103	0.000000
244.475	0.000000
244.847	0.308220
245.218	0.000000
245.590	0.000000
245.961	0.000000
246.333	2.655075
246.705	0.631697
247.076	1.653814
247.448	1.064401
247.819	0.677345
248.190	0.817084
248.562	-0.001353
248.933	0.000000
249.305	0.000000
249.676	0.000000
250.047	0.000000
250.418	0.363267
250.790	0.000000
251.161	0.382651
251.532	0.269379
251.903	0.000000
252.274	0.000000
252.645	0.000000
253.016	0.000000
253.387	0.000000
253.758	0.000000
254.129	0.451828
254.500	0.000000
254.871	0.600661
255.242	0.000000
255.613	0.491685
255.984	0.000000
256.355	0.647495
256.725	0.000000
257.096	0.625724
257.467	0.000000
257.838	0.000000
258.208	0.000000
258.579	0.000000
258.949	0.603956
259.320	0.000000
259.690	0.282968
260.061	0.000000
260.431	0.000000
260.802	0.000000
261.172	0.000000
261.543	0.000000
261.913	0.611325
262.283	0.000000
262.654	0.000000
263.024	0.000000
263.394	0.355943
263.764	0.583855
264.135	0.000000
264.505	0.000000
264.875	1.281986
265.245	0.269186
265.615	0.487257
265.985	1.627571
266.355	0.111866
266.725	0.000000
267.095	0.000000
267.465	0.000000
267.835	0.000000
268.205	0.667841
268.575	0.000000
268.944	0.581691
269.314	0.000000
269.684	0.000000
270.054	0.000000
270.423	0.000000
270.793	0.000000
271.163	0.000000
271.532	0.000000
271.902	0.000000
272.271	0.000000
272.641	0.880093
273.010	0.000000
273.380	0.462216
273.749	0.000000
274.119	1.283103
274.488	0.000000
274.857	0.386384
275.227	0.000000
275.596	0.000000
275.965	0.000000
276.335	0.000000
276.704	0.359913
277.073	0.447600
277.442	0.000000
277.811	0.000000
278.180	0.000000
278.549	0.909613
278.918	0.000000
279.287	0.000000
279.656	0.353463
280.025	0.000000
280.394	0.433549
280.763	0.510847
281.132	0.583549
281.501	0.669199
281.869	0.000000
282.238	0.000000
282.607	0.000000
282.976	1.435080
283.344	0.000000
283.713	0.649295
284.081	0.000000
284.450	0.000000
284.819	0.000000
285.187	0.384570
285.556	0.622084
285.924	0.000000
286.292	0.000000
286.661	1.351943
287.029	0.908598
287.398	0.000000
287.766	0.806589
288.134	0.000000
288.502	0.824600
288.871	0.392259
289.239	0.000000
289.607	0.000000
289.975	0.000000
290.343	0.365397
290.711	0.000000
291.079	0.447103
291.447	0.531583
291.815	0.000000
292.183	0.702369
292.551	0.758649
292.919	0.304657
293.287	0.000000
293.655	0.973326
294.022	0.000000
294.390	0.000000
294.758	0.000000
295.126	0.535165
295.493	0.000000
295.861	0.658994
296.229	0.000000
296.596	0.000000
296.964	0.720405
297.331	0.000000
297.699	0.000000
298.066	0.000000
298.434	1.386304
298.801	0.000000
299.168	0.000000
299.536	0.794996
299.903	0.000000
300.270	0.753078
300.638	0.000000
301.005	0.000000
301.372	0.000000
301.739	0.000000
302.106	0.780667
302.473	0.000000
302.840	0.501303
303.207	0.516929
303.574	0.000000
303.941	0.531956
304.308	0.873959
304.675	0.000000
305.042	0.000000
305.409	0.000000
305.776	1.795970
306.143	0.000000
306.509	0.000000
306.876	0.759833
307.243	0.000000
307.610	0.000000
307.976	0.000000
308.343	0.000000
308.709	1.410484
309.076	1.156014
309.442	2.050202
309.809	1.018045
310.175	0.000000
310.542	1.113758
310.908	1.126743
311.275	3.057162
311.641	1.389666
312.007	1.507412
312.373	1.494312
312.740	0.000000
313.106	1.137975
313.472	0.000000
313.838	1.262255
314.204	1.385448
314.570	1.448629
314.936	1.428520
315.302	1.854327
315.668	0.000000
316.034	1.896765
316.400	0.000000
316.766	0.000000
317.132	3.522972
317.498	0.000000
317.864	1.419468
318.230	0.000000
318.595	2.194599
318.961	0.000000
319.327	1.964271
319.692	1.633396
320.058	1.699833
320.424	2.331598
320.789	0.000000
321.155	1.552190
321.520	1.988553
321.886	0.000000
322.251	2.282371
322.616	2.075512
322.982	0.000000
323.347	1.928749
323.712	0.000000
324.078	0.000000
324.443	0.000000
324.808	1.785394
325.173	1.842694
325.539	2.133671
325.904	2.295409
326.269	2.509086
326.634	1.952920
326.999	2.410765
327.364	2.277170
327.729	2.469063
328.094	0.000000
328.459	2.475895
328.823	1.729741
329.188	2.047419
329.553	2.336223
329.918	2.381638
330.283	2.135866
330.647	3.684619
331.012	1.957476
331.377	2.749921
331.741	2.130436
332.106	2.418814
332.470	1.962526
332.835	2.609400
333.199	2.120022
333.564	2.087277
333.928	3.256871
334.293	2.017937
334.657	2.442940
335.021	2.136847
335.386	1.859636
335.750	1.958380
336.114	2.041078
336.478	2.268874
336.843	2.801736
337.207	2.090584
337.571	2.017149
337.935	2.023131
338.299	1.999422
338.663	2.123982
339.027	1.993340
339.391	2.065007
339.755	2.076685
340.119	2.187415
340.483	1.912931
340.846	2.136637
341.210	2.635056
341.574	2.019990
341.938	2.246357
342.301	2.190226
342.665	1.901773
343.029	1.806030
343.392	1.994221
343.756	2.099985
344.119	1.873643
344.483	2.352838
344.846	2.386861
345.210	2.565503
345.573	2.091559
345.937	1.999479
346.300	2.242437
346.663	1.947527
347.027	2.459359
347.390	2.052819
347.753	2.167226
348.116	1.958078
348.479	2.214954
348.843	1.958374
349.206	2.055164
349.569	2.176980
349.932	2.124942
350.295	2.479367
350.658	2.304186
351.021	2.464449
351.383	2.220270
351.746	2.547341
352.109	2.038797
352.472	2.308118
352.835	2.079267
353.197	2.430386
353.560	1.945368
353.923	2.083499
354.285	2.045003
354.648	2.224120
355.011	2.045928
355.373	2.059504
355.736	2.097505
356.461	2.084002
356.823	1.987920
357.185	2.062708
357.548	2.254514
357.910	1.974018
358.272	2.065737
358.635	2.112189
358.997	2.110370
359.359	2.497494
359.721	2.039486
360.083	2.108046
360.445	2.064430
360.807	2.593723
361.169	2.049757
361.531	2.030451
361.893	2.143857
362.255	2.175788
362.617	2.074419
362.979	2.274062
363.341	2.073454
363.703	2.209158
364.064	2.056483
364.426	2.246713
364.788	2.180520
365.149	2.267195
365.511	2.054169
365.873	2.123115
366.234	2.070445
366.596	2.391611
366.957	2.106277
367.319	2.278075
367.680	2.165674
368.042	2.300673
368.403	2.105967
368.764	2.085776
369.126	2.301833
369.487	2.087571
369.848	2.030048
370.209	2.235797
370.570	2.146055
370.931	2.293407
371.293	2.389546
371.654	2.173607
372.015	2.358319
372.376	2.124040
372.737	2.183415
373.098	2.228862
373.458	2.034582
373.819	2.213946
374.180	2.434553
374.541	2.147836
374.902	2.389042
375.263	2.281497
375.623	2.164359
375.984	2.166586
376.345	2.157679
376.705	2.029194
377.066	2.023649
377.426	2.095619
377.787	2.397867
378.147	2.258700
378.508	2.397201
378.868	2.417286
379.228	2.173018
379.589	2.157041
379.949	2.267920
380.309	2.277641
380.670	2.053402
381.030	2.143992
381.390	2.023003
381.750	2.235803
382.110	2.424092
382.470	2.235811
382.830	2.191591
383.190	1.963833
383.550	2.111557
383.910	2.220038
384.270	2.533938
384.630	2.137748
384.990	2.395998
385.350	2.158365
385.709	2.405762
386.069	2.232375
386.429	2.182127
386.788	2.227717
387.148	2.103526
387.508	2.098393
387.867	2.101322
388.227	2.152958
388.586	2.281563
388.946	2.426231
389.305	2.095624
389.665	2.314231
390.024	2.439470
390.383	2.090106
390.743	2.138438
391.102	2.397594
391.461	2.093103
391.820	2.116384
392.179	2.389538
392.539	2.214205
392.898	2.145165
393.257	2.257896
393.616	2.347418
394.334	2.213198
394.693	2.102736
395.051	2.327156
395.410	2.115961
395.769	2.023504
396.128	2.109437
396.487	2.210259
396.845	2.354754
397.204	2.059915
397.563	2.086305
397.921	2.168615
398.280	2.285556
398.638	2.136828
398.997	2.237087
399.355	2.404096
399.714	2.314789
400.072	2.133972
400.431	2.199221
400.789	2.203754
401.147	2.074768
401.506	2.094191
401.864	2.169257
402.222	2.366635
402.580	2.433901
402.938	2.422972
403.297	2.253544
403.655	2.268263
404.013	2.262077
404.371	2.137935
404.729	2.522887
405.087	2.200781
405.444	2.414325
405.802	2.366519
406.160	2.058963
406.518	2.462699
406.876	2.111998
407.233	1.979600
407.591	2.047885
407.949	2.091713
408.306	2.451359
408.664	2.208357
409.022	2.048374
409.379	2.185433
409.737	2.209702
410.094	2.167567
410.451	2.170778
410.809	2.101978
411.166	2.183064
411.523	2.006427
411.881	2.204485
412.238	2.087463
412.595	2.160997
412.952	2.206250
413.310	1.990923
413.667	2.043370
414.024	2.178113
414.381	2.109251
414.738	2.051050
415.095	2.249043
415.452	2.123340
415.809	2.039915
416.165	2.349235
416.522	1.935110
416.879	2.063962
417.236	1.955335
417.593	2.274441
417.949	2.190361
418.306	1.952917
418.663	2.069959
419.019	2.110150
419.376	2.020690
419.732	1.973542
420.089	1.982686
420.445	2.131923
420.802	1.999247
421.158	2.086525
421.514	2.006080
421.871	2.160613
422.227	2.038449
422.583	2.040930
422.939	2.112492
423.295	2.063759
423.652	2.280169
424.008	2.046358
424.364	1.883834
424.720	2.090913
425.076	2.064595
425.432	2.009634
425.788	1.964281
426.143	1.990303
426.499	1.873631
426.855	2.027673
427.211	2.116267
427.567	1.966887
427.922	2.035707
428.278	2.015313
428.634	2.039790
428.989	2.045803
429.345	1.958558
429.700	1.916839
430.056	1.987872
430.411	1.989284
430.767	2.051180
431.122	1.896218
431.478	2.023397
432.188	1.874206
432.543	2.021991
432.899	1.891163
433.254	1.907576
433.609	1.993452
433.964	1.960829
434.319	1.900694
434.674	1.955280
435.029	1.906081
435.384	1.867700
435.739	1.952030
436.094	1.889980
436.449	1.825783
436.804	2.106788
437.158	1.952477
437.513	1.893392
437.868	1.843227
438.223	1.882322
438.577	1.910512
438.932	1.848507
439.287	1.809029
439.641	1.893875
439.996	1.884703
440.350	1.770864
440.704	1.938700
441.059	1.801952
441.413	1.805188
441.768	1.820016
442.122	1.846430
442.476	1.773163
442.830	1.740316
443.185	1.718772
443.539	1.766319
443.893	1.769271
444.247	1.801033
444.601	1.741294
444.955	1.785242
445.309	1.754945
445.663	1.801790
446.017	1.764933
446.371	1.838535
446.724	1.770051
447.078	1.836855
447.432	1.815891
447.786	1.743242
448.139	1.679643
448.493	1.693259
448.847	1.756133
449.200	1.712566
449.554	1.712656
449.907	1.636948
450.261	1.658550
450.614	1.702477
450.968	1.736341
451.321	1.695048
451.674	1.629427
452.027	1.649593
452.381	1.751468
452.734	1.709114
453.087	1.644665
453.440	1.589628
453.793	1.613709
454.146	1.636930
454.499	1.624090
454.852	1.650977
455.205	1.643578
455.558	1.620085
455.911	1.594325
456.264	1.656186
456.617	1.694848
456.970	1.604549
457.322	1.681707
457.675	1.584420
458.028	1.571728
458.380	1.613893
458.733	1.578620
459.086	1.628220
459.438	1.560551
459.791	1.560711
460.143	1.574905
460.496	1.537211
460.848	1.532114
461.200	1.562879
461.553	1.582454
461.905	1.580600
462.257	1.556987
462.609	1.523695
462.961	1.535609
463.314	1.535043
463.666	1.573440
464.018	1.534713
464.370	1.551766
464.722	1.500155
465.074	1.494905
465.426	1.515803
465.777	1.481792
466.129	1.477976
466.481	1.546892
466.833	1.486628
467.184	1.502747
467.536	1.482446
467.888	1.545231
468.239	1.483121
468.591	1.441139
468.943	1.465793
469.294	1.431972
469.646	1.429116
469.997	1.482536
470.348	1.433652
470.700	1.452701
471.051	1.467924
471.402	1.445445
471.754	1.414346
472.105	1.445132
472.456	1.453275
472.807	1.393951
473.158	1.417668
473.509	1.460797
473.860	1.412061
474.211	1.393785
474.562	1.376358
474.913	1.382324
475.264	1.394117
475.615	1.401819
475.966	1.398398
476.316	1.423330
476.667	1.375280
477.018	1.402731
477.368	1.390536
477.719	1.364599
478.070	1.382518
478.420	1.378974
478.771	1.359824
479.121	1.354493
479.472	1.353666
479.822	1.365117
480.172	1.335802
480.523	1.364685
480.873	1.346551
481.223	1.344856
481.573	1.364427
481.924	1.344180
482.274	1.338520
482.624	1.338285
482.974	1.338321
483.324	1.330699
483.674	1.340823
484.024	1.336345
484.374	1.332988
484.724	1.333369
485.073	1.315594
485.423	1.300922
485.773	1.304012
486.123	1.286246
486.472	1.283600
486.822	1.288669
487.172	1.287048
487.521	1.293706
487.871	1.311319
488.220	1.277671
488.570	1.264547
488.919	1.274550
489.268	1.289239
489.618	1.298462
489.967	1.286925
490.316	1.267704
490.666	1.272743
491.015	1.277853
491.364	1.286104
491.713	1.247547
492.062	1.267728
492.411	1.271781
492.760	1.252746
493.109	1.249313
493.458	1.263146
493.807	1.244455
494.156	1.238669
494.505	1.249095
494.853	1.238853
495.202	1.259729
495.551	1.225178
495.900	1.236467
496.248	1.220119
496.597	1.234069
496.945	1.216571
497.294	1.231070
497.642	1.230620
497.991	1.214272
498.339	1.233938
498.688	1.217969
499.036	1.216287
499.384	1.217828
499.732	1.197198
500.081	1.202277
500.429	1.193592
500.777	1.209719
501.125	1.188466
501.473	1.197977
501.821	1.204640
502.169	1.188697
502.517	1.171583
502.865	1.180556
503.213	1.169229
503.561	1.178858
503.908	1.178003
504.256	1.174736
504.604	1.164279
504.952	1.173415
505.299	1.166807
505.647	1.150201
505.994	1.155193
506.342	1.160944
506.689	1.149385
507.037	1.150645
507.384	1.134548
507.732	1.134166
508.079	1.137600
508.426	1.135287
508.774	1.152035
509.121	1.136726
509.468	1.137529
509.815	1.125385
510.162	1.128106
510.509	1.119563
510.856	1.113167
511.203	1.130835
511.550	1.115794
511.897	1.110629
512.244	1.118407
512.591	1.114762
512.938	1.106243
513.284	1.108135
513.631	1.109477
513.978	1.100166
514.324	1.115028
514.671	1.095915
515.018	1.105126
515.364	1.090373
515.711	1.077652
516.057	1.083014
516.403	1.092432
516.750	1.075758
517.096	1.089446
517.443	1.088482
517.789	1.081643
518.135	1.071275
518.481	1.081587
518.827	1.065703
519.173	1.065025
519.519	1.075318
519.865	1.082193
520.211	1.071905
520.557	1.048375
520.903	1.058170
521.249	1.062086
521.595	1.062821
521.941	1.048280
522.287	1.050221
522.632	1.048079
522.978	1.048742
523.324	1.055073
523.669	1.049610
524.015	1.039209
524.360	1.037907
524.706	1.035802
525.051	1.018375
525.397	1.035441
525.742	1.036895
526.087	1.024594
526.433	1.024439
526.778	1.031778
527.123	1.020603
527.468	1.022931
527.813	1.019464
528.158	1.011572
528.504	1.024792
528.849	1.005249
529.193	1.010223
529.538	1.003137
529.883	1.002847
530.228	1.000165
530.573	0.993049
530.918	0.998370
531.263	0.990802
531.607	0.983362
531.952	0.986655
532.296	0.977694
532.641	0.974497
532.986	0.981038
533.330	0.972679
533.675	0.983825
534.019	0.970584
534.363	0.967418
534.708	0.971614
535.052	0.974059
535.396	0.965218
535.741	0.953295
536.085	0.954008
536.429	0.943206
536.773	0.947762
537.117	0.961994
537.461	0.953038
537.805	0.958795
538.149	0.946623
538.493	0.940452
538.837	0.935056
539.181	0.938026
539.524	0.936785
539.868	0.934280
540.212	0.929652
540.556	0.912782
540.899	0.922647
541.243	0.924446
541.586	0.912356
541.930	0.911567
542.273	0.904228
542.617	0.897506
542.960	0.904636
543.304	0.899159
543.647	0.898264
543.990	0.887618
544.333	0.887488
544.677	0.883215
545.020	0.882893
545.363	0.874054
545.706	0.876612
546.049	0.856266
546.392	0.871337
546.735	0.873447
547.078	0.871616
547.421	0.862644
547.764	0.859002
548.106	0.847254
548.449	0.849249
548.792	0.848077
549.135	0.840117
549.477	0.830805
549.820	0.834870
550.162	0.827131
550.505	0.816778
550.847	0.821199
551.190	0.825531
551.532	0.818762
551.875	0.807308
552.217	0.803612
552.559	0.803080
552.901	0.806392
553.244	0.807034
553.586	0.794595
553.928	0.790166
554.270	0.790072
554.612	0.781323
554.954	0.774818
555.296	0.775927
555.638	0.768915
555.980	0.768755
556.322	0.765307
556.663	0.753929
557.005	0.752473
557.347	0.753198
557.689	0.742097
558.030	0.742241
558.372	0.739540
558.713	0.733189
559.055	0.726140
559.396	0.723377
559.738	0.713027
560.079	0.712810
560.421	0.698681
560.762	0.712248
561.103	0.703302
561.444	0.701787
561.786	0.693474
562.127	0.691195
562.468	0.684366
562.809	0.694000
563.150	0.674080
563.491	0.668577
563.832	0.666877
564.173	0.669483
564.514	0.658387
564.855	0.655484
565.195	0.654501
565.536	0.642610
565.877	0.645580
566.218	0.626389
566.558	0.631420
566.899	0.620996
567.239	0.620978
567.580	0.612793
567.920	0.612908
568.261	0.605417
568.601	0.612949
568.941	0.602451
569.282	0.598013
569.622	0.595205
569.962	0.589912
570.302	0.582556
570.643	0.579581
570.983	0.579379
571.323	0.576645
571.663	0.572560
572.003	0.570918
572.343	0.559013
572.683	0.548118
573.022	0.532625
573.362	0.513632
573.702	0.485617
574.042	0.468882
574.381	0.456705
574.721	0.455332
575.061	0.451837
575.400	0.451059
575.740	0.448966
576.079	0.445077
576.419	0.423702
576.758	0.395088
577.097	0.370108
577.437	0.354976
577.776	0.349213
578.115	0.347683
578.454	0.347652
578.794	0.360940
579.133	0.373032
579.472	0.383006
579.811	0.374140
580.150	0.343803
580.489	0.307539
580.828	0.276774
581.167	0.255981
581.505	0.241814
581.844	0.240068
582.183	0.254507
582.522	0.291375
582.860	0.333242
583.199	0.373069
583.538	0.396002
583.876	0.400000
584.215	0.386198
584.553	0.367431
584.891	0.352719
585.230	0.349039
585.568	0.350642
585.906	0.358411
586.245	0.366530
586.583	0.376551
586.921	0.383802
587.259	0.385690
587.597	0.386337
587.935	0.396459
588.273	0.413853
588.611	0.436584
588.949	0.456004
589.287	0.453112
589.625	0.455372
589.963	0.456359
590.300	0.457088
590.638	0.454877
590.976	0.452202
591.313	0.450248
591.651	0.449576
591.989	0.448912
592.326	0.445622
592.664	0.439931
593.001	0.437763
593.338	0.429626
593.676	0.425160
594.013	0.429135
594.350	0.431070
594.687	0.427401
595.025	0.427279
595.362	0.428625
595.699	0.426837
596.036	0.428121
596.373	0.430732
596.710	0.428151
597.047	0.427691
597.384	0.429718
597.720	0.429874
598.057	0.426084
598.394	0.426406
598.731	0.422881
599.067	0.421563
599.404	0.420517
599.741	0.418449
600.077	0.415510
600.414	0.417221
600.750	0.417749
601.087	0.416804
601.423	0.412722
601.759	0.411477
602.096	0.408939
602.432	0.403363
602.768	0.404097
603.104	0.406854
603.440	0.402808
603.776	0.403072
604.112	0.405176
604.448	0.405641
604.784	0.406578
605.120	0.405190
605.456	0.406032
605.792	0.404910
606.128	0.405875
606.463	0.403490
606.799	0.404859
607.135	0.401677
607.470	0.404693
607.806	0.398616
608.142	0.401652
608.477	0.398981
608.812	0.397501
609.148	0.394518
609.483	0.391614
609.819	0.389426
610.154	0.392686
610.489	0.393738
610.824	0.383639
611.159	0.391300
611.494	0.385642
611.830	0.387640
612.165	0.386032
612.500	0.381999
612.834	0.386466
613.169	0.383004
613.504	0.382919
613.839	0.387672
614.174	0.385699
614.509	0.390505
614.843	0.390752
615.178	0.386377
615.512	0.385914
615.847	0.385049
616.182	0.381544
616.516	0.375033
616.850	0.375732
617.185	0.374483
617.519	0.373796
617.853	0.368820
618.188	0.370993
618.522	0.375098
618.856	0.368087
619.190	0.368664
619.524	0.369238
619.858	0.366348
620.192	0.370268
620.526	0.365763
620.860	0.363368
621.194	0.365047
621.528	0.368217
621.862	0.364848
622.195	0.363009
622.529	0.364855
622.863	0.365653
623.196	0.364785
623.530	0.362736
623.864	0.364394
624.197	0.360811
624.530	0.353777
624.864	0.355258
625.197	0.355356
625.531	0.354731
625.864	0.353871
626.197	0.356096
626.530	0.357037
626.863	0.360789
627.196	0.349129
627.529	0.356856
627.862	0.352537
628.195	0.352741
628.528	0.359366
628.861	0.349364
629.194	0.353535
629.527	0.349483
629.860	0.357974
630.192	0.348556
630.525	0.349880
630.858	0.346301
631.190	0.349609
631.523	0.344308
631.855	0.343244
632.188	0.349695
632.520	0.341694
632.852	0.342120
633.185	0.334718
633.517	0.351002
633.849	0.342947
634.182	0.344731
634.514	0.336025
634.846	0.335931
635.178	0.337401
635.510	0.337183
635.842	0.349724
636.174	0.345059
636.506	0.346734
636.837	0.342771
637.169	0.347487
637.501	0.335413
637.833	0.340512
638.164	0.338414
638.496	0.323568
638.828	0.324966
639.159	0.335404
639.491	0.333879
639.822	0.331722
640.154	0.331629
640.485	0.333444
640.816	0.329771
641.147	0.335116
641.479	0.333079
641.810	0.317901
642.141	0.315346
642.472	0.321649
642.803	0.316166
643.134	0.327820
643.465	0.325636
643.796	0.318993
644.127	0.333726
644.458	0.316233
644.789	0.319710
645.119	0.327838
645.450	0.319106
645.781	0.325821
646.111	0.329084
646.442	0.326240
646.773	0.318636
647.103	0.323125
647.433	0.322122
647.764	0.325775
648.094	0.321208
648.425	0.325330
648.755	0.322980
649.085	0.332010
649.415	0.322651
649.745	0.332480
650.075	0.330116
650.405	0.321806
650.735	0.317985
651.065	0.327989
651.395	0.319591
651.725	0.313556
652.055	0.324602
652.385	0.324846
652.715	0.311053
653.044	0.318828
653.374	0.302711
653.704	0.314239
654.033	0.310750
654.363	0.308793
654.692	0.063004
655.022	-0.000000
655.351	-0.000000
655.680	-0.000000
656.010	-0.000000
656.339	-0.000000
656.668	-0.000000
656.997	-0.000000
657.326	-0.000000
657.655	0.038719
657.984	0.226508
658.313	0.314389
658.642	0.303190
658.971	0.300061
659.300	0.306014
659.629	0.307620
659.958	0.307197
660.286	0.299546
660.615	0.308115
660.944	0.306412
661.272	0.308736
661.601	0.306688
661.929	0.306756
662.258	0.292473
662.586	0.306504
662.915	0.306932
663.243	0.293896
663.571	0.310288
663.899	0.309602
664.228	0.307180
664.556	0.307796
664.884	0.300991
665.212	0.305351
665.540	0.303802
665.868	0.309530
666.196	0.308820
666.524	0.300552
666.852	0.302712
667.179	0.296972
667.507	0.292248
667.835	0.298281
668.162	0.296625
668.490	0.302420
668.818	0.306775
669.145	0.303788
669.473	0.298466
669.800	0.306671
670.127	0.290455
670.455	0.293702
670.782	0.310855
671.109	0.300545
671.436	0.299490
671.764	0.302930
672.091	0.294313
672.418	0.298429
672.745	0.289882
673.072	0.296980
673.399	0.303283
673.726	0.305641
674.053	0.298277
674.379	0.288155
674.706	0.284302
675.033	0.285495
675.359	0.297585
675.686	0.291661
676.013	0.293040
676.339	0.296574
676.666	0.300396
676.992	0.294948
677.318	0.289892
677.645	0.300879
677.971	0.288845
678.297	0.287595
678.624	0.290930
678.950	0.292643
679.276	0.283695
679.602	0.285236
679.928	0.284810
680.254	0.270063
680.580	0.291498
680.906	0.280293
681.232	0.278636
681.558	0.283121
681.883	0.296288
682.209	0.293633
682.535	0.286452
682.860	0.287910
683.186	0.278632
683.511	0.284162
683.837	0.282740
684.162	0.281817
684.488	0.286422
684.813	0.282108
685.138	0.287731
685.464	0.291752
685.789	0.288580
686.114	0.283075
686.439	0.288726
686.764	0.289751
687.089	0.284646
687.414	0.280057
687.739	0.275523
688.064	0.287496
688.389	0.283886
688.714	0.283148
689.039	0.279936
689.363	0.280911
689.688	0.267282
690.013	0.275029
690.337	0.276497
690.662	0.274971
690.986	0.280970
691.311	0.276175
691.635	0.281323
691.959	0.275413
692.284	0.278997
692.608	0.281865
692.932	0.272834
693.256	0.278437
693.580	0.273748
693.904	0.259113
694.228	0.282284
694.552	0.281909
694.876	0.277824
695.200	0.262575
695.524	0.278985
695.848	0.263780
696.172	0.275378
696.495	0.282333
696.819	0.283639
697.143	0.272431
697.466	0.275401
697.790	0.273247
698.113	0.272663
698.437	0.259298
698.760	0.281133
699.083	0.277442
699.407	0.267818
699.730	0.274640
700.053	0.262082
700.376	0.275357
700.699	0.262737
701.022	0.264912
701.345	0.267842
701.668	0.264343
701.991	0.266376
702.314	0.266701
702.637	0.275121
702.960	0.266180
703.283	0.266719
703.605	0.276079
703.928	0.281443
704.251	0.270714
704.573	0.265354
704.896	0.258963
705.218	0.263506
705.540	0.272273
705.863	0.257683
706.185	0.270638
706.507	0.264526
706.830	0.271888
707.152	0.261117
707.474	0.272850
707.796	0.268098
708.118	0.268726
708.440	0.277333
708.762	0.271638
709.084	0.267141
709.406	0.271146
709.728	0.266489
710.049	0.264670
710.371	0.270648
710.693	0.269071
711.014	0.262394
711.336	0.259960
711.658	0.267839
711.979	0.265330
712.301	0.271805
712.622	0.262076
712.943	0.268643
713.265	0.259910
713.586	0.275034
713.907	0.254474
714.228	0.267804
714.549	0.254471
714.870	0.272786
715.191	0.257903
715.512	0.263905
715.833	0.263897
716.154	0.261428
716.475	0.272652
716.796	0.271694
717.117	0.260067
717.437	0.273183
717.758	0.259539
718.078	0.273507
718.399	0.257078
718.719	0.252436
719.040	0.263359
719.360	0.246352
719.681	0.248507
720.001	0.262797
720.321	0.248491
720.642	0.246962
720.962	0.244142
721.282	0.253449
721.602	0.241824
721.922	0.245367
722.242	0.253399
722.562	0.241679
722.882	0.244235
723.202	0.251728
723.521	0.243797
723.841	0.249487
724.161	0.253788
724.481	0.249971
724.800	0.255437
725.120	0.243636
725.439	0.242628
725.759	0.236537
726.078	0.241664
726.398	0.241281
726.717	0.246387
727.036	0.241049
727.355	0.248643
727.675	0.243484
727.994	0.237135
728.313	0.240265
728.632	0.236801
728.951	0.241332
729.270	0.236951
729.589	0.242178
729.908	0.244272
730.226	0.241253
730.545	0.243173
730.864	0.242176
731.182	0.239909
731.501	0.235734
731.820	0.244624
732.138	0.247856
732.457	0.243939
732.775	0.247529
733.093	0.236925
733.412	0.236616
733.730	0.233621
734.048	0.229529
734.367	0.239366
734.685	0.229450
735.003	0.217667
735.321	0.237815
735.639	0.226690
735.957	0.235702
736.275	0.244627
736.593	0.230874
736.910	0.229779
737.228	0.224511
737.546	0.226077
737.863	0.226713
738.181	0.231381
738.499	0.223341
738.816	0.223209
739.134	0.229834
739.451	0.232528
739.768	0.239420
740.086	0.217280
740.403	0.229695
740.720	0.220800
741.038	0.221902
741.355	0.237530
741.672	0.234080
741.989	0.231113
742.306	0.212787
742.623	0.236430
742.940	0.223853
743.257	0.226155
743.573	0.226759
743.890	0.218683
744.207	0.216952
744.523	0.216216
744.840	0.218831
745.157	0.221667
745.473	0.200294
745.790	0.228418
746.106	0.217769
746.422	0.218392
746.739	0.223693
747.055	0.233013
747.371	0.218658
747.687	0.206715
748.004	0.211362
748.320	0.222130
748.636	0.222486
748.952	0.219840
749.268	0.211118
749.584	0.206901
749.899	0.215516
750.215	0.206685
750.531	0.204680
750.847	0.213838
751.162	0.206732
751.478	0.207415
751.793	0.211380
752.109	0.206971
752.424	0.207127
752.740	0.210899
753.055	0.205384
753.370	0.207475
753.686	0.212622
754.001	0.198690
754.316	0.216552
754.631	0.216466
754.946	0.209485
755.261	0.201685
755.576	0.210491
755.891	0.202046
756.206	0.213848
756.521	0.214070
756.836	0.222322
757.150	0.218806
757.465	0.218511
757.780	0.215891
758.094	0.217094
758.409	0.217883
758.723	0.208788
759.038	0.207530
759.352	0.200618
759.667	0.211091
759.981	0.203657
760.295	0.204357
760.609	0.196455
760.923	0.212803
761.238	0.211024
761.552	0.208437
761.866	0.207919
762.180	0.208327
762.493	0.204256
762.807	0.197344
763.121	0.206831
763.435	0.214043
763.749	0.208394
764.062	0.209625
764.376	0.207723
764.689	0.201437
765.003	0.220893
765.316	0.201322
765.630	0.197988
765.943	0.205458
766.257	0.200645
766.570	0.194567
766.883	0.196532
767.196	0.199945
767.509	0.212535
767.822	0.207254
768.135	0.202195
768.448	0.206144
768.761	0.201045
769.074	0.197918
769.387	0.201081
769.700	0.201753
770.013	0.203221
770.325	0.195940
770.638	0.197392
770.950	0.188585
771.263	0.192164
771.575	0.196471
771.888	0.184558
772.200	0.192527
772.513	0.177767
772.825	0.188173
773.137	0.178209
773.449	0.176556
773.761	0.187571
774.074	0.188297
774.386	0.199460
774.698	0.193086
775.010	0.191616
775.321	0.186258
775.633	0.181306
775.945	0.189100
776.257	0.194153
776.568	0.186992
776.880	0.178087
777.192	0.193160
777.503	0.169247
777.815	0.183027
778.126	0.185794
778.438	0.193461
778.749	0.180884
779.060	0.187089
779.372	0.194519
779.683	0.182712
779.994	0.180264
780.305	0.182492
780.616	0.192432
780.927	0.193043
781.238	0.188096
781.549	0.201819
781.860	0.197111
782.171	0.201749
782.481	0.197506
782.792	0.186933
783.103	0.198030
783.413	0.186741
783.724	0.186430
784.034	0.195805
784.345	0.193984
784.655	0.194611
784.966	0.181361
785.276	0.190455
785.586	0.192079
785.896	0.183341
786.207	0.187315
786.517	0.180668
786.827	0.179564
787.137	0.186041
787.447	0.183295
787.757	0.178033
788.066	0.188208
788.376	0.181448
788.686	0.204322
788.996	0.188733
789.305	0.200355
789.615	0.185815
789.925	0.191221
790.234	0.183524
790.544	0.189591
790.853	0.176477
791.162	0.194709
791.472	0.188715
791.781	0.200517
792.090	0.187249
792.399	0.191479
792.708	0.206007
793.017	0.194804
793.326	0.192882
793.635	0.198114
793.944	0.196401
794.253	0.198778
794.562	0.183294
794.871	0.196674
795.179	0.197946
795.488	0.194035
795.797	0.190212
796.105	0.195692
796.414	0.192553
796.722	0.171981
797.031	0.178064
797.339	0.182231
797.647	0.182692
797.956	0.196157
798.264	0.187515
798.572	0.180001
798.880	0.189736
799.188	0.203378
799.496	0.170148
799.804	0.186547
800.112	0.140954
800.420	0.179496
800.728	0.181208
801.035	0.179506
801.343	0.189004
801.651	0.174204
801.958	0.179962
802.266	0.196163
802.573	0.195467
802.881	0.171646
803.188	0.178563
803.496	0.171955
803.803	0.203318
804.110	0.165346
804.417	0.166360
804.724	0.178262
805.032	0.182072
805.339	0.185987
805.646	0.189162
805.953	0.187734
806.259	0.171552
806.566	0.176932
806.873	0.175735
807.180	0.166003
807.486	0.172200
807.793	0.154348
808.100	0.173352
808.406	0.182535
808.713	0.167087
809.019	0.176589
809.326	0.172200
809.632	0.162595
809.938	0.195551
810.244	0.166028
810.551	0.176361
810.857	0.204066
811.163	0.187671
811.469	0.190977
811.775	0.162789
812.081	0.172238
812.387	0.177757
812.692	0.189039
812.998	0.189106
813.304	0.203294
813.610	0.170117
813.915	0.147439
814.221	0.143849
814.526	0.171013
814.832	0.162015
815.137	0.180479
815.443	0.194298
815.748	0.172909
816.053	0.168549
816.358	0.175379
816.664	0.156644
816.969	0.164296
817.274	0.173476
817.579	0.176282
817.884	0.192146
818.189	0.147493
818.493	0.179220
818.798	0.172935
819.103	0.179092
819.408	0.186808
819.712	0.171913
820.017	0.172757
820.321	0.170979
820.626	0.170244
820.930	0.167871
821.235	0.166931
821.539	0.190292
821.843	0.181346
822.148	0.176561
822.452	0.159241
822.756	0.180241
823.060	0.167836
823.364	0.187726
823.668	0.178214
823.972	0.180171
824.276	0.176457
824.580	0.160388
824.883	0.158948
825.187	0.165300
825.491	0.170961
825.795	0.175885
826.098	0.162034
826.402	0.187051
826.705	0.183342
827.008	0.167265
827.312	0.176346
827.615	0.172591
827.918	0.186924
828.222	0.182882
828.525	0.185517
828.828	0.166754
829.131	0.151727
829.434	0.160789
829.737	0.203737
830.040	0.180999
830.343	0.178474
830.645	0.162526
830.948	0.183964
831.251	0.202988
831.553	0.146633
831.856	0.225381
832.159	0.181814
832.461	0.162801
832.764	0.173617
833.066	0.194569
833.368	0.175419
833.671	0.210440
833.973	0.148454
834.275	0.144252
834.577	0.182590
834.879	0.189075
835.181	0.195547
835.483	0.131288
835.785	0.169737
836.087	0.192403
836.389	0.184728
836.690	0.196963
836.992	0.106131
837.294	0.183231
837.595	0.180013
837.897	0.216050
838.198	0.192522
838.500	0.201711
838.801	0.162708
839.103	0.144876
839.404	0.126359
839.705	0.151171
840.006	0.153692
840.307	0.151684
840.608	0.164352
840.910	0.243636
841.210	0.185547
841.511	0.170794
841.812	0.158118
842.113	0.229212
842.414	0.153172
842.715	0.126492
843.015	0.231344
843.316	0.244068
843.616	0.233101
843.917	0.204410
844.217	0.137038
844.518	0.252375
844.818	0.202108
845.118	0.093788
845.419	0.187627
845.719	0.224734
846.019	0.313623
846.319	0.199388
846.619	0.282050
846.919	0.273866
847.219	0.185016
847.519	0.177730
847.819	0.256907
848.118	0.126680
848.418	0.161794
848.718	0.220712
849.017	0.181818
849.317	0.159139
849.616	0.167878
849.916	0.193635
850.215	0.172188
850.515	0.120875
850.814	0.236267
851.113	0.187397
851.412	0.172055
851.712	0.153638
852.011	0.164830
852.310	0.181225
852.609	0.143943
852.908	0.144017
853.206	0.128339
853.505	0.157323
853.804	0.131340
854.103	0.144128
854.401	0.163246
854.700	0.132839
854.999	0.124058
855.297	0.142035
855.595	0.184057
855.894	0.127984
856.192	0.138060
856.491	0.162777
856.789	0.149393
857.087	0.118504
857.385	0.150834
857.683	0.124569
857.981	0.208781
858.279	0.192942
858.577	0.171599
858.875	0.118137
859.173	0.143005
859.471	0.156410
859.768	0.165206
860.066	0.106929
860.363	0.124765
860.661	0.156088
860.959	0.175560
861.256	0.156372
861.553	0.156227
861.851	0.177707
862.148	0.159053
862.445	0.207541
862.742	0.165707
863.039	0.168450
863.337	0.162200
863.634	0.175934
863.931	0.139599
864.227	0.187774
864.524	0.143588
864.821	0.096098
865.118	0.117911
865.415	0.159631
865.711	0.128475
866.008	0.189255
866.304	0.285639
866.601	0.172116
866.897	0.146834
867.194	0.118823
867.490	0.179740
867.786	0.206932
868.082	0.220503
868.379	0.124569
868.675	0.139096
868.971	0.229743
869.267	0.259915
869.563	0.192680
869.859	0.146184
870.154	0.101628
870.450	0.216961
870.746	0.229420
871.042	0.150224
871.337	0.100464
871.633	0.268476
871.928	0.127785
872.224	0.209716
872.519	0.213439
872.815	0.114063
873.110	0.157305
873.405	0.129712
873.700	0.220801
873.995	0.158678
874.291	0.113101
874.586	0.227046
874.881	0.149295
875.175	0.201494
875.470	0.127043
875.765	0.133779
876.060	0.196772
876.355	0.161773
876.649	0.222987
876.944	0.142743
877.238	0.234328
877.533	0.151979
877.827	0.076424
878.122	0.187053
878.416	0.079578
878.710	0.149235
879.005	0.121748
879.299	0.145724
879.593	0.116101
879.887	0.153616
880.181	0.107338
880.475	0.151005
880.769	0.113307
881.063	0.114186
881.356	0.157416
881.650	0.174262
881.944	0.202425
882.238	0.132156
882.531	0.147651
882.825	0.112685
883.118	0.235882
883.412	0.212174
883.705	0.146984
883.998	0.185608
884.291	0.141396
884.585	0.165450
884.878	0.165602
>>>>>>>>>> END of Data <<<<<<<<<<
