Date	2021年06月15日火曜日 04時10分45秒
Spectrometers	USB2+H05879
ダーク	使用
リファレンス	使用
積分時間[msec]	10
平均回数	280
ｽﾑｰｼﾞﾝｸﾞ	10
Electrical Dark	USE
ピクセル数	2048
計測モード	吸光度
保存開始波長[nm]	190.664
保存終了波長[nm]	884.878
保存ﾋﾟｯﾁ波長[nm]	全波長

>>>>>>>>>> Data Start <<<<<<<<<<<<
190.664	0.000000
191.040	0.000000
191.415	0.000000
191.791	-2.358866
192.166	-0.528672
192.542	-0.794257
192.917	0.000000
193.293	-0.294715
193.668	-0.237799
194.044	-0.764281
194.419	0.000000
194.794	-1.347502
195.170	-1.270113
195.545	-1.172108
195.920	-1.055271
196.296	-0.944767
196.671	-0.786790
197.046	-0.638646
197.421	-0.591147
197.796	-0.588734
198.171	-0.563216
198.546	-0.512761
198.922	-0.461689
199.297	-0.439975
199.672	-0.424434
200.047	-0.406702
200.422	-0.379854
200.796	-0.365975
201.171	-0.347508
201.546	-0.340277
201.921	-0.331970
202.296	-0.319622
202.671	-0.298962
203.045	-0.265846
203.420	-0.258317
203.795	-0.237966
204.170	-0.227677
204.544	-0.227837
204.919	-0.225868
205.294	-0.220091
205.668	-0.207982
206.043	-0.193565
206.417	-0.192114
206.792	-0.184739
207.166	-0.180115
207.541	-0.176731
207.915	-0.178728
208.289	-0.169299
208.664	-0.170322
209.038	-0.162461
209.412	-0.146339
209.787	-0.125938
210.161	-0.113629
210.535	-0.115937
210.909	-0.115414
211.284	-0.116067
211.658	-0.124901
212.032	-0.128494
212.406	-0.129222
212.780	-0.124712
213.154	-0.127757
213.528	-0.123593
213.902	-0.126893
214.276	-0.122949
214.650	-0.136412
215.024	-0.132932
215.398	-0.127191
215.772	-0.117014
216.145	-0.117243
216.519	-0.109006
216.893	-0.114682
217.267	-0.121186
217.640	-0.130155
218.014	-0.121597
218.388	-0.103155
218.761	-0.110553
219.135	-0.091184
219.508	-0.083190
219.882	-0.089455
220.256	-0.086013
220.629	-0.077482
221.003	-0.076306
221.376	-0.078437
221.749	-0.075421
222.123	-0.082133
222.496	-0.081527
222.869	-0.073743
223.243	-0.077363
223.616	-0.077908
223.989	-0.083560
224.362	-0.074733
224.736	-0.069825
225.109	-0.067940
225.482	-0.061027
225.855	-0.067454
226.228	-0.088339
226.601	-0.081213
226.974	-0.090874
227.347	-0.086893
227.720	-0.082363
228.093	-0.080339
228.466	-0.086228
228.839	-0.082210
229.212	-0.085713
229.585	-0.094211
229.957	-0.089200
230.330	-0.082149
230.703	-0.082030
231.076	-0.080507
231.448	-0.087055
231.821	-0.085825
232.194	-0.098550
232.566	-0.103973
232.939	-0.108139
233.311	-0.115447
233.684	-0.107159
234.056	-0.100253
234.429	-0.103984
234.801	-0.103268
235.174	-0.106011
235.546	-0.106868
235.918	-0.108508
236.291	-0.110026
236.663	-0.105122
237.035	-0.100450
237.408	-0.086665
237.780	-0.082306
238.152	-0.081296
238.524	-0.089987
238.896	-0.084343
239.268	-0.077976
239.641	-0.078385
240.013	-0.064368
240.385	-0.055774
240.757	-0.052173
241.129	-0.055659
241.500	-0.059930
241.872	-0.057230
242.244	-0.049918
242.616	-0.050702
242.988	-0.048861
243.360	-0.042257
243.731	-0.040829
244.103	-0.037801
244.475	-0.040325
244.847	-0.036271
245.218	-0.034882
245.590	-0.025649
245.961	-0.023080
246.333	-0.020503
246.705	-0.029320
247.076	-0.027978
247.448	-0.020022
247.819	-0.022571
248.190	-0.020281
248.562	-0.017916
248.933	-0.010077
249.305	-0.006444
249.676	-0.003566
250.047	-0.011584
250.418	-0.010161
250.790	-0.007331
251.161	-0.006977
251.532	-0.007632
251.903	-0.010431
252.274	-0.009316
252.645	-0.010754
253.016	-0.021170
253.387	-0.032753
253.758	-0.035565
254.129	-0.033230
254.500	-0.023413
254.871	-0.022124
255.242	-0.030800
255.613	-0.035653
255.984	-0.036757
256.355	-0.037942
256.725	-0.030281
257.096	-0.031037
257.467	-0.032342
257.838	-0.030914
258.208	-0.028714
258.579	-0.027602
258.949	-0.027568
259.320	-0.020276
259.690	-0.016952
260.061	-0.010667
260.431	-0.002830
260.802	0.005140
261.172	0.006089
261.543	0.008305
261.913	0.001712
262.283	0.001958
262.654	-0.000732
263.024	-0.001362
263.394	-0.000991
263.764	-0.003785
264.135	-0.002679
264.505	-0.009262
264.875	-0.002868
265.245	-0.000135
265.615	0.002075
265.985	0.000926
266.355	-0.001205
266.725	-0.000987
267.095	0.000271
267.465	0.001655
267.835	-0.005475
268.205	-0.014938
268.575	-0.011250
268.944	-0.007736
269.314	-0.011325
269.684	-0.001884
270.054	-0.013214
270.423	-0.009942
270.793	-0.006145
271.163	-0.000355
271.532	0.004865
271.902	0.013498
272.271	0.013396
272.641	0.013905
273.010	0.007828
273.380	0.004211
273.749	0.011694
274.119	0.016982
274.488	0.024999
274.857	0.023428
275.227	0.024416
275.596	0.027110
275.965	0.037121
276.335	0.034557
276.704	0.034421
277.073	0.031189
277.442	0.034128
277.811	0.048322
278.180	0.050983
278.549	0.057203
278.918	0.053275
279.287	0.050500
279.656	0.052806
280.025	0.052880
280.394	0.043378
280.763	0.050287
281.132	0.055413
281.501	0.055363
281.869	0.049325
282.238	0.043261
282.607	0.039245
282.976	0.038802
283.344	0.041517
283.713	0.038037
284.081	0.037319
284.450	0.037913
284.819	0.050521
285.187	0.050576
285.556	0.045059
285.924	0.041651
286.292	0.039809
286.661	0.039699
287.029	0.039304
287.398	0.035051
287.766	0.033414
288.134	0.035995
288.502	0.034958
288.871	0.039962
289.239	0.042173
289.607	0.049749
289.975	0.051869
290.343	0.054611
290.711	0.051771
291.079	0.049070
291.447	0.052112
291.815	0.047970
292.183	0.052331
292.551	0.052236
292.919	0.053977
293.287	0.058267
293.655	0.063595
294.022	0.062002
294.390	0.068878
294.758	0.072660
295.126	0.068818
295.493	0.073426
295.861	0.081244
296.229	0.076875
296.596	0.082751
296.964	0.079122
297.331	0.074852
297.699	0.077679
298.066	0.081825
298.434	0.089565
298.801	0.092860
299.168	0.087440
299.536	0.096067
299.903	0.098099
300.270	0.093013
300.638	0.095941
301.005	0.102857
301.372	0.104565
301.739	0.110744
302.106	0.109031
302.473	0.116133
302.840	0.129064
303.207	0.149369
303.574	0.159206
303.941	0.182154
304.308	0.187858
304.675	0.201873
305.042	0.226609
305.409	0.246604
305.776	0.263515
306.143	0.287613
306.509	0.313619
306.876	0.345127
307.243	0.370269
307.610	0.400670
307.976	0.431686
308.343	0.457771
308.709	0.485075
309.076	0.519008
309.442	0.550679
309.809	0.582831
310.175	0.614362
310.542	0.642204
310.908	0.661958
311.275	0.689142
311.641	0.717552
312.007	0.750162
312.373	0.782817
312.740	0.807434
313.106	0.835502
313.472	0.871170
313.838	0.898864
314.204	0.915729
314.570	0.932898
314.936	0.955919
315.302	0.978116
315.668	0.997418
316.034	1.027892
316.400	1.058384
316.766	1.077757
317.132	1.106647
317.498	1.133177
317.864	1.150075
318.230	1.167696
318.595	1.188715
318.961	1.204099
319.327	1.218601
319.692	1.233596
320.058	1.241516
320.424	1.257312
320.789	1.272531
321.155	1.284610
321.520	1.293654
321.886	1.312388
322.251	1.327820
322.616	1.341346
322.982	1.348558
323.347	1.362802
323.712	1.371342
324.078	1.377036
324.443	1.384692
324.808	1.391769
325.173	1.400674
325.539	1.411049
325.904	1.420859
326.269	1.426748
326.634	1.434184
326.999	1.442391
327.364	1.447323
327.729	1.456061
328.094	1.462952
328.459	1.468262
328.823	1.472528
329.188	1.479742
329.553	1.482908
329.918	1.489361
330.283	1.493087
330.647	1.499448
331.012	1.503942
331.377	1.505926
331.741	1.508072
332.106	1.512531
332.470	1.515428
332.835	1.517297
333.199	1.519366
333.564	1.522146
333.928	1.525218
334.293	1.528759
334.657	1.527484
335.021	1.532362
335.386	1.534507
335.750	1.534695
336.114	1.536255
336.478	1.539332
336.843	1.538362
337.207	1.539004
337.571	1.540912
337.935	1.541132
338.299	1.540671
338.663	1.540282
339.027	1.542907
339.391	1.545793
339.755	1.545992
340.119	1.544155
340.483	1.542268
340.846	1.543794
341.210	1.543650
341.574	1.543933
341.938	1.543962
342.301	1.547402
342.665	1.546501
343.029	1.547057
343.392	1.548605
343.756	1.547843
344.119	1.547888
344.483	1.549570
344.846	1.551576
345.210	1.552046
345.573	1.553467
345.937	1.555005
346.300	1.555885
346.663	1.556319
347.027	1.556867
347.390	1.557765
347.753	1.560028
348.116	1.562116
348.479	1.564211
348.843	1.564965
349.206	1.565272
349.569	1.566292
349.932	1.565616
350.295	1.567018
350.658	1.568278
351.021	1.569111
351.383	1.571455
351.746	1.570481
352.109	1.570992
352.472	1.570870
352.835	1.571406
353.197	1.573073
353.560	1.574140
353.923	1.574757
354.285	1.574895
354.648	1.575653
355.011	1.576056
355.373	1.576567
355.736	1.577139
356.098	1.576861
356.461	1.577889
356.823	1.578761
357.185	1.580365
357.548	1.581726
357.910	1.582502
358.272	1.582300
358.635	1.581902
358.997	1.581843
359.359	1.585113
359.721	1.585823
360.083	1.587834
360.445	1.589393
360.807	1.589383
361.169	1.589789
361.531	1.591142
361.893	1.592194
362.255	1.593317
362.617	1.595209
362.979	1.597140
363.341	1.597785
363.703	1.598561
364.064	1.600823
364.426	1.603381
364.788	1.603271
365.149	1.604631
365.511	1.606104
365.873	1.607765
366.234	1.609608
366.596	1.611232
366.957	1.611548
367.319	1.612893
367.680	1.613779
368.042	1.612660
368.403	1.614285
368.764	1.616578
369.126	1.616554
369.487	1.617987
369.848	1.618492
370.209	1.619998
370.570	1.620489
370.931	1.622893
371.293	1.623741
371.654	1.624106
372.015	1.624892
372.376	1.626851
372.737	1.627334
373.098	1.628288
373.458	1.630261
373.819	1.632359
374.180	1.633797
374.541	1.634609
374.902	1.635302
375.263	1.636757
375.623	1.638979
375.984	1.641827
376.345	1.641866
376.705	1.644893
377.066	1.646214
377.426	1.646586
377.787	1.646232
378.147	1.646855
378.508	1.646801
378.868	1.648342
379.228	1.648982
379.589	1.648727
379.949	1.649220
380.309	1.651070
380.670	1.651583
381.030	1.651332
381.390	1.651707
381.750	1.651623
382.110	1.652203
382.470	1.654170
382.830	1.654398
383.190	1.655658
383.550	1.654249
383.910	1.655602
384.270	1.655497
384.630	1.656788
384.990	1.658466
385.350	1.659749
385.709	1.660408
386.069	1.662195
386.429	1.662488
386.788	1.664170
387.148	1.666049
387.508	1.667463
387.867	1.667030
388.227	1.667524
388.586	1.668092
388.946	1.668975
389.305	1.670755
389.665	1.671850
390.024	1.673244
390.383	1.674230
390.743	1.674562
391.102	1.675842
391.461	1.676176
391.820	1.677500
392.179	1.676688
392.539	1.676789
392.898	1.678568
393.257	1.679266
393.616	1.680413
393.975	1.680665
394.334	1.680766
394.693	1.681597
395.051	1.682059
395.410	1.683771
395.769	1.684849
396.128	1.687123
396.487	1.687011
396.845	1.686371
397.204	1.686594
397.563	1.685414
397.921	1.685003
398.280	1.684007
398.638	1.683009
398.997	1.682355
399.355	1.681424
399.714	1.681351
400.072	1.680752
400.431	1.679282
400.789	1.678275
401.147	1.677340
401.506	1.676656
401.864	1.674958
402.222	1.673361
402.580	1.671072
402.938	1.669965
403.297	1.667636
403.655	1.665384
404.013	1.664624
404.371	1.663779
404.729	1.661647
405.087	1.660907
405.444	1.659881
405.802	1.658809
406.160	1.658625
406.518	1.657891
406.876	1.656389
407.233	1.655836
407.591	1.655120
407.949	1.654374
408.306	1.653701
408.664	1.651816
409.022	1.651291
409.379	1.650625
409.737	1.648931
410.094	1.648776
410.451	1.647255
410.809	1.646890
411.166	1.645184
411.523	1.644480
411.881	1.642642
412.238	1.641735
412.595	1.639132
412.952	1.637666
413.310	1.637041
413.667	1.636505
414.024	1.635716
414.381	1.634250
414.738	1.631554
415.095	1.628949
415.452	1.626298
415.809	1.624037
416.165	1.623123
416.522	1.620893
416.879	1.618793
417.236	1.617316
417.593	1.615095
417.949	1.612856
418.306	1.611351
418.663	1.611160
419.019	1.608037
419.376	1.607074
419.732	1.605289
420.089	1.604303
420.445	1.603092
420.802	1.601518
421.158	1.598159
421.514	1.595458
421.871	1.593391
422.227	1.591437
422.583	1.590289
422.939	1.588398
423.295	1.586373
423.652	1.584042
424.008	1.582015
424.364	1.580269
424.720	1.578240
425.076	1.576574
425.432	1.574611
425.788	1.571928
426.143	1.568500
426.499	1.566387
426.855	1.564168
427.211	1.561980
427.567	1.559580
427.922	1.556728
428.278	1.553006
428.634	1.551243
428.989	1.548406
429.345	1.546128
429.700	1.544129
430.056	1.541952
430.411	1.540337
430.767	1.538658
431.122	1.536066
431.478	1.533601
431.833	1.530456
432.188	1.527476
432.543	1.524313
432.899	1.520694
433.254	1.517223
433.609	1.514108
433.964	1.511027
434.319	1.507013
434.674	1.503275
435.029	1.499487
435.384	1.496170
435.739	1.493680
436.094	1.490551
436.449	1.487977
436.804	1.485148
437.158	1.481907
437.513	1.478608
437.868	1.474429
438.223	1.470980
438.577	1.466616
438.932	1.463309
439.287	1.459848
439.641	1.456120
439.996	1.452452
440.350	1.449423
440.704	1.446266
441.059	1.442762
441.413	1.438927
441.768	1.434800
442.122	1.431560
442.476	1.428104
442.830	1.424096
443.185	1.420189
443.539	1.415950
443.893	1.412154
444.247	1.407862
444.601	1.403870
444.955	1.399580
445.309	1.395463
445.663	1.390911
446.017	1.386787
446.371	1.381929
446.724	1.377293
447.078	1.372807
447.432	1.368581
447.786	1.363974
448.139	1.358891
448.493	1.354425
448.847	1.349539
449.200	1.345061
449.554	1.340264
449.907	1.335711
450.261	1.331058
450.614	1.326558
450.968	1.322209
451.321	1.317470
451.674	1.313088
452.027	1.308226
452.381	1.303524
452.734	1.299395
453.087	1.294980
453.440	1.290441
453.793	1.285907
454.146	1.281747
454.499	1.277373
454.852	1.272449
455.205	1.267940
455.558	1.263749
455.911	1.258970
456.264	1.254588
456.617	1.250859
456.970	1.246592
457.322	1.242313
457.675	1.238637
458.028	1.234631
458.380	1.230659
458.733	1.226896
459.086	1.222907
459.438	1.219197
459.791	1.215088
460.143	1.210559
460.496	1.206221
460.848	1.202305
461.200	1.198101
461.553	1.193803
461.905	1.190158
462.257	1.186105
462.609	1.181939
462.961	1.178208
463.314	1.174689
463.666	1.170919
464.018	1.166957
464.370	1.163675
464.722	1.160228
465.074	1.156424
465.426	1.153047
465.777	1.149705
466.129	1.146145
466.481	1.142770
466.833	1.139402
467.184	1.136267
467.536	1.133025
467.888	1.129792
468.239	1.126273
468.591	1.122669
468.943	1.118613
469.294	1.114369
469.646	1.110513
469.997	1.106460
470.348	1.102488
470.700	1.098597
471.051	1.095268
471.402	1.091580
471.754	1.087691
472.105	1.084250
472.456	1.080971
472.807	1.077701
473.158	1.074484
473.509	1.071384
473.860	1.068607
474.211	1.065683
474.562	1.062890
474.913	1.059894
475.264	1.056939
475.615	1.054135
475.966	1.051500
476.316	1.048795
476.667	1.045916
477.018	1.043145
477.368	1.040548
477.719	1.037705
478.070	1.034764
478.420	1.031858
478.771	1.029116
479.121	1.026486
479.472	1.023877
479.822	1.021141
480.172	1.018492
480.523	1.015658
480.873	1.012752
481.223	1.009185
481.573	1.005793
481.924	1.002097
482.274	0.998857
482.624	0.995834
482.974	0.993242
483.324	0.990948
483.674	0.988903
484.024	0.986980
484.374	0.985272
484.724	0.983437
485.073	0.981720
485.423	0.980124
485.773	0.978368
486.123	0.976690
486.472	0.974882
486.822	0.972959
487.172	0.971270
487.521	0.969434
487.871	0.967651
488.220	0.965797
488.570	0.963823
488.919	0.961389
489.268	0.958700
489.618	0.955644
489.967	0.952050
490.316	0.948082
490.666	0.943916
491.015	0.940022
491.364	0.936417
491.713	0.932991
492.062	0.929849
492.411	0.926879
492.760	0.923895
493.109	0.921089
493.458	0.918221
493.807	0.915423
494.156	0.912654
494.505	0.909681
494.853	0.906925
495.202	0.904115
495.551	0.901173
495.900	0.898366
496.248	0.895523
496.597	0.892808
496.945	0.890148
497.294	0.887669
497.642	0.884766
497.991	0.881977
498.339	0.879126
498.688	0.876566
499.036	0.873962
499.384	0.871388
499.732	0.868710
500.081	0.866200
500.429	0.863516
500.777	0.860973
501.125	0.858496
501.473	0.856066
501.821	0.853610
502.169	0.851158
502.517	0.848765
502.865	0.846490
503.213	0.844111
503.561	0.841821
503.908	0.839575
504.256	0.837054
504.604	0.834565
504.952	0.832386
505.299	0.830071
505.647	0.827808
505.994	0.825407
506.342	0.823072
506.689	0.820728
507.037	0.818469
507.384	0.815989
507.732	0.813708
508.079	0.811373
508.426	0.809135
508.774	0.806886
509.121	0.804756
509.468	0.802643
509.815	0.800460
510.162	0.798229
510.509	0.795990
510.856	0.793841
511.203	0.791762
511.550	0.789754
511.897	0.787740
512.244	0.785656
512.591	0.783498
512.938	0.781476
513.284	0.779426
513.631	0.777426
513.978	0.775406
514.324	0.773428
514.671	0.771491
515.018	0.769505
515.364	0.767518
515.711	0.765457
516.057	0.763490
516.403	0.761485
516.750	0.759545
517.096	0.757613
517.443	0.755707
517.789	0.753978
518.135	0.752115
518.481	0.750148
518.827	0.748339
519.173	0.746323
519.519	0.744335
519.865	0.742423
520.211	0.740667
520.557	0.738761
520.903	0.736669
521.249	0.734808
521.595	0.732859
521.941	0.730878
522.287	0.728821
522.632	0.726844
522.978	0.724877
523.324	0.722794
523.669	0.720806
524.015	0.718723
524.360	0.716662
524.706	0.714669
525.051	0.712647
525.397	0.710553
525.742	0.708538
526.087	0.706544
526.433	0.704697
526.778	0.702809
527.123	0.700903
527.468	0.698680
527.813	0.696870
528.158	0.695054
528.504	0.692962
528.849	0.690831
529.193	0.688840
529.538	0.686811
529.883	0.684568
530.228	0.682357
530.573	0.680292
530.918	0.678167
531.263	0.675941
531.607	0.673812
531.952	0.671823
532.296	0.669627
532.641	0.667655
532.986	0.665478
533.330	0.663258
533.675	0.661089
534.019	0.658832
534.363	0.656678
534.708	0.654451
535.052	0.652121
535.396	0.649923
535.741	0.647859
536.085	0.645604
536.429	0.643272
536.773	0.640914
537.117	0.638628
537.461	0.636096
537.805	0.633480
538.149	0.630776
538.493	0.628114
538.837	0.625429
539.181	0.622649
539.524	0.619924
539.868	0.617120
540.212	0.614430
540.556	0.611697
540.899	0.608974
541.243	0.606286
541.586	0.603504
541.930	0.600881
542.273	0.598062
542.617	0.595159
542.960	0.592117
543.304	0.589107
543.647	0.586035
543.990	0.582941
544.333	0.579755
544.677	0.576738
545.020	0.573729
545.363	0.570696
545.706	0.567627
546.049	0.564643
546.392	0.561587
546.735	0.558573
547.078	0.555423
547.421	0.552172
547.764	0.548919
548.106	0.545505
548.449	0.542020
548.792	0.538550
549.135	0.535013
549.477	0.531534
549.820	0.528133
550.162	0.524776
550.505	0.521362
550.847	0.517853
551.190	0.514286
551.532	0.510601
551.875	0.506761
552.217	0.502782
552.559	0.498902
552.901	0.495114
553.244	0.491297
553.586	0.487624
553.928	0.484035
554.270	0.480556
554.612	0.477171
554.954	0.473694
555.296	0.470195
555.638	0.466586
555.980	0.462758
556.322	0.458760
556.663	0.454616
557.005	0.450449
557.347	0.446360
557.689	0.442300
558.030	0.438350
558.372	0.434383
558.713	0.430451
559.055	0.426563
559.396	0.422632
559.738	0.418649
560.079	0.414600
560.421	0.410625
560.762	0.406739
561.103	0.402828
561.444	0.399027
561.786	0.395264
562.127	0.391575
562.468	0.387769
562.809	0.383964
563.150	0.380050
563.491	0.376054
563.832	0.372001
564.173	0.367764
564.514	0.363421
564.855	0.358946
565.195	0.354397
565.536	0.349883
565.877	0.345448
566.218	0.341140
566.558	0.336903
566.899	0.332849
567.239	0.328998
567.580	0.325470
567.920	0.322107
568.261	0.319030
568.601	0.316096
568.941	0.313310
569.282	0.310652
569.622	0.308063
569.962	0.305458
570.302	0.302911
570.643	0.300431
570.983	0.298049
571.323	0.295783
571.663	0.293594
572.003	0.291419
572.343	0.289227
572.683	0.286924
573.022	0.284525
573.362	0.282029
573.702	0.279529
574.042	0.277057
574.381	0.274657
574.721	0.272286
575.061	0.270042
575.400	0.267914
575.740	0.265827
576.079	0.263759
576.419	0.261584
576.758	0.259349
577.097	0.257039
577.437	0.254642
577.776	0.252184
578.115	0.249748
578.454	0.247426
578.794	0.245323
579.133	0.243468
579.472	0.241748
579.811	0.240157
580.150	0.238589
580.489	0.236978
580.828	0.235258
581.167	0.233483
581.505	0.231702
581.844	0.229913
582.183	0.228119
582.522	0.226376
582.860	0.224684
583.199	0.223052
583.538	0.221533
583.876	0.220036
584.215	0.218558
584.553	0.217059
584.891	0.215595
585.230	0.214106
585.568	0.212528
585.906	0.210871
586.245	0.209207
586.583	0.207624
586.921	0.206179
587.259	0.204892
587.597	0.203663
587.935	0.202393
588.273	0.201024
588.611	0.199474
588.949	0.197856
589.287	0.196176
589.625	0.194462
589.963	0.192832
590.300	0.191302
590.638	0.189830
590.976	0.188384
591.313	0.186911
591.651	0.185441
591.989	0.184004
592.326	0.182655
592.664	0.181450
593.001	0.180258
593.338	0.179180
593.676	0.178192
594.013	0.177209
594.350	0.176225
594.687	0.175293
595.025	0.174430
595.362	0.173527
595.699	0.172595
596.036	0.171643
596.373	0.170681
596.710	0.169695
597.047	0.168673
597.384	0.167631
597.720	0.166592
598.057	0.165586
598.394	0.164597
598.731	0.163611
599.067	0.162616
599.404	0.161605
599.741	0.160599
600.077	0.159708
600.414	0.158844
600.750	0.158066
601.087	0.157338
601.423	0.156583
601.759	0.155809
602.096	0.155029
602.432	0.154295
602.768	0.153538
603.104	0.152779
603.440	0.152006
603.776	0.151287
604.112	0.150573
604.448	0.149907
604.784	0.149251
605.120	0.148600
605.456	0.147966
605.792	0.147358
606.128	0.146725
606.463	0.146101
606.799	0.145472
607.135	0.144819
607.470	0.144187
607.806	0.143526
608.142	0.142854
608.477	0.142241
608.812	0.141623
609.148	0.141028
609.483	0.140401
609.819	0.139772
610.154	0.139124
610.489	0.138478
610.824	0.137827
611.159	0.137229
611.494	0.136606
611.830	0.136087
612.165	0.135609
612.500	0.135117
612.834	0.134641
613.169	0.134207
613.504	0.133705
613.839	0.133199
614.174	0.132694
614.509	0.132157
614.843	0.131640
615.178	0.131191
615.512	0.130715
615.847	0.130278
616.182	0.129878
616.516	0.129482
616.850	0.129131
617.185	0.128738
617.519	0.128366
617.853	0.127989
618.188	0.127506
618.522	0.126963
618.856	0.126369
619.190	0.125786
619.524	0.125237
619.858	0.124720
620.192	0.124230
620.526	0.123797
620.860	0.123428
621.194	0.123000
621.528	0.122585
621.862	0.122211
622.195	0.121797
622.529	0.121373
622.863	0.120970
623.196	0.120518
623.530	0.120146
623.864	0.119719
624.197	0.119392
624.530	0.118983
624.864	0.118597
625.197	0.118297
625.531	0.118004
625.864	0.117688
626.197	0.117316
626.530	0.116965
626.863	0.116567
627.196	0.116145
627.529	0.115740
627.862	0.115271
628.195	0.114840
628.528	0.114433
628.861	0.113912
629.194	0.113494
629.527	0.113103
629.860	0.112711
630.192	0.112293
630.525	0.111815
630.858	0.111407
631.190	0.110936
631.523	0.110502
631.855	0.109947
632.188	0.109420
632.520	0.108993
632.852	0.108529
633.185	0.108137
633.517	0.107732
633.849	0.107384
634.182	0.107044
634.514	0.106788
634.846	0.106571
635.178	0.106318
635.510	0.106061
635.842	0.105872
636.174	0.105595
636.506	0.105316
636.837	0.104979
637.169	0.104699
637.501	0.104474
637.833	0.104251
638.164	0.104005
638.496	0.103708
638.828	0.103420
639.159	0.103109
639.491	0.102713
639.822	0.102310
640.154	0.101797
640.485	0.101323
640.816	0.100735
641.147	0.100283
641.479	0.099677
641.810	0.099144
642.141	0.098656
642.472	0.098136
642.803	0.097685
643.134	0.097222
643.465	0.096729
643.796	0.096337
644.127	0.095966
644.458	0.095596
644.789	0.095257
645.119	0.095003
645.450	0.094995
645.781	0.095071
646.111	0.095234
646.442	0.095387
646.773	0.095448
647.103	0.095487
647.433	0.095458
647.764	0.095405
648.094	0.095269
648.425	0.095251
648.755	0.095196
649.085	0.095090
649.415	0.095077
649.745	0.095102
650.075	0.095072
650.405	0.095028
650.735	0.093639
651.065	0.085507
651.395	0.078548
651.725	0.066877
652.055	0.045652
652.385	0.033458
652.715	0.025543
653.044	0.019987
653.374	0.015897
653.704	0.012776
654.033	0.016172
654.363	0.020792
654.692	0.023374
655.022	0.024858
655.351	0.025738
655.680	0.026244
656.010	0.026516
656.339	0.026621
656.668	0.026627
656.997	0.026585
657.326	0.026509
657.655	0.026441
657.984	0.026122
658.313	0.023883
658.642	0.021652
658.971	0.025354
659.300	0.030056
659.629	0.036245
659.958	0.044755
660.286	0.057187
660.615	0.077061
660.944	0.088098
661.272	0.086258
661.601	0.085476
661.929	0.085406
662.258	0.085738
662.586	0.086179
662.915	0.086342
663.243	0.086323
663.571	0.086097
663.899	0.085903
664.228	0.085664
664.556	0.085403
664.884	0.085185
665.212	0.085008
665.540	0.084866
665.868	0.084703
666.196	0.084619
666.524	0.084524
666.852	0.084406
667.179	0.084210
667.507	0.084105
667.835	0.083978
668.162	0.083915
668.490	0.083843
668.818	0.083879
669.145	0.083983
669.473	0.084001
669.800	0.084110
670.127	0.084183
670.455	0.084219
670.782	0.084270
671.109	0.084286
671.436	0.084376
671.764	0.084408
672.091	0.084374
672.418	0.084326
672.745	0.084321
673.072	0.084326
673.399	0.084245
673.726	0.084158
674.053	0.084091
674.379	0.083950
674.706	0.083858
675.033	0.083618
675.359	0.083452
675.686	0.083249
676.013	0.083034
676.339	0.082869
676.666	0.082594
676.992	0.082418
677.318	0.082338
677.645	0.082202
677.971	0.082125
678.297	0.081931
678.624	0.081818
678.950	0.081719
679.276	0.081620
679.602	0.081416
679.928	0.081170
680.254	0.080976
680.580	0.080770
680.906	0.080641
681.232	0.080550
681.558	0.080563
681.883	0.080640
682.209	0.080714
682.535	0.080719
682.860	0.080722
683.186	0.080671
683.511	0.080647
683.837	0.080464
684.162	0.080341
684.488	0.080159
684.813	0.080002
685.138	0.079873
685.464	0.079748
685.789	0.079554
686.114	0.079446
686.439	0.079344
686.764	0.079248
687.089	0.079167
687.414	0.079116
687.739	0.079003
688.064	0.078965
688.389	0.078795
688.714	0.078581
689.039	0.078282
689.363	0.078049
689.688	0.077839
690.013	0.077587
690.337	0.077397
690.662	0.077296
690.986	0.077139
691.311	0.077097
691.635	0.077013
691.959	0.076946
692.284	0.076718
692.608	0.076562
692.932	0.076372
693.256	0.076283
693.580	0.076306
693.904	0.076256
694.228	0.076208
694.552	0.076234
694.876	0.076163
695.200	0.076063
695.524	0.075933
695.848	0.075803
696.172	0.075578
696.495	0.075278
696.819	0.075148
697.143	0.074841
697.466	0.074577
697.790	0.074239
698.113	0.073930
698.437	0.073625
698.760	0.073351
699.083	0.073224
699.407	0.073134
699.730	0.072999
700.053	0.072859
700.376	0.072603
700.699	0.072305
701.022	0.071968
701.345	0.071439
701.668	0.070805
701.991	0.070212
702.314	0.069444
702.637	0.068816
702.960	0.068209
703.283	0.067752
703.605	0.067232
703.928	0.066971
704.251	0.066842
704.573	0.066781
704.896	0.066682
705.218	0.066538
705.540	0.066340
705.863	0.065997
706.185	0.065564
706.507	0.065097
706.830	0.064563
707.152	0.063995
707.474	0.063530
707.796	0.063043
708.118	0.062643
708.440	0.062398
708.762	0.062163
709.084	0.062008
709.406	0.061825
709.728	0.061613
710.049	0.061431
710.371	0.061239
710.693	0.060977
711.014	0.060529
711.336	0.060214
711.658	0.059877
711.979	0.059596
712.301	0.059328
712.622	0.059186
712.943	0.059018
713.265	0.058892
713.586	0.058760
713.907	0.058713
714.228	0.058701
714.549	0.058683
714.870	0.058706
715.191	0.058673
715.512	0.058611
715.833	0.058601
716.154	0.058536
716.475	0.058403
716.796	0.058191
717.117	0.057899
717.437	0.057496
717.758	0.057222
718.078	0.056785
718.399	0.056351
718.719	0.055975
719.040	0.055609
719.360	0.055245
719.681	0.055022
720.001	0.054793
720.321	0.054601
720.642	0.054397
720.962	0.054055
721.282	0.053830
721.602	0.053670
721.922	0.053404
722.242	0.053144
722.562	0.052962
722.882	0.052771
723.202	0.052722
723.521	0.052597
723.841	0.052576
724.161	0.052535
724.481	0.052469
724.800	0.052370
725.120	0.052320
725.439	0.052230
725.759	0.052157
726.078	0.052124
726.398	0.052021
726.717	0.051991
727.036	0.052050
727.355	0.052145
727.675	0.052301
727.994	0.052403
728.313	0.052490
728.632	0.052626
728.951	0.052647
729.270	0.052526
729.589	0.052379
729.908	0.052159
730.226	0.051951
730.545	0.051705
730.864	0.051468
731.182	0.051291
731.501	0.051191
731.820	0.051107
732.138	0.051030
732.457	0.050850
732.775	0.050705
733.093	0.050661
733.412	0.050578
733.730	0.050421
734.048	0.050258
734.367	0.050000
734.685	0.049730
735.003	0.049366
735.321	0.049019
735.639	0.048738
735.957	0.048523
736.275	0.048358
736.593	0.048299
736.910	0.048212
737.228	0.048152
737.546	0.048154
737.863	0.048090
738.181	0.047874
738.499	0.047663
738.816	0.047469
739.134	0.047341
739.451	0.047194
739.768	0.046993
740.086	0.046721
740.403	0.046437
740.720	0.046153
741.038	0.045918
741.355	0.045633
741.672	0.045327
741.989	0.045030
742.306	0.044725
742.623	0.044350
742.940	0.043883
743.257	0.043316
743.573	0.042854
743.890	0.042350
744.207	0.041780
744.523	0.041302
744.840	0.040978
745.157	0.040605
745.473	0.040149
745.790	0.039817
746.106	0.039491
746.422	0.039149
746.739	0.038989
747.055	0.038808
747.371	0.038657
747.687	0.038541
748.004	0.038514
748.320	0.038550
748.636	0.038543
748.952	0.038546
749.268	0.038634
749.584	0.038764
749.899	0.038848
750.215	0.038833
750.531	0.038822
750.847	0.038924
751.162	0.038984
751.478	0.039057
751.793	0.039048
752.109	0.039038
752.424	0.039019
752.740	0.038937
753.055	0.039024
753.370	0.039003
753.686	0.039187
754.001	0.039389
754.316	0.039695
754.631	0.039929
754.946	0.040094
755.261	0.040247
755.576	0.040402
755.891	0.040428
756.206	0.040342
756.521	0.040247
756.836	0.040242
757.150	0.040243
757.465	0.040225
757.780	0.040247
758.094	0.040289
758.409	0.040401
758.723	0.040520
759.038	0.040543
759.352	0.040608
759.667	0.040527
759.981	0.040483
760.295	0.040285
760.609	0.040049
760.923	0.039841
761.238	0.039565
761.552	0.039340
761.866	0.039177
762.180	0.039049
762.493	0.039014
762.807	0.039009
763.121	0.039011
763.435	0.038899
763.749	0.038730
764.062	0.038589
764.376	0.038395
764.689	0.038157
765.003	0.037896
765.316	0.037748
765.630	0.037744
765.943	0.037662
766.257	0.037629
766.570	0.037504
766.883	0.037404
767.196	0.037250
767.509	0.036943
767.822	0.036704
768.135	0.036457
768.448	0.036179
768.761	0.035823
769.074	0.035536
769.387	0.035202
769.700	0.034949
770.013	0.034774
770.325	0.034665
770.638	0.034529
770.950	0.034359
771.263	0.034201
771.575	0.034023
771.888	0.033720
772.200	0.033386
772.513	0.032985
772.825	0.032622
773.137	0.032318
773.449	0.032043
773.761	0.031763
774.074	0.031543
774.386	0.031351
774.698	0.031165
775.010	0.030960
775.321	0.030792
775.633	0.030480
775.945	0.030477
776.257	0.030432
776.568	0.030420
776.880	0.030442
777.192	0.030437
777.503	0.030466
777.815	0.030529
778.126	0.030659
778.438	0.030872
778.749	0.031081
779.060	0.031303
779.372	0.031451
779.683	0.031572
779.994	0.031682
780.305	0.031798
780.616	0.031939
780.927	0.032086
781.238	0.032118
781.549	0.032186
781.860	0.032241
782.171	0.032416
782.481	0.032496
782.792	0.032535
783.103	0.032572
783.413	0.032575
783.724	0.032494
784.034	0.032390
784.345	0.032322
784.655	0.032240
784.966	0.032104
785.276	0.032006
785.586	0.031880
785.896	0.031811
786.207	0.031803
786.517	0.031870
786.827	0.031874
787.137	0.031819
787.447	0.031763
787.757	0.031854
788.066	0.031855
788.376	0.031928
788.686	0.031897
788.996	0.031914
789.305	0.031867
789.615	0.031861
789.925	0.031822
790.234	0.031916
790.544	0.032031
790.853	0.032086
791.162	0.032211
791.472	0.032410
791.781	0.032586
792.090	0.032816
792.399	0.032861
792.708	0.032857
793.017	0.032772
793.326	0.032662
793.635	0.032609
793.944	0.032463
794.253	0.032282
794.562	0.032158
794.871	0.032049
795.179	0.031919
795.488	0.031792
795.797	0.031767
796.105	0.031693
796.414	0.031713
796.722	0.031646
797.031	0.031668
797.339	0.031568
797.647	0.031332
797.956	0.030861
798.264	0.030341
798.572	0.029983
798.880	0.029709
799.188	0.029392
799.496	0.029223
799.804	0.029122
800.112	0.028983
800.420	0.028957
800.728	0.029004
801.035	0.028840
801.343	0.028656
801.651	0.028443
801.958	0.028231
802.266	0.028028
802.573	0.028140
802.881	0.028159
803.188	0.028186
803.496	0.028358
803.803	0.028508
804.110	0.028642
804.417	0.028840
804.724	0.028901
805.032	0.028820
805.339	0.028769
805.646	0.028778
805.953	0.028557
806.259	0.028514
806.566	0.028464
806.873	0.028406
807.180	0.028366
807.486	0.028460
807.793	0.028568
808.100	0.028701
808.406	0.028728
808.713	0.028784
809.019	0.028393
809.326	0.028125
809.632	0.027858
809.938	0.027134
810.244	0.026708
810.551	0.026314
810.857	0.025887
811.163	0.025780
811.469	0.025712
811.775	0.025558
812.081	0.025453
812.387	0.025533
812.692	0.025537
812.998	0.025507
813.304	0.025467
813.610	0.025593
813.915	0.025587
814.221	0.025478
814.526	0.025427
814.832	0.025520
815.137	0.025492
815.443	0.025671
815.748	0.025695
816.053	0.025744
816.358	0.025832
816.664	0.025900
816.969	0.025826
817.274	0.026052
817.579	0.025896
817.884	0.025807
818.189	0.025857
818.493	0.025961
818.798	0.026068
819.103	0.025861
819.408	0.025731
819.712	0.025768
820.017	0.025495
820.321	0.025399
820.626	0.025360
820.930	0.025270
821.235	0.025172
821.539	0.024926
821.843	0.024698
822.148	0.024488
822.452	0.024469
822.756	0.024688
823.060	0.024569
823.364	0.024744
823.668	0.024575
823.972	0.024667
824.276	0.024767
824.580	0.024817
824.883	0.024806
825.187	0.024786
825.491	0.025014
825.795	0.025147
826.098	0.025290
826.402	0.025286
826.705	0.025354
827.008	0.025172
827.312	0.025268
827.615	0.025041
827.918	0.024927
828.222	0.024841
828.525	0.024722
828.828	0.024803
829.131	0.024640
829.434	0.024608
829.737	0.024297
830.040	0.023878
830.343	0.023386
830.645	0.022907
830.948	0.022675
831.251	0.022572
831.553	0.022238
831.856	0.021849
832.159	0.021884
832.461	0.021580
832.764	0.021535
833.066	0.021194
833.368	0.021266
833.671	0.020710
833.973	0.020669
834.275	0.020635
834.577	0.020447
834.879	0.020530
835.181	0.019844
835.483	0.019486
835.785	0.019139
836.087	0.018849
836.389	0.019077
836.690	0.018907
836.992	0.018408
837.294	0.017558
837.595	0.016350
837.897	0.015427
838.198	0.014955
838.500	0.014137
838.801	0.013146
839.103	0.012427
839.404	0.011804
839.705	0.011150
840.006	0.010809
840.307	0.010751
840.608	0.010896
840.910	0.011072
841.210	0.011291
841.511	0.011611
841.812	0.011518
842.113	0.011565
842.414	0.011049
842.715	0.010375
843.015	0.009541
843.316	0.009220
843.616	0.008307
843.917	0.007992
844.217	0.008253
844.518	0.007666
844.818	0.007138
845.118	0.007464
845.419	0.007860
845.719	0.007979
846.019	0.007706
846.319	0.007891
846.619	0.007025
846.919	0.006883
847.219	0.006692
847.519	0.005845
847.819	0.005872
848.118	0.005230
848.418	0.005080
848.718	0.004990
849.017	0.004977
849.317	0.005403
849.616	0.005312
849.916	0.006244
850.215	0.007225
850.515	0.007528
850.814	0.008067
851.113	0.008662
851.412	0.009093
851.712	0.008886
852.011	0.008804
852.310	0.009290
852.609	0.009290
852.908	0.009583
853.206	0.009747
853.505	0.009924
853.804	0.010073
854.103	0.010134
854.401	0.010558
854.700	0.010501
854.999	0.010417
855.297	0.010281
855.595	0.010336
855.894	0.010668
856.192	0.010735
856.491	0.010585
856.789	0.010469
857.087	0.010163
857.385	0.009636
857.683	0.009151
857.981	0.008973
858.279	0.009030
858.577	0.008242
858.875	0.008180
859.173	0.007675
859.471	0.007082
859.768	0.006972
860.066	0.006308
860.363	0.005554
860.661	0.004508
860.959	0.004566
861.256	0.004986
861.553	0.005317
861.851	0.004473
862.148	0.003821
862.445	0.003140
862.742	0.002453
863.039	0.001649
863.337	0.001100
863.634	0.000340
863.931	-0.000653
864.227	-0.001657
864.524	-0.002516
864.821	-0.002090
865.118	-0.002807
865.415	-0.003113
865.711	-0.003609
866.008	-0.004547
866.304	-0.004570
866.601	-0.004661
866.897	-0.004333
867.194	-0.004865
867.490	-0.005519
867.786	-0.005954
868.082	-0.005543
868.379	-0.006061
868.675	-0.006122
868.971	-0.006062
869.267	-0.005724
869.563	-0.004731
869.859	-0.004335
870.154	-0.004031
870.450	-0.003278
870.746	-0.003207
871.042	-0.003910
871.337	-0.004192
871.633	-0.004564
871.928	-0.004196
872.224	-0.004601
872.519	-0.005351
872.815	-0.005553
873.110	-0.005579
873.405	-0.005525
873.700	-0.005691
873.995	-0.005904
874.291	-0.006007
874.586	-0.005497
874.881	-0.005865
875.175	-0.005917
875.470	-0.006291
875.765	-0.007266
876.060	-0.007371
876.355	-0.007381
876.649	-0.007413
876.944	-0.007101
877.238	-0.007038
877.533	-0.006576
877.827	-0.005904
878.122	-0.005768
878.416	-0.005553
878.710	-0.004917
879.005	-0.005183
879.299	-0.005588
879.593	-0.005955
879.887	-0.006235
880.181	-0.006922
880.475	-0.006956
880.769	-0.007120
881.063	-0.006777
881.356	-0.006800
881.650	-0.007100
881.944	-0.007289
882.238	-0.013146
882.531	-0.007075
882.825	-0.018927
883.118	-0.026684
883.412	-0.010397
883.705	-0.008800
883.998	-0.004113
884.291	-0.005940
884.585	-0.015284
884.878	-0.014030
>>>>>>>>>> END of Data <<<<<<<<<<
>>>>>>>>>> Raw Data Start <<<<<<<<
190.664	-388
191.040	9
191.415	9
191.791	4
192.166	7
192.542	7
192.917	6
193.293	5
193.668	4
194.044	4
194.419	-10
194.794	9
195.170	9
195.545	9
195.920	10
196.296	10
196.671	11
197.046	11
197.421	12
197.796	13
198.171	13
198.546	13
198.922	14
199.297	14
199.672	15
200.047	15
200.422	16
200.796	16
201.171	16
201.546	16
201.921	16
202.296	16
202.671	16
203.045	16
203.420	16
203.795	16
204.170	16
204.544	16
204.919	16
205.294	16
205.668	16
206.043	16
206.417	15
206.792	15
207.166	15
207.541	15
207.915	14
208.289	15
208.664	15
209.038	14
209.412	14
209.787	14
210.161	14
210.535	14
210.909	15
211.284	15
211.658	15
212.032	15
212.406	15
212.780	14
213.154	14
213.528	14
213.902	14
214.276	15
214.650	15
215.024	15
215.398	15
215.772	15
216.145	15
216.519	15
216.893	15
217.267	15
217.640	15
218.014	16
218.388	16
218.761	15
219.135	15
219.508	15
219.882	15
220.256	15
220.629	15
221.003	15
221.376	15
221.749	15
222.123	16
222.496	15
222.869	15
223.243	15
223.616	15
223.989	16
224.362	16
224.736	16
225.109	16
225.482	16
225.855	15
226.228	16
226.601	16
226.974	16
227.347	16
227.720	16
228.093	16
228.466	16
228.839	16
229.212	16
229.585	15
229.957	15
230.330	15
230.703	16
231.076	16
231.448	16
231.821	16
232.194	16
232.566	16
232.939	16
233.311	16
233.684	16
234.056	16
234.429	16
234.801	16
235.174	16
235.546	16
235.918	17
236.291	17
236.663	17
237.035	17
237.408	17
237.780	17
238.152	17
238.524	17
238.896	17
239.268	17
239.641	17
240.013	17
240.385	17
240.757	17
241.129	17
241.500	17
241.872	17
242.244	17
242.616	17
242.988	17
243.360	17
243.731	17
244.103	17
244.475	17
244.847	17
245.218	17
245.590	17
245.961	17
246.333	17
246.705	17
247.076	17
247.448	17
247.819	17
248.190	18
248.562	18
248.933	17
249.305	17
249.676	18
250.047	18
250.418	18
250.790	18
251.161	17
251.532	17
251.903	17
252.274	17
252.645	18
253.016	18
253.387	18
253.758	19
254.129	18
254.500	18
254.871	19
255.242	19
255.613	19
255.984	19
256.355	18
256.725	18
257.096	18
257.467	18
257.838	18
258.208	18
258.579	18
258.949	18
259.320	18
259.690	18
260.061	18
260.431	18
260.802	18
261.172	18
261.543	18
261.913	18
262.283	18
262.654	18
263.024	18
263.394	18
263.764	18
264.135	19
264.505	19
264.875	19
265.245	19
265.615	19
265.985	19
266.355	19
266.725	19
267.095	19
267.465	19
267.835	19
268.205	19
268.575	19
268.944	19
269.314	19
269.684	18
270.054	18
270.423	18
270.793	18
271.163	18
271.532	18
271.902	18
272.271	18
272.641	18
273.010	18
273.380	18
273.749	18
274.119	18
274.488	18
274.857	18
275.227	18
275.596	18
275.965	18
276.335	18
276.704	18
277.073	18
277.442	18
277.811	18
278.180	18
278.549	18
278.918	18
279.287	19
279.656	18
280.025	19
280.394	19
280.763	19
281.132	19
281.501	19
281.869	19
282.238	19
282.607	19
282.976	18
283.344	18
283.713	19
284.081	18
284.450	19
284.819	18
285.187	18
285.556	19
285.924	19
286.292	19
286.661	18
287.029	18
287.398	19
287.766	19
288.134	19
288.502	19
288.871	19
289.239	19
289.607	19
289.975	19
290.343	19
290.711	19
291.079	19
291.447	19
291.815	19
292.183	19
292.551	19
292.919	19
293.287	19
293.655	19
294.022	19
294.390	19
294.758	19
295.126	18
295.493	18
295.861	18
296.229	18
296.596	18
296.964	18
297.331	19
297.699	19
298.066	19
298.434	19
298.801	19
299.168	19
299.536	18
299.903	18
300.270	19
300.638	19
301.005	19
301.372	19
301.739	19
302.106	20
302.473	20
302.840	20
303.207	20
303.574	20
303.941	20
304.308	20
304.675	20
305.042	20
305.409	20
305.776	20
306.143	19
306.509	20
306.876	19
307.243	19
307.610	19
307.976	19
308.343	19
308.709	19
309.076	19
309.442	19
309.809	19
310.175	19
310.542	19
310.908	19
311.275	19
311.641	19
312.007	19
312.373	19
312.740	20
313.106	20
313.472	19
313.838	19
314.204	20
314.570	21
314.936	21
315.302	21
315.668	22
316.034	21
316.400	21
316.766	21
317.132	21
317.498	21
317.864	21
318.230	22
318.595	22
318.961	22
319.327	23
319.692	23
320.058	24
320.424	24
320.789	24
321.155	25
321.520	26
321.886	26
322.251	26
322.616	27
322.982	28
323.347	28
323.712	29
324.078	30
324.443	31
324.808	32
325.173	33
325.539	33
325.904	34
326.269	35
326.634	35
326.999	36
327.364	37
327.729	38
328.094	38
328.459	39
328.823	40
329.188	41
329.553	41
329.918	42
330.283	43
330.647	44
331.012	44
331.377	45
331.741	46
332.106	47
332.470	48
332.835	49
333.199	50
333.564	50
333.928	51
334.293	52
334.657	53
335.021	54
335.386	55
335.750	56
336.114	57
336.478	58
336.843	59
337.207	61
337.571	61
337.935	63
338.299	64
338.663	65
339.027	66
339.391	67
339.755	68
340.119	69
340.483	71
340.846	72
341.210	73
341.574	74
341.938	75
342.301	76
342.665	77
343.029	78
343.392	79
343.756	80
344.119	81
344.483	82
344.846	83
345.210	84
345.573	84
345.937	85
346.300	86
346.663	87
347.027	88
347.390	88
347.753	89
348.116	89
348.479	90
348.843	91
349.206	91
349.569	92
349.932	93
350.295	94
350.658	94
351.021	95
351.383	95
351.746	96
352.109	97
352.472	97
352.835	98
353.197	98
353.560	99
353.923	99
354.285	100
354.648	101
355.011	101
355.373	102
355.736	102
356.098	103
356.461	103
356.823	104
357.185	104
357.548	104
357.910	105
358.272	105
358.635	106
358.997	107
359.359	106
359.721	107
360.083	107
360.445	107
360.807	108
361.169	108
361.531	108
361.893	109
362.255	109
362.617	109
362.979	109
363.341	109
363.703	110
364.064	110
364.426	110
364.788	110
365.149	111
365.511	111
365.873	111
366.234	111
366.596	111
366.957	111
367.319	111
367.680	111
368.042	112
368.403	112
368.764	111
369.126	112
369.487	112
369.848	112
370.209	111
370.570	112
370.931	111
371.293	111
371.654	111
372.015	111
372.376	111
372.737	111
373.098	111
373.458	110
373.819	110
374.180	110
374.541	110
374.902	111
375.263	111
375.623	111
375.984	111
376.345	111
376.705	111
377.066	111
377.426	111
377.787	112
378.147	112
378.508	112
378.868	112
379.228	113
379.589	113
379.949	113
380.309	113
380.670	113
381.030	114
381.390	114
381.750	114
382.110	114
382.470	114
382.830	114
383.190	114
383.550	115
383.910	115
384.270	115
384.630	115
384.990	115
385.350	115
385.709	116
386.069	115
386.429	116
386.788	116
387.148	115
387.508	115
387.867	116
388.227	116
388.586	116
388.946	117
389.305	117
389.665	118
390.024	118
390.383	118
390.743	119
391.102	119
391.461	119
391.820	119
392.179	120
392.539	120
392.898	120
393.257	120
393.616	120
393.975	121
394.334	121
394.693	122
395.051	123
395.410	123
395.769	124
396.128	123
396.487	124
396.845	124
397.204	124
397.563	125
397.921	125
398.280	125
398.638	125
398.997	125
399.355	126
399.714	126
400.072	126
400.431	127
400.789	127
401.147	128
401.506	128
401.864	129
402.222	129
402.580	130
402.938	130
403.297	130
403.655	130
404.013	130
404.371	130
404.729	131
405.087	131
405.444	131
405.802	132
406.160	132
406.518	132
406.876	133
407.233	133
407.591	133
407.949	133
408.306	133
408.664	134
409.022	134
409.379	134
409.737	134
410.094	135
410.451	135
410.809	136
411.166	136
411.523	137
411.881	137
412.238	138
412.595	139
412.952	139
413.310	139
413.667	140
414.024	140
414.381	140
414.738	141
415.095	142
415.452	143
415.809	144
416.165	144
416.522	145
416.879	146
417.236	147
417.593	149
417.949	150
418.306	152
418.663	153
419.019	155
419.376	157
419.732	159
420.089	160
420.445	162
420.802	164
421.158	166
421.514	168
421.871	169
422.227	170
422.583	171
422.939	172
423.295	173
423.652	175
424.008	176
424.364	177
424.720	177
425.076	178
425.432	178
425.788	179
426.143	181
426.499	182
426.855	183
427.211	184
427.567	185
427.922	187
428.278	188
428.634	189
428.989	190
429.345	191
429.700	192
430.056	193
430.411	194
430.767	195
431.122	197
431.478	198
431.833	200
432.188	202
432.543	203
432.899	204
433.254	206
433.609	206
433.964	207
434.319	208
434.674	209
435.029	210
435.384	211
435.739	212
436.094	214
436.449	216
436.804	219
437.158	221
437.513	224
437.868	228
438.223	231
438.577	235
438.932	239
439.287	243
439.641	247
439.996	251
440.350	255
440.704	259
441.059	263
441.413	267
441.768	272
442.122	276
442.476	279
442.830	284
443.185	288
443.539	292
443.893	296
444.247	300
444.601	303
444.955	306
445.309	309
445.663	311
446.017	313
446.371	315
446.724	317
447.078	319
447.432	321
447.786	322
448.139	324
448.493	325
448.847	326
449.200	327
449.554	328
449.907	329
450.261	331
450.614	331
450.968	332
451.321	334
451.674	335
452.027	336
452.381	338
452.734	339
453.087	341
453.440	343
453.793	345
454.146	347
454.499	351
454.852	355
455.205	359
455.558	364
455.911	368
456.264	373
456.617	377
456.970	381
457.322	386
457.675	389
458.028	393
458.380	396
458.733	399
459.086	403
459.438	407
459.791	411
460.143	416
460.496	422
460.848	428
461.200	434
461.553	441
461.905	447
462.257	453
462.609	459
462.961	464
463.314	469
463.666	473
464.018	478
464.370	481
464.722	486
465.074	490
465.426	494
465.777	498
466.129	502
466.481	505
466.833	507
467.184	509
467.536	510
467.888	510
468.239	511
468.591	511
468.943	512
469.294	514
469.646	516
469.997	519
470.348	524
470.700	529
471.051	535
471.402	542
471.754	551
472.105	560
472.456	569
472.807	579
473.158	591
473.509	603
473.860	616
474.211	629
474.562	642
474.913	657
475.264	672
475.615	687
475.966	702
476.316	717
476.667	732
477.018	747
477.368	762
477.719	778
478.070	793
478.420	808
478.771	822
479.121	836
479.472	851
479.822	865
480.172	881
480.523	899
480.873	924
481.223	965
481.573	1024
481.924	1099
482.274	1183
482.624	1271
482.974	1360
483.324	1437
483.674	1497
484.024	1539
484.374	1567
484.724	1586
485.073	1600
485.423	1611
485.773	1623
486.123	1633
486.472	1644
486.822	1655
487.172	1664
487.521	1672
487.871	1676
488.220	1674
488.570	1655
488.919	1618
489.268	1565
489.618	1503
489.967	1436
490.316	1368
490.666	1309
491.015	1268
491.364	1244
491.713	1233
492.062	1232
492.411	1235
492.760	1242
493.109	1248
493.458	1255
493.807	1262
494.156	1267
494.505	1273
494.853	1279
495.202	1286
495.551	1296
495.900	1305
496.248	1315
496.597	1325
496.945	1334
497.294	1342
497.642	1353
497.991	1364
498.339	1377
498.688	1391
499.036	1404
499.384	1416
499.732	1427
500.081	1436
500.429	1445
500.777	1454
501.125	1461
501.473	1469
501.821	1477
502.169	1485
502.517	1492
502.865	1497
503.213	1501
503.561	1505
503.908	1507
504.256	1510
504.604	1512
504.952	1513
505.299	1513
505.647	1512
505.994	1509
506.342	1507
506.689	1504
507.037	1502
507.384	1502
507.732	1502
508.079	1502
508.426	1503
508.774	1504
509.121	1503
509.468	1503
509.815	1502
510.162	1502
510.509	1501
510.856	1500
511.203	1499
511.550	1497
511.897	1496
512.244	1495
512.591	1494
512.938	1493
513.284	1492
513.631	1490
513.978	1488
514.324	1485
514.671	1482
515.018	1479
515.364	1477
515.711	1475
516.057	1472
516.403	1471
516.750	1468
517.096	1465
517.443	1460
517.789	1456
518.135	1452
518.481	1449
518.827	1446
519.173	1443
519.519	1441
519.865	1438
520.211	1436
520.557	1434
520.903	1434
521.249	1433
521.595	1432
521.941	1431
522.287	1431
522.632	1430
522.978	1429
523.324	1430
523.669	1431
524.015	1433
524.360	1438
524.706	1444
525.051	1451
525.397	1460
525.742	1470
526.087	1480
526.433	1489
526.778	1497
527.123	1504
527.468	1511
527.813	1517
528.158	1522
528.504	1530
528.849	1539
529.193	1552
529.538	1565
529.883	1583
530.228	1602
530.573	1623
530.918	1646
531.263	1668
531.607	1689
531.952	1708
532.296	1724
532.641	1738
532.986	1749
533.330	1760
533.675	1771
534.019	1786
534.363	1803
534.708	1824
535.052	1848
535.396	1873
535.741	1897
536.085	1919
536.429	1939
536.773	1957
537.117	1971
537.461	1984
537.805	1996
538.149	2010
538.493	2024
538.837	2039
539.181	2057
539.524	2078
539.868	2103
540.212	2130
540.556	2158
540.899	2188
541.243	2215
541.586	2239
541.930	2257
542.273	2273
542.617	2285
542.960	2299
543.304	2316
543.647	2337
543.990	2363
544.333	2391
544.677	2421
545.020	2449
545.363	2473
545.706	2493
546.049	2509
546.392	2520
546.735	2526
547.078	2532
547.421	2538
547.764	2545
548.106	2554
548.449	2566
548.792	2583
549.135	2605
549.477	2630
549.820	2656
550.162	2679
550.505	2698
550.847	2713
551.190	2725
551.532	2735
551.875	2746
552.217	2759
552.559	2774
552.901	2793
553.244	2816
553.586	2840
553.928	2865
554.270	2888
554.612	2907
554.954	2924
555.296	2939
555.638	2954
555.980	2970
556.322	2989
556.663	3014
557.005	3045
557.347	3084
557.689	3126
558.030	3167
558.372	3206
558.713	3242
559.055	3276
559.396	3310
559.738	3346
560.079	3384
560.421	3427
560.762	3476
561.103	3529
561.444	3587
561.786	3648
562.127	3712
562.468	3781
562.809	3857
563.150	3941
563.491	4031
563.832	4130
564.173	4243
564.514	4372
564.855	4527
565.195	4715
565.536	4940
565.877	5200
566.218	5495
566.558	5829
566.899	6194
567.239	6590
567.580	7003
567.920	7431
568.261	7862
568.601	8304
568.941	8761
569.282	9232
569.622	9721
569.962	10231
570.302	10775
570.643	11338
570.983	11906
571.323	12456
571.663	12987
572.003	13492
572.343	13967
572.683	14415
573.022	14872
573.362	15353
573.702	15851
574.042	16350
574.381	16829
574.721	17287
575.061	17725
575.400	18125
575.740	18482
576.079	18801
576.419	19119
576.758	19479
577.097	19900
577.437	20362
577.776	20855
578.115	21371
578.454	21894
578.794	22375
579.133	22750
579.472	23012
579.811	23169
580.150	23228
580.489	23213
580.828	23166
581.167	23122
581.505	23097
581.844	23082
582.183	23067
582.522	23067
582.860	23081
583.199	23094
583.538	23073
583.876	22980
584.215	22792
584.553	22497
584.891	22101
585.230	21612
585.568	21071
585.906	20521
586.245	20026
586.583	19600
586.921	19248
587.259	18928
587.597	18605
587.935	18270
588.273	17926
588.611	17608
588.949	17325
589.287	17091
589.625	16909
589.963	16767
590.300	16653
590.638	16551
590.976	16435
591.313	16298
591.651	16167
591.989	16054
592.326	15963
592.664	15883
593.001	15820
593.338	15783
593.676	15766
594.013	15779
594.350	15842
594.687	15946
595.025	16061
595.362	16167
595.699	16243
596.036	16294
596.373	16309
596.710	16281
597.047	16226
597.384	16159
597.720	16081
598.057	16019
598.394	15974
598.731	15951
599.067	15955
599.404	15987
599.741	16057
600.077	16151
600.414	16258
600.750	16369
601.087	16454
601.423	16497
601.759	16503
602.096	16478
602.432	16432
602.768	16362
603.104	16263
603.440	16141
603.776	16009
604.112	15866
604.448	15721
604.784	15567
605.120	15403
605.456	15245
605.792	15078
606.128	14904
606.463	14725
606.799	14543
607.135	14379
607.470	14216
607.806	14054
608.142	13897
608.477	13745
608.812	13599
609.148	13452
609.483	13298
609.819	13140
610.154	12990
610.489	12851
610.824	12730
611.159	12628
611.494	12526
611.830	12434
612.165	12345
612.500	12245
612.834	12129
613.169	11996
613.504	11850
613.839	11687
614.174	11502
614.509	11317
614.843	11131
615.178	10954
615.512	10780
615.847	10608
616.182	10437
616.516	10265
616.850	10082
617.185	9893
617.519	9700
617.853	9493
618.188	9278
618.522	9083
618.856	8918
619.190	8773
619.524	8647
619.858	8546
620.192	8466
620.526	8395
620.860	8325
621.194	8258
621.528	8192
621.862	8126
622.195	8047
622.529	7961
622.863	7872
623.196	7785
623.530	7695
623.864	7606
624.197	7514
624.530	7426
624.864	7347
625.197	7265
625.531	7171
625.864	7057
626.197	6937
626.530	6806
626.863	6659
627.196	6500
627.529	6338
627.862	6179
628.195	6021
628.528	5865
628.861	5716
629.194	5582
629.527	5454
629.860	5327
630.192	5203
630.525	5086
630.858	4977
631.190	4874
631.523	4775
631.855	4682
632.188	4601
632.520	4525
632.852	4453
633.185	4380
633.517	4309
633.849	4245
634.182	4187
634.514	4131
634.846	4080
635.178	4036
635.510	3997
635.842	3960
636.174	3926
636.506	3891
636.837	3857
637.169	3824
637.501	3788
637.833	3749
638.164	3704
638.496	3656
638.828	3600
639.159	3538
639.491	3471
639.822	3402
640.154	3332
640.485	3263
640.816	3195
641.147	3126
641.479	3062
641.810	2999
642.141	2937
642.472	2877
642.803	2817
643.134	2760
643.465	2711
643.796	2672
644.127	2644
644.458	2630
644.789	2630
645.119	2645
645.450	2669
645.781	2696
646.111	2723
646.442	2746
646.773	2765
647.103	2779
647.433	2792
647.764	2805
648.094	2823
648.425	2846
648.755	2873
649.085	2905
649.415	2938
649.745	2973
650.075	3009
650.405	3048
650.735	3135
651.065	3760
651.395	5703
651.725	8900
652.055	12528
652.385	16152
652.715	19774
653.044	23399
653.374	27029
653.704	30664
654.033	33847
654.363	35827
654.692	37146
655.022	38007
655.351	38573
655.680	38924
656.010	39115
656.339	39202
656.668	39226
656.997	39216
657.326	39183
657.655	39088
657.984	38443
658.313	36469
658.642	33231
658.971	29550
659.300	25869
659.629	22189
659.958	18509
660.286	14830
660.615	11152
660.944	7936
661.272	5925
661.601	4578
661.929	3686
662.258	3086
662.586	2693
662.915	2453
663.243	2313
663.571	2234
663.899	2186
664.228	2156
664.556	2136
664.884	2123
665.212	2113
665.540	2106
665.868	2102
666.196	2100
666.524	2099
666.852	2101
667.179	2109
667.507	2125
667.835	2149
668.162	2180
668.490	2219
668.818	2264
669.145	2312
669.473	2359
669.800	2404
670.127	2443
670.455	2475
670.782	2503
671.109	2527
671.436	2547
671.764	2563
672.091	2577
672.418	2589
672.745	2598
673.072	2608
673.399	2620
673.726	2632
674.053	2642
674.379	2645
674.706	2644
675.033	2643
675.359	2640
675.686	2634
676.013	2632
676.339	2633
676.666	2642
676.992	2662
677.318	2688
677.645	2720
677.971	2748
678.297	2775
678.624	2801
678.950	2825
679.276	2848
679.602	2870
679.928	2894
680.254	2922
680.580	2959
680.906	3005
681.232	3063
681.558	3123
681.883	3182
682.209	3237
682.535	3289
682.860	3336
683.186	3375
683.511	3406
683.837	3426
684.162	3442
684.488	3455
684.813	3468
685.138	3481
685.464	3491
685.789	3500
686.114	3509
686.439	3521
686.764	3534
687.089	3543
687.414	3544
687.739	3534
688.064	3512
688.389	3486
688.714	3454
689.039	3420
689.363	3384
689.688	3345
690.013	3306
690.337	3272
690.662	3244
690.986	3218
691.311	3192
691.635	3166
691.959	3142
692.284	3125
692.608	3121
692.932	3127
693.256	3137
693.580	3150
693.904	3167
694.228	3187
694.552	3205
694.876	3214
695.200	3212
695.524	3198
695.848	3178
696.172	3152
696.495	3125
696.819	3097
697.143	3068
697.466	3038
697.790	3013
698.113	2996
698.437	2987
698.760	2986
699.083	2984
699.407	2976
699.730	2961
700.053	2937
700.376	2904
700.699	2857
701.022	2798
701.345	2734
701.668	2675
701.991	2625
702.314	2591
702.637	2576
702.960	2582
703.283	2609
703.605	2657
703.928	2721
704.251	2794
704.573	2866
704.896	2932
705.218	2985
705.540	3028
705.863	3062
706.185	3090
706.507	3115
706.830	3138
707.152	3162
707.474	3187
707.796	3216
708.118	3247
708.440	3276
708.762	3301
709.084	3322
709.406	3333
709.728	3336
710.049	3329
710.371	3315
710.693	3293
711.014	3269
711.336	3246
711.658	3225
711.979	3206
712.301	3189
712.622	3170
712.943	3148
713.265	3122
713.586	3094
713.907	3067
714.228	3043
714.549	3024
714.870	3011
715.191	3006
715.512	3004
715.833	3000
716.154	2992
716.475	2979
716.796	2960
717.117	2933
717.437	2900
717.758	2863
718.078	2826
718.399	2789
718.719	2757
719.040	2729
719.360	2707
719.681	2691
720.001	2681
720.321	2676
720.642	2673
720.962	2676
721.282	2683
721.602	2691
721.922	2701
722.242	2714
722.562	2732
722.882	2753
723.202	2772
723.521	2790
723.841	2808
724.161	2827
724.481	2846
724.800	2866
725.120	2891
725.439	2921
725.759	2956
726.078	2995
726.398	3043
726.717	3102
727.036	3167
727.355	3237
727.675	3305
727.994	3370
728.313	3433
728.632	3486
728.951	3531
729.270	3570
729.589	3606
729.908	3651
730.226	3701
730.545	3757
730.864	3817
731.182	3881
731.501	3946
731.820	4009
732.138	4062
732.457	4110
732.775	4154
733.093	4189
733.412	4209
733.730	4215
734.048	4205
734.367	4187
734.685	4161
735.003	4132
735.321	4106
735.639	4085
735.957	4068
736.275	4053
736.593	4030
736.910	3996
737.228	3948
737.546	3886
737.863	3814
738.181	3735
738.499	3652
738.816	3570
739.134	3489
739.451	3408
739.768	3326
740.086	3247
740.403	3174
740.720	3107
741.038	3043
741.355	2982
741.672	2921
741.989	2859
742.306	2794
742.623	2728
742.940	2663
743.257	2603
743.573	2551
743.890	2508
744.207	2476
744.523	2454
744.840	2440
745.157	2431
745.473	2430
745.790	2439
746.106	2457
746.422	2487
746.739	2522
747.055	2564
747.371	2613
747.687	2664
748.004	2712
748.320	2755
748.636	2792
748.952	2830
749.268	2868
749.584	2904
749.899	2936
750.215	2971
750.531	3009
750.847	3051
751.162	3094
751.478	3135
751.793	3179
752.109	3225
752.424	3274
752.740	3325
753.055	3382
753.370	3452
753.686	3532
754.001	3618
754.316	3708
754.631	3803
754.946	3905
755.261	4012
755.576	4116
755.891	4215
756.206	4315
756.521	4420
756.836	4527
757.150	4630
757.465	4720
757.780	4797
758.094	4862
758.409	4912
758.723	4943
759.038	4957
759.352	4956
759.667	4943
759.981	4918
760.295	4893
760.609	4874
760.923	4862
761.238	4855
761.552	4850
761.866	4843
762.180	4833
762.493	4807
762.807	4756
763.121	4678
763.435	4582
763.749	4476
764.062	4375
764.376	4292
764.689	4234
765.003	4204
765.316	4199
765.630	4212
765.943	4235
766.257	4263
766.570	4287
766.883	4293
767.196	4282
767.509	4254
767.822	4214
768.135	4160
768.448	4104
768.761	4044
769.074	3992
769.387	3952
769.700	3928
770.013	3912
770.325	3900
770.638	3882
770.950	3851
771.263	3799
771.575	3727
771.888	3635
772.200	3529
772.513	3413
772.825	3291
773.137	3167
773.449	3044
773.761	2925
774.074	2815
774.386	2716
774.698	2633
775.010	2565
775.321	2516
775.633	2484
775.945	2465
776.257	2454
776.568	2451
776.880	2458
777.192	2475
777.503	2501
777.815	2535
778.126	2576
778.438	2628
778.749	2684
779.060	2738
779.372	2788
779.683	2838
779.994	2882
780.305	2917
780.616	2941
780.927	2956
781.238	2961
781.549	2954
781.860	2935
782.171	2907
782.481	2877
782.792	2846
783.103	2816
783.413	2783
783.724	2749
784.034	2716
784.345	2685
784.655	2657
784.966	2628
785.276	2598
785.586	2569
785.896	2539
786.207	2508
786.517	2475
786.827	2443
787.137	2413
787.447	2383
787.757	2355
788.066	2329
788.376	2303
788.686	2277
788.996	2251
789.305	2225
789.615	2205
789.925	2193
790.234	2190
790.544	2194
790.853	2205
791.162	2216
791.472	2226
791.781	2230
792.090	2224
792.399	2211
792.708	2189
793.017	2166
793.326	2143
793.635	2121
793.944	2102
794.253	2085
794.562	2072
794.871	2065
795.179	2059
795.488	2052
795.797	2041
796.105	2022
796.414	1992
796.722	1951
797.031	1898
797.339	1835
797.647	1764
797.956	1690
798.264	1622
798.572	1565
798.880	1520
799.188	1488
799.496	1464
799.804	1446
800.112	1432
800.420	1420
800.728	1409
801.035	1394
801.343	1377
801.651	1364
801.958	1360
802.266	1365
802.573	1376
802.881	1391
803.188	1409
803.496	1429
803.803	1450
804.110	1468
804.417	1485
804.724	1499
805.032	1513
805.339	1524
805.646	1532
805.953	1536
806.259	1537
806.566	1535
806.873	1529
807.180	1521
807.486	1512
807.793	1503
808.100	1487
808.406	1462
808.713	1428
809.019	1390
809.326	1351
809.632	1313
809.938	1278
810.244	1246
810.551	1219
810.857	1196
811.163	1176
811.469	1155
811.775	1132
812.081	1109
812.387	1088
812.692	1071
812.998	1058
813.304	1048
813.610	1039
813.915	1032
814.221	1027
814.526	1022
814.832	1018
815.137	1013
815.443	1007
815.748	997
816.053	983
816.358	969
816.664	956
816.969	945
817.274	935
817.579	927
817.884	922
818.189	921
818.493	920
818.798	917
819.103	911
819.408	902
819.712	891
820.017	880
820.321	868
820.626	855
820.930	844
821.235	837
821.539	833
821.843	833
822.148	836
822.452	837
822.756	836
823.060	833
823.364	828
823.668	821
823.972	812
824.276	804
824.580	796
824.883	793
825.187	791
825.491	791
825.795	791
826.098	791
826.402	790
826.705	787
827.008	781
827.312	773
827.615	760
827.918	744
828.222	726
828.525	708
828.828	690
829.131	673
829.434	656
829.737	639
830.040	626
830.343	616
830.645	607
830.948	597
831.251	588
831.553	580
831.856	574
832.159	567
832.461	560
832.764	552
833.066	544
833.368	538
833.671	533
833.973	530
834.275	526
834.577	522
834.879	518
835.181	513
835.483	507
835.785	500
836.087	491
836.389	480
836.690	468
836.992	455
837.294	442
837.595	428
837.897	413
838.198	398
838.500	384
838.801	372
839.103	361
839.404	352
839.705	344
840.006	338
840.307	333
840.608	328
840.910	325
841.210	323
841.511	321
841.812	318
842.113	314
842.414	310
842.715	304
843.015	298
843.316	292
843.616	286
843.917	280
844.217	275
844.518	271
844.818	268
845.118	266
845.419	264
845.719	263
846.019	261
846.319	260
846.619	259
846.919	258
847.219	257
847.519	255
847.819	254
848.118	254
848.418	257
848.718	265
849.017	278
849.317	296
849.616	318
849.916	343
850.215	370
850.515	401
850.814	430
851.113	457
851.412	481
851.712	504
852.011	525
852.310	544
852.609	561
852.908	576
853.206	589
853.505	602
853.804	612
854.103	622
854.401	628
854.700	631
854.999	629
855.297	622
855.595	609
855.894	591
856.192	569
856.491	544
856.789	517
857.087	489
857.385	464
857.683	440
857.981	419
858.279	400
858.577	381
858.875	364
859.173	351
859.471	341
859.768	332
860.066	324
860.363	318
860.661	313
860.959	309
861.256	304
861.553	299
861.851	294
862.148	288
862.445	282
862.742	277
863.039	273
863.337	269
863.634	266
863.931	264
864.227	263
864.524	263
864.821	263
865.118	262
865.415	260
865.711	256
866.008	252
866.304	247
866.601	242
866.897	238
867.194	234
867.490	232
867.786	231
868.082	231
868.379	231
868.675	232
868.971	232
869.267	232
869.563	232
869.859	231
870.154	230
870.450	228
870.746	227
871.042	226
871.337	226
871.633	227
871.928	227
872.224	229
872.519	232
872.815	233
873.110	234
873.405	233
873.700	233
873.995	232
874.291	232
874.586	233
874.881	234
875.175	237
875.470	241
875.765	245
876.060	250
876.355	255
876.649	260
876.944	265
877.238	269
877.533	273
877.827	276
878.122	278
878.416	280
878.710	279
879.005	279
879.299	278
879.593	277
879.887	276
880.181	275
880.475	273
880.769	271
881.063	268
881.356	265
881.650	262
881.944	258
882.238	214
882.531	203
882.825	205
883.118	212
883.412	207
883.705	203
883.998	208
884.291	215
884.585	220
884.878	229
>>>>>>>>>> END of Data <<<<<<<<<<