Date	2022年08月02日火曜日 02時10分01秒
Spectrometers	USB2+H05879
ダーク	使用
リファレンス	使用
積分時間[msec]	12
平均回数	10000
ｽﾑｰｼﾞﾝｸﾞ	0
Electrical Dark	USE
ピクセル数	2048
計測モード	吸光度
保存開始波長[nm]	190.664
保存終了波長[nm]	884.878
保存ﾋﾟｯﾁ波長[nm]	全波長

>>>>>>>>>> Data Start <<<<<<<<<<<<
190.664	0.000000
191.040	0.000000
191.415	0.000000
191.791	0.000000
192.166	0.000000
192.542	0.870496
192.917	0.713745
193.293	0.412923
193.668	0.000000
194.044	0.000000
194.419	0.937423
194.794	0.000000
195.170	0.000000
195.545	0.000000
195.920	0.000000
196.296	0.988668
196.671	0.000000
197.046	2.078867
197.421	0.000000
197.796	0.000000
198.171	0.000000
198.546	0.000000
198.922	0.000000
199.297	0.000000
199.672	0.000000
200.047	0.000000
200.422	0.000000
200.796	0.000000
201.171	0.437952
201.546	0.000000
201.921	0.000000
202.296	0.000000
202.671	0.000000
203.045	0.446181
203.420	0.000000
203.795	0.141922
204.170	0.000000
204.544	0.000000
204.919	0.000000
205.294	0.676677
205.668	0.647727
206.043	0.000000
206.417	0.000000
206.792	0.000000
207.166	0.480214
207.541	0.063805
207.915	0.925554
208.289	0.471031
208.664	0.000000
209.038	0.000000
209.412	0.470897
209.787	0.605506
210.161	0.000000
210.535	0.000000
210.909	0.000000
211.284	0.000000
211.658	1.790525
212.032	0.000000
212.406	0.000000
212.780	0.070667
213.154	0.000000
213.528	0.000000
213.902	-0.813981
214.276	0.000000
214.650	0.268144
215.024	0.132437
215.398	0.678502
215.772	0.000000
216.145	0.000000
216.519	0.514530
216.893	0.619811
217.267	0.000000
217.640	0.000000
218.014	0.000000
218.388	0.000000
218.761	0.129822
219.135	0.000000
219.508	0.000000
219.882	0.000000
220.256	0.000000
220.629	0.000000
221.003	0.000000
221.376	0.000000
221.749	0.279515
222.123	0.072440
222.496	1.327024
222.869	0.000000
223.243	0.000000
223.616	0.000000
223.989	0.000000
224.362	0.000000
224.736	1.586544
225.109	0.000000
225.482	0.000000
225.855	0.000000
226.228	0.290382
226.601	0.000000
226.974	0.711871
227.347	0.000000
227.720	0.253937
228.093	0.000000
228.466	0.000000
228.839	0.000000
229.212	0.000000
229.585	0.244342
229.957	0.000000
230.330	0.471846
230.703	0.000000
231.076	0.000000
231.448	0.000000
231.821	-0.175004
232.194	0.556991
232.566	0.000000
232.939	0.000000
233.311	0.000000
233.684	0.000000
234.056	0.000000
234.429	0.000000
234.801	0.000000
235.174	0.000000
235.546	0.000000
235.918	0.000000
236.291	0.000000
236.663	0.516361
237.035	0.541279
237.408	0.000000
237.780	0.000000
238.152	0.367959
238.524	0.415758
238.896	0.000000
239.268	0.000000
239.641	0.000000
240.013	0.000000
240.385	0.000000
240.757	0.000000
241.129	0.000000
241.500	0.000000
241.872	1.055161
242.244	1.664857
242.616	0.000000
242.988	0.000000
243.360	0.000000
243.731	0.797464
244.103	0.000000
244.475	0.000000
244.847	0.000000
245.218	0.000000
245.590	0.000000
245.961	0.000000
246.333	0.000000
246.705	0.000000
247.076	0.650708
247.448	0.688061
247.819	0.000000
248.190	0.265811
248.562	0.000000
248.933	0.000000
249.305	0.326964
249.676	0.000000
250.047	0.000000
250.418	0.000000
250.790	0.000000
251.161	2.267874
251.532	1.214541
251.903	0.471961
252.274	1.199122
252.645	0.000000
253.016	0.633185
253.387	0.547533
253.758	0.000000
254.129	0.705357
254.500	0.770864
254.871	0.087731
255.242	0.398298
255.613	0.000000
255.984	0.000000
256.355	0.000000
256.725	1.138982
257.096	0.000000
257.467	0.304274
257.838	0.000000
258.208	0.000000
258.579	0.000000
258.949	0.773163
259.320	0.928639
259.690	0.458681
260.061	0.000000
260.431	0.560549
260.802	0.000000
261.172	0.430843
261.543	0.560291
261.913	0.000000
262.283	0.101597
262.654	0.000000
263.024	1.138641
263.394	0.981595
263.764	0.000000
264.135	0.874671
264.505	0.000000
264.875	0.000000
265.245	0.455882
265.615	0.000000
265.985	0.000000
266.355	0.000000
266.725	0.482043
267.095	1.662549
267.465	0.000000
267.835	0.274353
268.205	0.000000
268.575	0.305169
268.944	0.000000
269.314	0.787731
269.684	0.663227
270.054	0.437276
270.423	0.000000
270.793	0.472353
271.163	1.354786
271.532	0.727947
271.902	0.677802
272.271	0.964986
272.641	0.000000
273.010	0.000000
273.380	0.000000
273.749	0.000000
274.119	1.291749
274.488	0.000000
274.857	0.000000
275.227	0.000000
275.596	0.000000
275.965	0.000000
276.335	0.000000
276.704	0.000000
277.073	0.459481
277.442	0.000000
277.811	1.733745
278.180	0.361308
278.549	0.000000
278.918	0.447047
279.287	0.427506
279.656	0.000000
280.025	0.000000
280.394	0.236270
280.763	0.456233
281.132	0.000000
281.501	0.000000
281.869	0.409034
282.238	0.996388
282.607	0.620174
282.976	0.000000
283.344	0.000000
283.713	0.000000
284.081	0.413290
284.450	0.589933
284.819	0.797586
285.187	0.082984
285.556	0.000000
285.924	0.000000
286.292	0.000000
286.661	0.000000
287.029	1.184563
287.398	-0.021550
287.766	0.000000
288.134	0.000000
288.502	0.000000
288.871	0.000000
289.239	0.000000
289.607	0.000000
289.975	0.197449
290.343	0.000000
290.711	0.000000
291.079	0.000000
291.447	0.000000
291.815	0.545934
292.183	0.347476
292.551	0.699497
292.919	0.000000
293.287	0.632023
293.655	0.492313
294.022	0.658711
294.390	0.000000
294.758	0.463861
295.126	0.000000
295.493	0.478350
295.861	0.000000
296.229	0.000000
296.596	0.000000
296.964	0.000000
297.331	0.000000
297.699	0.397463
298.066	0.000000
298.434	0.000000
298.801	0.000000
299.168	0.000000
299.536	0.000000
299.903	0.000000
300.270	0.407596
300.638	0.000000
301.005	1.699366
301.372	0.000000
301.739	1.008264
302.106	0.000000
302.473	0.135424
302.840	0.000000
303.207	0.000000
303.574	0.000000
303.941	0.000000
304.308	0.000000
304.675	0.000000
305.042	0.337069
305.409	0.000000
305.776	3.473042
306.143	1.107472
306.509	2.178806
306.876	0.783514
307.243	0.000000
307.610	1.295561
307.976	0.000000
308.343	1.027652
308.709	0.000000
309.076	1.121275
309.442	0.000000
309.809	0.000000
310.175	0.959789
310.542	1.145561
310.908	0.000000
311.275	0.000000
311.641	0.000000
312.007	0.000000
312.373	0.000000
312.740	0.000000
313.106	1.950208
313.472	1.061581
313.838	0.000000
314.204	0.000000
314.570	1.695252
314.936	1.505174
315.302	0.000000
315.668	1.664244
316.034	1.504378
316.400	1.618619
316.766	0.000000
317.132	1.518648
317.498	1.230850
317.864	1.972612
318.230	0.000000
318.595	1.686397
318.961	2.303233
319.327	0.000000
319.692	1.523291
320.058	0.000000
320.424	1.685458
320.789	2.090554
321.155	1.907676
321.520	0.000000
321.886	0.000000
322.251	0.000000
322.616	2.358375
322.982	0.000000
323.347	1.886411
323.712	1.914575
324.078	0.000000
324.443	0.000000
324.808	2.005774
325.173	0.000000
325.539	0.000000
325.904	2.275928
326.269	2.564206
326.634	2.306981
326.999	1.955662
327.364	1.808495
327.729	2.336032
328.094	0.000000
328.459	1.891047
328.823	2.250285
329.188	1.803435
329.553	2.285376
329.918	2.649080
330.283	1.932213
330.647	2.148365
331.012	2.095450
331.377	2.001700
331.741	1.733365
332.106	1.969483
332.470	3.301581
332.835	2.232389
333.199	2.535430
333.564	2.315445
333.928	2.045896
334.293	1.841867
334.657	2.148410
335.021	2.123445
335.386	2.486286
335.750	2.348836
336.114	2.061728
336.478	2.096194
336.843	2.982658
337.207	2.520040
337.571	2.070604
337.935	0.000000
338.299	2.338141
338.663	2.626399
339.027	2.281590
339.391	1.948469
339.755	2.049105
340.119	2.253438
340.483	1.859479
340.846	2.041133
341.210	2.147604
341.574	1.863605
341.938	1.935861
342.301	2.108766
342.665	2.203932
343.029	3.232233
343.392	2.203134
343.756	2.085997
344.119	1.987189
344.483	2.237301
344.846	1.967404
345.210	1.934736
345.573	1.958619
345.937	1.983123
346.300	2.125077
346.663	1.794040
347.027	2.190419
347.390	2.508441
347.753	2.175304
348.116	2.008188
348.479	2.075973
348.843	2.285831
349.206	2.000488
349.569	2.013044
349.932	2.181038
350.295	2.004432
350.658	2.346827
351.021	1.973533
351.383	2.262061
351.746	2.223017
352.109	2.176058
352.472	2.427735
352.835	2.155888
353.197	2.048003
353.560	1.969663
353.923	2.077951
354.285	1.914757
354.648	2.078994
355.011	2.178799
355.373	2.010672
355.736	2.019822
356.098	2.114745
356.461	2.198540
356.823	2.179642
357.185	2.072406
357.548	1.944190
357.910	1.932606
358.272	2.051519
358.635	2.088272
358.997	2.100728
359.359	2.020699
359.721	1.915427
360.083	2.179639
360.445	2.212848
360.807	2.066187
361.169	2.113318
361.531	2.075240
361.893	2.018622
362.255	1.985867
362.617	2.027032
362.979	1.960049
363.341	2.036707
363.703	1.831685
364.064	2.125905
364.426	2.115774
364.788	2.064073
365.149	2.011017
365.511	2.142559
365.873	2.044051
366.234	2.073461
366.596	2.138397
366.957	2.082003
367.319	2.106472
367.680	1.997229
368.042	1.962769
368.403	2.042085
368.764	1.958322
369.126	2.049473
369.487	2.107751
369.848	2.061246
370.209	2.103672
370.570	2.072698
370.931	2.113800
371.293	2.503540
371.654	2.223942
372.015	2.078324
372.376	2.084622
372.737	2.370135
373.098	2.454717
373.458	2.319876
373.819	2.326998
374.180	2.203650
374.541	2.681217
374.902	2.112311
375.263	2.005319
375.623	1.954037
375.984	2.199308
376.345	1.989150
376.705	2.147759
377.066	2.253440
377.426	2.132355
377.787	1.969229
378.147	1.996620
378.508	2.129573
378.868	1.983734
379.228	2.032008
379.589	2.046461
379.949	2.087242
380.309	2.029544
380.670	2.284761
381.030	2.147126
381.390	2.125872
381.750	2.083421
382.110	2.215825
382.470	2.165232
382.830	2.071282
383.190	1.998851
383.550	1.976573
383.910	2.150330
384.270	2.074818
384.630	2.165304
384.990	2.198565
385.350	2.159431
385.709	2.054997
386.069	2.156723
386.429	2.022582
386.788	2.216207
387.148	2.152663
387.508	2.289436
387.867	2.259133
388.227	2.161962
388.586	2.324843
388.946	2.147368
389.305	2.344402
389.665	2.191342
390.024	2.147192
390.383	2.215858
390.743	2.175840
391.102	2.191185
391.461	2.115448
391.820	2.100526
392.179	2.125377
392.539	2.002055
392.898	2.037019
393.257	2.325694
393.616	2.137593
393.975	2.082897
394.334	2.136217
394.693	2.009133
395.051	2.010242
395.410	2.191208
395.769	2.079926
396.128	2.167199
396.487	2.015572
396.845	2.024623
397.204	2.094645
397.563	2.033675
397.921	2.013536
398.280	2.196010
398.638	2.227015
398.997	2.203097
399.355	2.262839
399.714	2.215926
400.072	2.053044
400.431	1.991458
400.789	2.139246
401.147	2.020401
401.506	2.215588
401.864	2.135191
402.222	2.142825
402.580	2.004197
402.938	2.096930
403.297	2.535135
403.655	1.973329
404.013	2.111969
404.371	1.955371
404.729	2.184898
405.087	2.021727
405.444	2.197661
405.802	1.991201
406.160	1.986511
406.518	2.185252
406.876	2.168298
407.233	2.121225
407.591	1.952174
407.949	1.991650
408.306	2.304772
408.664	2.064059
409.022	2.072869
409.379	2.103176
409.737	2.219442
410.094	2.199343
410.451	2.014100
410.809	2.104330
411.166	2.072093
411.523	2.146337
411.881	1.939053
412.238	2.027586
412.595	2.097315
412.952	2.063847
413.310	2.073446
413.667	1.979849
414.024	2.278614
414.381	2.066413
414.738	2.124126
415.095	2.102618
415.452	2.015123
415.809	1.930494
416.165	1.932471
416.522	2.078894
416.879	1.965565
417.236	1.981684
417.593	1.980887
417.949	1.948657
418.306	2.002405
418.663	2.099913
419.019	2.032200
419.376	1.982915
419.732	2.006890
420.089	2.014111
420.445	1.880687
420.802	1.972044
421.158	2.001008
421.514	1.955008
421.871	1.991507
422.227	2.000531
422.583	2.028618
422.939	2.036019
423.295	1.990598
423.652	1.933539
424.008	1.981758
424.364	1.909435
424.720	2.036892
425.076	2.142644
425.432	2.128198
425.788	1.996698
426.143	2.005501
426.499	1.958001
426.855	1.911302
427.211	2.071177
427.567	1.946456
427.922	1.907343
428.278	2.004993
428.634	1.968561
428.989	1.938569
429.345	2.026865
429.700	1.869997
430.056	1.927366
430.411	1.872754
430.767	1.995243
431.122	1.886348
431.478	1.977836
431.833	1.859238
432.188	1.975625
432.543	2.146778
432.899	1.839122
433.254	2.072021
433.609	2.001418
433.964	1.919910
434.319	1.928621
434.674	1.893266
435.029	1.866119
435.384	1.862563
435.739	1.949703
436.094	1.856352
436.449	1.826610
436.804	1.878721
437.158	1.922957
437.513	1.965317
437.868	1.829545
438.223	1.881335
438.577	1.816414
438.932	1.907746
439.287	1.977954
439.641	1.929190
439.996	1.836682
440.350	1.937704
440.704	1.892031
441.059	1.841761
441.413	1.854290
441.768	1.822815
442.122	1.863363
442.476	1.823041
442.830	1.901417
443.185	1.784675
443.539	1.777720
443.893	1.818770
444.247	1.784749
444.601	1.838262
444.955	1.838666
445.309	1.821377
445.663	1.777355
446.017	1.778553
446.371	1.783585
446.724	1.808077
447.078	1.704704
447.432	1.755268
447.786	1.730594
448.139	1.777604
448.493	1.746847
448.847	1.794172
449.200	1.803997
449.554	1.732206
449.907	1.685581
450.261	1.752414
450.614	1.708072
450.968	1.737348
451.321	1.729197
451.674	1.698672
452.027	1.653453
452.381	1.649243
452.734	1.686456
453.087	1.671078
453.440	1.691701
453.793	1.653300
454.146	1.672763
454.499	1.712455
454.852	1.685955
455.205	1.617370
455.558	1.640506
455.911	1.702520
456.264	1.728378
456.617	1.685864
456.970	1.653481
457.322	1.642433
457.675	1.594712
458.028	1.604876
458.380	1.598695
458.733	1.573993
459.086	1.604611
459.438	1.656647
459.791	1.641255
460.143	1.578218
460.496	1.615183
460.848	1.587934
461.200	1.604020
461.553	1.599038
461.905	1.591253
462.257	1.552231
462.609	1.583154
462.961	1.602453
463.314	1.588306
463.666	1.611193
464.018	1.525446
464.370	1.521812
464.722	1.542513
465.074	1.538556
465.426	1.559297
465.777	1.517735
466.129	1.535288
466.481	1.526599
466.833	1.512274
467.184	1.534689
467.536	1.550215
467.888	1.530486
468.239	1.543896
468.591	1.486895
468.943	1.473480
469.294	1.488917
469.646	1.482913
469.997	1.465295
470.348	1.493667
470.700	1.505973
471.051	1.443568
471.402	1.495223
471.754	1.500799
472.105	1.463984
472.456	1.493767
472.807	1.476952
473.158	1.472776
473.509	1.434716
473.860	1.463688
474.211	1.468096
474.562	1.438110
474.913	1.479153
475.264	1.472429
475.615	1.414264
475.966	1.443664
476.316	1.426024
476.667	1.417847
477.018	1.443381
477.368	1.428377
477.719	1.461555
478.070	1.408470
478.420	1.414828
478.771	1.404602
479.121	1.406264
479.472	1.402344
479.822	1.399049
480.172	1.423496
480.523	1.380969
480.873	1.383783
481.223	1.392742
481.573	1.424046
481.924	1.391367
482.274	1.384952
482.624	1.365704
482.974	1.378047
483.324	1.377569
483.674	1.377078
484.024	1.369230
484.374	1.366123
484.724	1.366115
485.073	1.364220
485.423	1.349811
485.773	1.346676
486.123	1.330605
486.472	1.327442
486.822	1.339810
487.172	1.346399
487.521	1.331858
487.871	1.315686
488.220	1.336847
488.570	1.327906
488.919	1.318542
489.268	1.331956
489.618	1.322404
489.967	1.338802
490.316	1.327241
490.666	1.338472
491.015	1.295927
491.364	1.313267
491.713	1.307147
492.062	1.305471
492.411	1.285421
492.760	1.296193
493.109	1.298202
493.458	1.304300
493.807	1.299758
494.156	1.295591
494.505	1.304195
494.853	1.290330
495.202	1.270678
495.551	1.276583
495.900	1.282017
496.248	1.291304
496.597	1.259407
496.945	1.286466
497.294	1.275733
497.642	1.265934
497.991	1.255135
498.339	1.257987
498.688	1.257970
499.036	1.256220
499.384	1.243548
499.732	1.254428
500.081	1.236833
500.429	1.238495
500.777	1.228904
501.125	1.238448
501.473	1.222425
501.821	1.227342
502.169	1.242826
502.517	1.222257
502.865	1.233787
503.213	1.215322
503.561	1.217412
503.908	1.214264
504.256	1.210979
504.604	1.198428
504.952	1.222363
505.299	1.228854
505.647	1.222613
505.994	1.213209
506.342	1.200426
506.689	1.177939
507.037	1.192966
507.384	1.189209
507.732	1.196528
508.079	1.202058
508.426	1.188264
508.774	1.173180
509.121	1.184989
509.468	1.196316
509.815	1.164599
510.162	1.174782
510.509	1.165606
510.856	1.164805
511.203	1.188741
511.550	1.178893
511.897	1.189630
512.244	1.148991
512.591	1.167258
512.938	1.175788
513.284	1.151162
513.631	1.145572
513.978	1.134784
514.324	1.142110
514.671	1.137375
515.018	1.155019
515.364	1.145906
515.711	1.140899
516.057	1.140265
516.403	1.137850
516.750	1.153322
517.096	1.129694
517.443	1.138483
517.789	1.136997
518.135	1.132163
518.481	1.144902
518.827	1.125621
519.173	1.114284
519.519	1.120801
519.865	1.111673
520.211	1.106765
520.557	1.109455
520.903	1.116567
521.249	1.093506
521.595	1.110505
521.941	1.103333
522.287	1.104067
522.632	1.114973
522.978	1.112424
523.324	1.089129
523.669	1.087922
524.015	1.105433
524.360	1.102067
524.706	1.103052
525.051	1.092129
525.397	1.078697
525.742	1.093234
526.087	1.091536
526.433	1.086003
526.778	1.079332
527.123	1.069213
527.468	1.078734
527.813	1.066050
528.158	1.072828
528.504	1.075639
528.849	1.055281
529.193	1.065134
529.538	1.056517
529.883	1.075407
530.228	1.083893
530.573	1.052875
530.918	1.055235
531.263	1.064304
531.607	1.040554
531.952	1.035810
532.296	1.037950
532.641	1.043983
532.986	1.029873
533.330	1.040953
533.675	1.032867
534.019	1.034428
534.363	1.030220
534.708	1.025865
535.052	1.024601
535.396	1.021672
535.741	1.018009
536.085	1.019909
536.429	0.999908
536.773	1.012026
537.117	1.005919
537.461	1.007298
537.805	1.016795
538.149	0.999653
538.493	0.990749
538.837	1.000177
539.181	0.998249
539.524	1.005988
539.868	0.991790
540.212	0.981537
540.556	0.975095
540.899	0.988313
541.243	0.987382
541.586	0.964390
541.930	0.993522
542.273	0.975448
542.617	0.979753
542.960	0.976387
543.304	0.953741
543.647	0.958268
543.990	0.953053
544.333	0.948314
544.677	0.948992
545.020	0.943094
545.363	0.946190
545.706	0.936366
546.049	0.933814
546.392	0.936369
546.735	0.932008
547.078	0.920958
547.421	0.924020
547.764	0.913294
548.106	0.913680
548.449	0.920154
548.792	0.915449
549.135	0.909154
549.477	0.902745
549.820	0.898874
550.162	0.903683
550.505	0.886240
550.847	0.877590
551.190	0.881291
551.532	0.888945
551.875	0.877422
552.217	0.873606
552.559	0.875031
552.901	0.867537
553.244	0.864759
553.586	0.858266
553.928	0.855916
554.270	0.852591
554.612	0.841324
554.954	0.848565
555.296	0.836692
555.638	0.841343
555.980	0.834805
556.322	0.829514
556.663	0.812873
557.005	0.819375
557.347	0.811593
557.689	0.808074
558.030	0.807379
558.372	0.813096
558.713	0.806133
559.055	0.798673
559.396	0.790114
559.738	0.779798
560.079	0.783458
560.421	0.775619
560.762	0.779288
561.103	0.778812
561.444	0.773341
561.786	0.759845
562.127	0.762797
562.468	0.757447
562.809	0.748084
563.150	0.748269
563.491	0.750368
563.832	0.740392
564.173	0.730597
564.514	0.719722
564.855	0.727320
565.195	0.723884
565.536	0.716550
565.877	0.718110
566.218	0.709903
566.558	0.704605
566.899	0.698622
567.239	0.699289
567.580	0.691330
567.920	0.685409
568.261	0.684124
568.601	0.679280
568.941	0.676026
569.282	0.673638
569.622	0.670191
569.962	0.668044
570.302	0.660458
570.643	0.658595
570.983	0.651101
571.323	0.647883
571.663	0.646654
572.003	0.646108
572.343	0.634210
572.683	0.624261
573.022	0.608446
573.362	0.593022
573.702	0.567277
574.042	0.545461
574.381	0.529583
574.721	0.527117
575.061	0.523039
575.400	0.522253
575.740	0.521328
576.079	0.520658
576.419	0.504146
576.758	0.475805
577.097	0.446707
577.437	0.427303
577.776	0.418725
578.115	0.417808
578.454	0.415311
578.794	0.427147
579.133	0.438502
579.472	0.449606
579.811	0.451555
580.150	0.428821
580.489	0.390595
580.828	0.354032
581.167	0.328077
581.505	0.310494
581.844	0.305475
582.183	0.309616
582.522	0.342675
582.860	0.386044
583.199	0.429309
583.538	0.461289
583.876	0.472212
584.215	0.462734
584.553	0.443962
584.891	0.423394
585.230	0.415320
585.568	0.414762
585.906	0.420126
586.245	0.428344
586.583	0.437969
586.921	0.447775
587.259	0.451261
587.597	0.450073
587.935	0.455449
588.273	0.471121
588.611	0.493378
588.949	0.515114
589.287	0.518019
589.625	0.513727
589.963	0.518790
590.300	0.515819
590.638	0.514501
590.976	0.510926
591.313	0.509137
591.651	0.506306
591.989	0.507955
592.326	0.501977
592.664	0.500220
593.001	0.497655
593.338	0.489822
593.676	0.484477
594.013	0.485474
594.350	0.492706
594.687	0.488918
595.025	0.490301
595.362	0.487549
595.699	0.487287
596.036	0.487284
596.373	0.484159
596.710	0.484895
597.047	0.483765
597.384	0.484600
597.720	0.481362
598.057	0.479311
598.394	0.477826
598.731	0.478123
599.067	0.478064
599.404	0.472599
599.741	0.470069
600.077	0.470617
600.414	0.466171
600.750	0.470547
601.087	0.466984
601.423	0.461625
601.759	0.461995
602.096	0.460818
602.432	0.460773
602.768	0.459731
603.104	0.458147
603.440	0.457517
603.776	0.458336
604.112	0.456939
604.448	0.458338
604.784	0.456967
605.120	0.459250
605.456	0.450229
605.792	0.454511
606.128	0.449970
606.463	0.449033
606.799	0.448789
607.135	0.449956
607.470	0.448840
607.806	0.451764
608.142	0.450734
608.477	0.444516
608.812	0.444944
609.148	0.448382
609.483	0.445549
609.819	0.438321
610.154	0.441879
610.489	0.437973
610.824	0.437569
611.159	0.435956
611.494	0.437512
611.830	0.435723
612.165	0.432572
612.500	0.430674
612.834	0.433616
613.169	0.430962
613.504	0.428021
613.839	0.434323
614.174	0.432510
614.509	0.432769
614.843	0.430981
615.178	0.429777
615.512	0.425453
615.847	0.429149
616.182	0.427233
616.516	0.421815
616.850	0.418004
617.185	0.423886
617.519	0.414936
617.853	0.416772
618.188	0.413460
618.522	0.417165
618.856	0.421869
619.190	0.416702
619.524	0.409698
619.858	0.412557
620.192	0.413310
620.526	0.414974
620.860	0.409679
621.194	0.406921
621.528	0.406752
621.862	0.406433
622.195	0.410239
622.529	0.412313
622.863	0.410209
623.196	0.410135
623.530	0.406257
623.864	0.405095
624.197	0.401726
624.530	0.407107
624.864	0.399520
625.197	0.400076
625.531	0.398163
625.864	0.398351
626.197	0.399514
626.530	0.404464
626.863	0.400009
627.196	0.388230
627.529	0.397484
627.862	0.391615
628.195	0.393895
628.528	0.390360
628.861	0.396284
629.194	0.392157
629.527	0.389926
629.860	0.389815
630.192	0.388862
630.525	0.394239
630.858	0.387688
631.190	0.380803
631.523	0.386519
631.855	0.384049
632.188	0.381812
632.520	0.381987
632.852	0.378293
633.185	0.379183
633.517	0.387223
633.849	0.383506
634.182	0.373196
634.514	0.384282
634.846	0.377171
635.178	0.375599
635.510	0.383535
635.842	0.376965
636.174	0.380172
636.506	0.378910
636.837	0.395363
637.169	0.384076
637.501	0.380817
637.833	0.380060
638.164	0.379211
638.496	0.375375
638.828	0.375562
639.159	0.374094
639.491	0.381087
639.822	0.372016
640.154	0.368059
640.485	0.375560
640.816	0.370586
641.147	0.373904
641.479	0.363481
641.810	0.362407
642.141	0.371623
642.472	0.361017
642.803	0.359602
643.134	0.372233
643.465	0.363965
643.796	0.355238
644.127	0.370031
644.458	0.356569
644.789	0.359634
645.119	0.359925
645.450	0.369658
645.781	0.364697
646.111	0.364251
646.442	0.363796
646.773	0.351916
647.103	0.350121
647.433	0.355866
647.764	0.357021
648.094	0.353176
648.425	0.356227
648.755	0.359876
649.085	0.349487
649.415	0.358845
649.745	0.349669
650.075	0.362492
650.405	0.359322
650.735	0.358624
651.065	0.351572
651.395	0.347337
651.725	0.362607
652.055	0.345775
652.385	0.354598
652.715	0.351804
653.044	0.353773
653.374	0.356262
653.704	0.344270
654.033	0.351218
654.363	0.342982
654.692	0.205903
655.022	-0.000000
655.351	-0.000000
655.680	-0.000000
656.010	-0.000000
656.339	-0.000000
656.668	-0.000000
656.997	-0.000000
657.326	-0.000000
657.655	0.041417
657.984	0.235076
658.313	0.359178
658.642	0.330473
658.971	0.336095
659.300	0.334001
659.629	0.335303
659.958	0.331547
660.286	0.335883
660.615	0.330614
660.944	0.350406
661.272	0.361052
661.601	0.334435
661.929	0.333798
662.258	0.345288
662.586	0.338414
662.915	0.343255
663.243	0.341637
663.571	0.348232
663.899	0.330992
664.228	0.332984
664.556	0.337425
664.884	0.332355
665.212	0.332728
665.540	0.338260
665.868	0.330903
666.196	0.325051
666.524	0.330954
666.852	0.323974
667.179	0.331632
667.507	0.330475
667.835	0.332642
668.162	0.346689
668.490	0.328058
668.818	0.347270
669.145	0.337179
669.473	0.320483
669.800	0.333104
670.127	0.324849
670.455	0.323837
670.782	0.323857
671.109	0.340988
671.436	0.331909
671.764	0.334167
672.091	0.327534
672.418	0.328352
672.745	0.333414
673.072	0.337844
673.399	0.331493
673.726	0.318511
674.053	0.315025
674.379	0.318275
674.706	0.329126
675.033	0.327595
675.359	0.329119
675.686	0.325986
676.013	0.328762
676.339	0.309368
676.666	0.335725
676.992	0.323071
677.318	0.317067
677.645	0.323918
677.971	0.314740
678.297	0.313419
678.624	0.328652
678.950	0.322677
679.276	0.326462
679.602	0.330154
679.928	0.323793
680.254	0.322094
680.580	0.326166
680.906	0.314012
681.232	0.319146
681.558	0.315175
681.883	0.312405
682.209	0.313145
682.535	0.316048
682.860	0.308198
683.186	0.307680
683.511	0.319379
683.837	0.301164
684.162	0.318452
684.488	0.315494
684.813	0.312095
685.138	0.316636
685.464	0.321185
685.789	0.312293
686.114	0.310994
686.439	0.315301
686.764	0.314278
687.089	0.310045
687.414	0.320198
687.739	0.297187
688.064	0.298338
688.389	0.301922
688.714	0.299580
689.039	0.309827
689.363	0.306666
689.688	0.307665
690.013	0.308766
690.337	0.311899
690.662	0.310776
690.986	0.302468
691.311	0.302963
691.635	0.317794
691.959	0.310298
692.284	0.308198
692.608	0.305239
692.932	0.309786
693.256	0.308024
693.580	0.298493
693.904	0.297589
694.228	0.300793
694.552	0.297510
694.876	0.305651
695.200	0.300954
695.524	0.294712
695.848	0.297411
696.172	0.294665
696.495	0.295880
696.819	0.297794
697.143	0.304363
697.466	0.302932
697.790	0.293856
698.113	0.299863
698.437	0.301045
698.760	0.295045
699.083	0.300332
699.407	0.290845
699.730	0.298443
700.053	0.293929
700.376	0.290072
700.699	0.288500
701.022	0.290793
701.345	0.290722
701.668	0.296374
701.991	0.293757
702.314	0.291616
702.637	0.284456
702.960	0.295445
703.283	0.293250
703.605	0.288698
703.928	0.279344
704.251	0.276019
704.573	0.293901
704.896	0.281845
705.218	0.286922
705.540	0.294090
705.863	0.293585
706.185	0.278933
706.507	0.304276
706.830	0.292636
707.152	0.294538
707.474	0.294427
707.796	0.304953
708.118	0.293960
708.440	0.292043
708.762	0.291831
709.084	0.280787
709.406	0.286970
709.728	0.276478
710.049	0.272219
710.371	0.287233
710.693	0.287683
711.014	0.289896
711.336	0.279768
711.658	0.290631
711.979	0.276708
712.301	0.280147
712.622	0.286509
712.943	0.282319
713.265	0.282050
713.586	0.287685
713.907	0.276704
714.228	0.288262
714.549	0.276331
714.870	0.278070
715.191	0.286000
715.512	0.279405
715.833	0.287015
716.154	0.271536
716.475	0.271413
716.796	0.274965
717.117	0.274008
717.437	0.282824
717.758	0.265253
718.078	0.288967
718.399	0.272009
718.719	0.271689
719.040	0.264497
719.360	0.275921
719.681	0.280330
720.001	0.263505
720.321	0.264834
720.642	0.273515
720.962	0.278460
721.282	0.282023
721.602	0.275662
721.922	0.275813
722.242	0.276213
722.562	0.265685
722.882	0.264232
723.202	0.265791
723.521	0.280050
723.841	0.272542
724.161	0.283879
724.481	0.263644
724.800	0.271210
725.120	0.268361
725.439	0.265910
725.759	0.264531
726.078	0.265831
726.398	0.262879
726.717	0.266925
727.036	0.268421
727.355	0.256029
727.675	0.273112
727.994	0.274746
728.313	0.256452
728.632	0.265890
728.951	0.275425
729.270	0.268183
729.589	0.267742
729.908	0.270378
730.226	0.268291
730.545	0.274069
730.864	0.268943
731.182	0.268197
731.501	0.268581
731.820	0.257033
732.138	0.262425
732.457	0.267649
732.775	0.269513
733.093	0.262183
733.412	0.266232
733.730	0.254533
734.048	0.273513
734.367	0.264181
734.685	0.262871
735.003	0.255684
735.321	0.258216
735.639	0.264462
735.957	0.262188
736.275	0.257558
736.593	0.257279
736.910	0.261139
737.228	0.255290
737.546	0.258394
737.863	0.261919
738.181	0.248640
738.499	0.262439
738.816	0.252683
739.134	0.264611
739.451	0.252102
739.768	0.256464
740.086	0.260893
740.403	0.254622
740.720	0.255497
741.038	0.263193
741.355	0.264351
741.672	0.263150
741.989	0.252667
742.306	0.252160
742.623	0.240976
742.940	0.246139
743.257	0.246822
743.573	0.239287
743.890	0.252813
744.207	0.245150
744.523	0.247419
744.840	0.249233
745.157	0.244510
745.473	0.259231
745.790	0.257817
746.106	0.246943
746.422	0.253820
746.739	0.235003
747.055	0.254039
747.371	0.257959
747.687	0.253301
748.004	0.246480
748.320	0.256233
748.636	0.254147
748.952	0.264321
749.268	0.251874
749.584	0.253570
749.899	0.254395
750.215	0.252965
750.531	0.244497
750.847	0.246189
751.162	0.257509
751.478	0.247057
751.793	0.249391
752.109	0.239625
752.424	0.250461
752.740	0.243618
753.055	0.245263
753.370	0.254320
753.686	0.247314
754.001	0.250684
754.316	0.243690
754.631	0.249195
754.946	0.244485
755.261	0.245027
755.576	0.240987
755.891	0.237230
756.206	0.250280
756.521	0.246066
756.836	0.249116
757.150	0.245062
757.465	0.247378
757.780	0.245805
758.094	0.241933
758.409	0.244107
758.723	0.246723
759.038	0.234627
759.352	0.246151
759.667	0.245123
759.981	0.229418
760.295	0.246555
760.609	0.243872
760.923	0.233729
761.238	0.238413
761.552	0.248841
761.866	0.250120
762.180	0.239077
762.493	0.246737
762.807	0.252825
763.121	0.232160
763.435	0.239550
763.749	0.238551
764.062	0.245565
764.376	0.250100
764.689	0.242148
765.003	0.235386
765.316	0.238239
765.630	0.241639
765.943	0.236950
766.257	0.239654
766.570	0.242405
766.883	0.239514
767.196	0.236981
767.509	0.235562
767.822	0.229689
768.135	0.245699
768.448	0.245649
768.761	0.242972
769.074	0.231451
769.387	0.229725
769.700	0.233510
770.013	0.225484
770.325	0.229665
770.638	0.235521
770.950	0.227171
771.263	0.234330
771.575	0.234164
771.888	0.231165
772.200	0.238119
772.513	0.237276
772.825	0.235356
773.137	0.222721
773.449	0.231424
773.761	0.227068
774.074	0.221691
774.386	0.218216
774.698	0.219994
775.010	0.231118
775.321	0.235693
775.633	0.226960
775.945	0.234477
776.257	0.233643
776.568	0.226391
776.880	0.212704
777.192	0.215191
777.503	0.215225
777.815	0.233357
778.126	0.224204
778.438	0.227778
778.749	0.222422
779.060	0.222936
779.372	0.245419
779.683	0.233590
779.994	0.229235
780.305	0.225129
780.616	0.236836
780.927	0.223522
781.238	0.226345
781.549	0.222213
781.860	0.225027
782.171	0.228565
782.481	0.232023
782.792	0.225486
783.103	0.225240
783.413	0.223550
783.724	0.227679
784.034	0.217367
784.345	0.220915
784.655	0.220940
784.966	0.232979
785.276	0.242999
785.586	0.228568
785.896	0.226612
786.207	0.206740
786.517	0.206103
786.827	0.221416
787.137	0.215868
787.447	0.222489
787.757	0.210428
788.066	0.221634
788.376	0.231885
788.686	0.219639
788.996	0.228173
789.305	0.226590
789.615	0.221125
789.925	0.235900
790.234	0.224841
790.544	0.229133
790.853	0.218603
791.162	0.223788
791.472	0.234749
791.781	0.234897
792.090	0.230654
792.399	0.234930
792.708	0.212842
793.017	0.232748
793.326	0.223985
793.635	0.233447
793.944	0.230496
794.253	0.224091
794.562	0.225749
794.871	0.225509
795.179	0.235859
795.488	0.240606
795.797	0.223013
796.105	0.209869
796.414	0.220971
796.722	0.220843
797.031	0.206500
797.339	0.223237
797.647	0.216396
797.956	0.244353
798.264	0.204055
798.572	0.228968
798.880	0.206182
799.188	0.198315
799.496	0.211262
799.804	0.217218
800.112	0.225429
800.420	0.199203
800.728	0.221971
801.035	0.210834
801.343	0.216494
801.651	0.226606
801.958	0.235725
802.266	0.211025
802.573	0.220864
802.881	0.242858
803.188	0.217362
803.496	0.214525
803.803	0.222680
804.110	0.210154
804.417	0.225737
804.724	0.239087
805.032	0.218838
805.339	0.208162
805.646	0.221507
805.953	0.225385
806.259	0.214247
806.566	0.229394
806.873	0.214548
807.180	0.233675
807.486	0.208896
807.793	0.206138
808.100	0.225480
808.406	0.226031
808.713	0.209973
809.019	0.218806
809.326	0.212965
809.632	0.222288
809.938	0.212607
810.244	0.233233
810.551	0.242293
810.857	0.192036
811.163	0.204624
811.469	0.228408
811.775	0.221263
812.081	0.227823
812.387	0.200889
812.692	0.209026
812.998	0.216386
813.304	0.230055
813.610	0.210678
813.915	0.208780
814.221	0.226684
814.526	0.202127
814.832	0.238488
815.137	0.213822
815.443	0.211999
815.748	0.230067
816.053	0.198141
816.358	0.224600
816.664	0.229757
816.969	0.224376
817.274	0.202931
817.579	0.213053
817.884	0.232521
818.189	0.244386
818.493	0.212999
818.798	0.223629
819.103	0.240975
819.408	0.187422
819.712	0.205054
820.017	0.217268
820.321	0.191110
820.626	0.197596
820.930	0.225601
821.235	0.232550
821.539	0.232946
821.843	0.207608
822.148	0.218810
822.452	0.210188
822.756	0.225892
823.060	0.197793
823.364	0.209329
823.668	0.198458
823.972	0.206185
824.276	0.238950
824.580	0.191781
824.883	0.174325
825.187	0.171008
825.491	0.250291
825.795	0.225775
826.098	0.214411
826.402	0.224834
826.705	0.209221
827.008	0.207654
827.312	0.234478
827.615	0.220113
827.918	0.219039
828.222	0.196083
828.525	0.198774
828.828	0.234633
829.131	0.208635
829.434	0.185812
829.737	0.216508
830.040	0.232110
830.343	0.226634
830.645	0.195098
830.948	0.198391
831.251	0.217682
831.553	0.216189
831.856	0.222354
832.159	0.216199
832.461	0.176156
832.764	0.210549
833.066	0.207990
833.368	0.194455
833.671	0.190212
833.973	0.201413
834.275	0.244068
834.577	0.214199
834.879	0.172225
835.181	0.190300
835.483	0.210881
835.785	0.240090
836.087	0.184372
836.389	0.141887
836.690	0.182857
836.992	0.189214
837.294	0.248658
837.595	0.249657
837.897	0.201757
838.198	0.267843
838.500	0.194098
838.801	0.199329
839.103	0.214084
839.404	0.181689
839.705	0.233107
840.006	0.208891
840.307	0.204530
840.608	0.146183
840.910	0.277991
841.210	0.202911
841.511	0.213220
841.812	0.245488
842.113	0.214074
842.414	0.203113
842.715	0.202077
843.015	0.181324
843.316	0.176741
843.616	0.209910
843.917	0.242946
844.217	0.192760
844.518	0.172877
844.818	0.257457
845.118	0.173561
845.419	0.225533
845.719	0.244209
846.019	0.252238
846.319	0.255363
846.619	0.310790
846.919	0.135324
847.219	0.215628
847.519	0.234237
847.819	0.219401
848.118	0.261734
848.418	0.273513
848.718	0.205442
849.017	0.276245
849.317	0.136358
849.616	0.156846
849.916	0.292625
850.215	0.179037
850.515	0.201005
850.814	0.349563
851.113	0.233751
851.412	0.191768
851.712	0.242759
852.011	0.243605
852.310	0.164129
852.609	0.178773
852.908	0.199297
853.206	0.210887
853.505	0.201722
853.804	0.212380
854.103	0.178172
854.401	0.203018
854.700	0.183669
854.999	0.204663
855.297	0.157796
855.595	0.210205
855.894	0.199016
856.192	0.220125
856.491	0.198883
856.789	0.201034
857.087	0.233710
857.385	0.195118
857.683	0.184240
857.981	0.161715
858.279	0.184047
858.577	0.204636
858.875	0.246087
859.173	0.162642
859.471	0.173484
859.768	0.173106
860.066	0.201574
860.363	0.195918
860.661	0.225194
860.959	0.255919
861.256	0.230079
861.553	0.138720
861.851	0.138238
862.148	0.112273
862.445	0.182114
862.742	0.134104
863.039	0.262890
863.337	0.270468
863.634	0.192201
863.931	0.251175
864.227	0.201577
864.524	0.161029
864.821	0.141394
865.118	0.265735
865.415	0.216514
865.711	0.261594
866.008	0.217922
866.304	0.154463
866.601	0.121414
866.897	0.243338
867.194	0.255875
867.490	0.272587
867.786	0.192419
868.082	0.184879
868.379	0.301961
868.675	0.174642
868.971	0.167256
869.267	0.300856
869.563	0.336085
869.859	0.216634
870.154	0.250509
870.450	0.181100
870.746	0.230097
871.042	0.153429
871.337	0.159550
871.633	0.194446
871.928	0.155484
872.224	0.161452
872.519	0.222630
872.815	0.251343
873.110	0.296938
873.405	0.176476
873.700	0.253789
873.995	0.208393
874.291	0.187554
874.586	0.130781
874.881	0.175861
875.175	0.129597
875.470	0.203907
875.765	0.331258
876.060	0.271737
876.355	0.193589
876.649	0.325672
876.944	0.192414
877.238	0.229987
877.533	0.250946
877.827	0.201492
878.122	0.182547
878.416	0.117453
878.710	0.200460
879.005	0.134144
879.299	0.152920
879.593	0.130935
879.887	0.192098
880.181	0.157159
880.475	0.272626
880.769	0.244950
881.063	0.222534
881.356	0.222071
881.650	0.207866
881.944	0.221248
882.238	0.226249
882.531	0.209408
882.825	0.260227
883.118	0.209404
883.412	0.290949
883.705	0.290006
883.998	0.161714
884.291	0.104256
884.585	0.209351
884.878	0.209433
>>>>>>>>>> END of Data <<<<<<<<<<
