Date	2021年06月15日火曜日 12時02分17秒
Spectrometers	USB2+H05879
ダーク	使用
リファレンス	使用
積分時間[msec]	10
平均回数	280
ｽﾑｰｼﾞﾝｸﾞ	10
Electrical Dark	USE
ピクセル数	2048
計測モード	吸光度
保存開始波長[nm]	190.664
保存終了波長[nm]	884.878
保存ﾋﾟｯﾁ波長[nm]	全波長

>>>>>>>>>> Data Start <<<<<<<<<<<<
190.664	0.000000
191.040	0.000000
191.415	0.000000
191.791	-2.051709
192.166	-0.395102
192.542	-1.029607
192.917	0.000000
193.293	-0.076553
193.668	-0.514599
194.044	-0.790317
194.419	0.000000
194.794	-1.150338
195.170	-1.063190
195.545	-0.970471
195.920	-0.830540
196.296	-0.710740
196.671	-0.528045
197.046	-0.380609
197.421	-0.337196
197.796	-0.319544
198.171	-0.286009
198.546	-0.242440
198.922	-0.212996
199.297	-0.177840
199.672	-0.143492
200.047	-0.124658
200.422	-0.101750
200.796	-0.087692
201.171	-0.078520
201.546	-0.064703
201.921	-0.064377
202.296	-0.049610
202.671	-0.044193
203.045	-0.022898
203.420	-0.020010
203.795	-0.005944
204.170	0.006140
204.544	0.008036
204.919	0.006590
205.294	0.004456
205.668	0.012596
206.043	0.022283
206.417	0.014176
206.792	0.012012
207.166	0.005941
207.541	0.001479
207.915	0.005195
208.289	0.022511
208.664	0.028178
209.038	0.036688
209.412	0.038165
209.787	0.067345
210.161	0.071335
210.535	0.073119
210.909	0.068749
211.284	0.073804
211.658	0.059539
212.032	0.044788
212.406	0.039568
212.780	0.035491
213.154	0.032143
213.528	0.030147
213.902	0.029441
214.276	0.050885
214.650	0.065912
215.024	0.066221
215.398	0.066794
215.772	0.080043
216.145	0.068021
216.519	0.068680
216.893	0.066674
217.267	0.070313
217.640	0.063134
218.014	0.068438
218.388	0.072893
218.761	0.073222
219.135	0.088884
219.508	0.079178
219.882	0.078401
220.256	0.084164
220.629	0.106537
221.003	0.109065
221.376	0.118814
221.749	0.108660
222.123	0.104971
222.496	0.099598
222.869	0.101528
223.243	0.100791
223.616	0.086181
223.989	0.085844
224.362	0.085938
224.736	0.080605
225.109	0.073619
225.482	0.069215
225.855	0.064567
226.228	0.071021
226.601	0.075794
226.974	0.073785
227.347	0.089915
227.720	0.090656
228.093	0.089142
228.466	0.078479
228.839	0.084280
229.212	0.075270
229.585	0.081871
229.957	0.075485
230.330	0.072552
230.703	0.078043
231.076	0.080496
231.448	0.091261
231.821	0.090329
232.194	0.097299
232.566	0.105594
232.939	0.099029
233.311	0.092493
233.684	0.094630
234.056	0.085668
234.429	0.082208
234.801	0.063144
235.174	0.062354
235.546	0.070369
235.918	0.066142
236.291	0.066173
236.663	0.073573
237.035	0.072390
237.408	0.078035
237.780	0.094899
238.152	0.097009
238.524	0.084933
238.896	0.093583
239.268	0.082461
239.641	0.081583
240.013	0.085951
240.385	0.086628
240.757	0.095817
241.129	0.092214
241.500	0.088427
241.872	0.090804
242.244	0.090148
242.616	0.094235
242.988	0.095216
243.360	0.096248
243.731	0.116513
244.103	0.117197
244.475	0.114818
244.847	0.122232
245.218	0.122183
245.590	0.117180
245.961	0.124086
246.333	0.138528
246.705	0.127173
247.076	0.131009
247.448	0.128834
247.819	0.127434
248.190	0.131389
248.562	0.133922
248.933	0.142122
249.305	0.145463
249.676	0.148199
250.047	0.147500
250.418	0.151287
250.790	0.154442
251.161	0.158558
251.532	0.145656
251.903	0.153143
252.274	0.160823
252.645	0.166315
253.016	0.167144
253.387	0.157779
253.758	0.150269
254.129	0.133757
254.500	0.140069
254.871	0.144194
255.242	0.148834
255.613	0.144893
255.984	0.140705
256.355	0.147911
256.725	0.147967
257.096	0.150878
257.467	0.153524
257.838	0.157081
258.208	0.159666
258.579	0.151201
258.949	0.148118
259.320	0.146779
259.690	0.144431
260.061	0.140671
260.431	0.139227
260.802	0.138875
261.172	0.141287
261.543	0.147912
261.913	0.153598
262.283	0.149247
262.654	0.144376
263.024	0.134243
263.394	0.141554
263.764	0.147253
264.135	0.148911
264.505	0.143768
264.875	0.144126
265.245	0.144675
265.615	0.144179
265.985	0.148727
266.355	0.159733
266.725	0.157688
267.095	0.158372
267.465	0.147756
267.835	0.143345
268.205	0.141581
268.575	0.148708
268.944	0.154351
269.314	0.146055
269.684	0.152482
270.054	0.149873
270.423	0.157140
270.793	0.169215
271.163	0.164766
271.532	0.162110
271.902	0.156860
272.271	0.165107
272.641	0.171972
273.010	0.165528
273.380	0.160800
273.749	0.159037
274.119	0.158422
274.488	0.167253
274.857	0.177175
275.227	0.186617
275.596	0.190951
275.965	0.195871
276.335	0.184881
276.704	0.175411
277.073	0.179375
277.442	0.183797
277.811	0.192895
278.180	0.192833
278.549	0.191103
278.918	0.192423
279.287	0.187679
279.656	0.186005
280.025	0.179405
280.394	0.169219
280.763	0.169240
281.132	0.181865
281.501	0.188392
281.869	0.175361
282.238	0.163440
282.607	0.157895
282.976	0.160166
283.344	0.162206
283.713	0.157881
284.081	0.161141
284.450	0.169080
284.819	0.173178
285.187	0.168460
285.556	0.169293
285.924	0.167042
286.292	0.163897
286.661	0.163501
287.029	0.169897
287.398	0.178590
287.766	0.186563
288.134	0.187955
288.502	0.185418
288.871	0.185963
289.239	0.186104
289.607	0.194973
289.975	0.203687
290.343	0.209971
290.711	0.212134
291.079	0.206851
291.447	0.207928
291.815	0.207261
292.183	0.214156
292.551	0.217134
292.919	0.224682
293.287	0.216642
293.655	0.225717
294.022	0.227621
294.390	0.233596
294.758	0.237417
295.126	0.227187
295.493	0.227543
295.861	0.235614
296.229	0.241465
296.596	0.233474
296.964	0.227896
297.331	0.225174
297.699	0.231015
298.066	0.226821
298.434	0.224974
298.801	0.226618
299.168	0.227023
299.536	0.229025
299.903	0.221440
300.270	0.223502
300.638	0.225706
301.005	0.248188
301.372	0.254831
301.739	0.260165
302.106	0.263960
302.473	0.265023
302.840	0.278880
303.207	0.302455
303.574	0.317023
303.941	0.322257
304.308	0.330625
304.675	0.339768
305.042	0.366133
305.409	0.380787
305.776	0.390778
306.143	0.406918
306.509	0.430060
306.876	0.460212
307.243	0.484790
307.610	0.520844
307.976	0.541911
308.343	0.567519
308.709	0.587312
309.076	0.615247
309.442	0.645341
309.809	0.673638
310.175	0.705195
310.542	0.730022
310.908	0.745152
311.275	0.770752
311.641	0.809684
312.007	0.845816
312.373	0.876362
312.740	0.895923
313.106	0.921820
313.472	0.964261
313.838	0.997189
314.204	1.017079
314.570	1.031841
314.936	1.057509
315.302	1.073590
315.668	1.095893
316.034	1.120874
316.400	1.149176
316.766	1.163033
317.132	1.189102
317.498	1.212611
317.864	1.227804
318.230	1.245026
318.595	1.262987
318.961	1.271379
319.327	1.288440
319.692	1.298572
320.058	1.309514
320.424	1.324145
320.789	1.338687
321.155	1.345326
321.520	1.355991
321.886	1.372897
322.251	1.383412
322.616	1.388487
322.982	1.397124
323.347	1.402977
323.712	1.410792
324.078	1.412664
324.443	1.417804
324.808	1.419859
325.173	1.423261
325.539	1.431328
325.904	1.436280
326.269	1.440349
326.634	1.446908
326.999	1.447028
327.364	1.452278
327.729	1.459848
328.094	1.461959
328.459	1.463211
328.823	1.466551
329.188	1.469907
329.553	1.469395
329.918	1.474616
330.283	1.478766
330.647	1.483072
331.012	1.485565
331.377	1.488427
331.741	1.489441
332.106	1.492090
332.470	1.491318
332.835	1.492241
333.199	1.493143
333.564	1.495095
333.928	1.497029
334.293	1.497842
334.657	1.497857
335.021	1.498905
335.386	1.497705
335.750	1.497550
336.114	1.497634
336.478	1.496951
336.843	1.495590
337.207	1.496095
337.571	1.496732
337.935	1.496444
338.299	1.494758
338.663	1.494180
339.027	1.494470
339.391	1.494884
339.755	1.493932
340.119	1.493945
340.483	1.492186
340.846	1.491669
341.210	1.491883
341.574	1.491585
341.938	1.489986
342.301	1.491376
342.665	1.491132
343.029	1.490666
343.392	1.490497
343.756	1.490007
344.119	1.490326
344.483	1.490853
344.846	1.491154
345.210	1.490325
345.573	1.489289
345.937	1.489057
346.300	1.490376
346.663	1.489213
347.027	1.489562
347.390	1.489798
347.753	1.490010
348.116	1.491345
348.479	1.491874
348.843	1.490993
349.206	1.489803
349.569	1.489983
349.932	1.490242
350.295	1.489784
350.658	1.490124
351.021	1.492191
351.383	1.492710
351.746	1.491881
352.109	1.492458
352.472	1.492241
352.835	1.492639
353.197	1.494986
353.560	1.496557
353.923	1.494881
354.285	1.494757
354.648	1.494108
355.011	1.494222
355.373	1.495251
355.736	1.495237
356.098	1.495581
356.461	1.496757
356.823	1.497747
357.185	1.499351
357.548	1.499284
357.910	1.499749
358.272	1.499682
358.635	1.498295
358.997	1.498391
359.359	1.500262
359.721	1.499837
360.083	1.501613
360.445	1.502199
360.807	1.501768
361.169	1.501621
361.531	1.503311
361.893	1.504613
362.255	1.506303
362.617	1.507778
362.979	1.509092
363.341	1.509286
363.703	1.508810
364.064	1.509181
364.426	1.510069
364.788	1.510838
365.149	1.512047
365.511	1.512969
365.873	1.514551
366.234	1.516357
366.596	1.517635
366.957	1.518600
367.319	1.520749
367.680	1.520711
368.042	1.520422
368.403	1.521832
368.764	1.522953
369.126	1.523282
369.487	1.523794
369.848	1.523824
370.209	1.524030
370.570	1.524004
370.931	1.525283
371.293	1.526726
371.654	1.527521
372.015	1.529050
372.376	1.530607
372.737	1.531312
373.098	1.532354
373.458	1.533180
373.819	1.534246
374.180	1.535741
374.541	1.535919
374.902	1.536826
375.263	1.537898
375.623	1.539038
375.984	1.540301
376.345	1.540739
376.705	1.542710
377.066	1.544367
377.426	1.544915
377.787	1.545783
378.147	1.547009
378.508	1.547455
378.868	1.548668
379.228	1.549178
379.589	1.549213
379.949	1.549786
380.309	1.550901
380.670	1.551491
381.030	1.551852
381.390	1.552414
381.750	1.551607
382.110	1.552005
382.470	1.551853
382.830	1.552708
383.190	1.554625
383.550	1.554520
383.910	1.555101
384.270	1.555567
384.630	1.555943
384.990	1.557389
385.350	1.557995
385.709	1.558172
386.069	1.559503
386.429	1.559132
386.788	1.561148
387.148	1.562313
387.508	1.562970
387.867	1.563806
388.227	1.564665
388.586	1.564920
388.946	1.566131
389.305	1.567310
389.665	1.568405
390.024	1.569545
390.383	1.569867
390.743	1.570075
391.102	1.570560
391.461	1.571515
391.820	1.572445
392.179	1.572223
392.539	1.572769
392.898	1.574147
393.257	1.574831
393.616	1.576095
393.975	1.576760
394.334	1.577231
394.693	1.577406
395.051	1.577386
395.410	1.577378
395.769	1.578406
396.128	1.579715
396.487	1.579971
396.845	1.580603
397.204	1.580517
397.563	1.579907
397.921	1.580064
398.280	1.579353
398.638	1.578815
398.997	1.578848
399.355	1.577975
399.714	1.577981
400.072	1.576828
400.431	1.575659
400.789	1.575687
401.147	1.574229
401.506	1.573705
401.864	1.572524
402.222	1.572380
402.580	1.570633
402.938	1.569677
403.297	1.567928
403.655	1.567039
404.013	1.566192
404.371	1.565547
404.729	1.564538
405.087	1.563709
405.444	1.563202
405.802	1.562524
406.160	1.562359
406.518	1.561528
406.876	1.560819
407.233	1.560315
407.591	1.560122
407.949	1.560279
408.306	1.559018
408.664	1.558938
409.022	1.559245
409.379	1.558487
409.737	1.557676
410.094	1.556896
410.451	1.556538
410.809	1.556324
411.166	1.555093
411.523	1.553800
411.881	1.553260
412.238	1.552799
412.595	1.551468
412.952	1.550869
413.310	1.550184
413.667	1.549457
414.024	1.549009
414.381	1.547791
414.738	1.546657
415.095	1.545329
415.452	1.543898
415.809	1.543446
416.165	1.542148
416.522	1.539940
416.879	1.538434
417.236	1.536765
417.593	1.536367
417.949	1.535077
418.306	1.533718
418.663	1.534042
419.019	1.532580
419.376	1.530755
419.732	1.528683
420.089	1.528064
420.445	1.526341
420.802	1.525434
421.158	1.523746
421.514	1.522183
421.871	1.521129
422.227	1.519280
422.583	1.518283
422.939	1.516235
423.295	1.513926
423.652	1.512121
424.008	1.510722
424.364	1.509246
424.720	1.507593
425.076	1.505979
425.432	1.504100
425.788	1.502611
426.143	1.499866
426.499	1.497996
426.855	1.496327
427.211	1.494781
427.567	1.492862
427.922	1.491207
428.278	1.488377
428.634	1.486679
428.989	1.484336
429.345	1.481865
429.700	1.480184
430.056	1.478415
430.411	1.476994
430.767	1.475622
431.122	1.473525
431.478	1.470980
431.833	1.468973
432.188	1.466587
432.543	1.464223
432.899	1.461886
433.254	1.458723
433.609	1.455821
433.964	1.453376
434.319	1.450636
434.674	1.447745
435.029	1.445397
435.384	1.442405
435.739	1.440166
436.094	1.437809
436.449	1.435554
436.804	1.433498
437.158	1.430775
437.513	1.428204
437.868	1.424862
438.223	1.422073
438.577	1.418730
438.932	1.416958
439.287	1.413810
439.641	1.411134
439.996	1.408090
440.350	1.404776
440.704	1.402331
441.059	1.399567
441.413	1.396696
441.768	1.393448
442.122	1.390896
442.476	1.387497
442.830	1.384402
443.185	1.381172
443.539	1.377848
443.893	1.374395
444.247	1.370778
444.601	1.367768
444.955	1.364035
445.309	1.360964
445.663	1.357203
446.017	1.353957
446.371	1.349508
446.724	1.345809
447.078	1.342014
447.432	1.338430
447.786	1.334976
448.139	1.330548
448.493	1.326853
448.847	1.322967
449.200	1.319484
449.554	1.315583
449.907	1.311994
450.261	1.307787
450.614	1.304076
450.968	1.299951
451.321	1.295923
451.674	1.292085
452.027	1.287788
452.381	1.283772
452.734	1.279697
453.087	1.275449
453.440	1.271148
453.793	1.267525
454.146	1.263608
454.499	1.259832
454.852	1.255578
455.205	1.251284
455.558	1.247776
455.911	1.243729
456.264	1.239499
456.617	1.235309
456.970	1.231518
457.322	1.227741
457.675	1.224452
458.028	1.220805
458.380	1.217495
458.733	1.214184
459.086	1.210857
459.438	1.207459
459.791	1.203721
460.143	1.200088
460.496	1.196694
460.848	1.193272
461.200	1.189713
461.553	1.185741
461.905	1.182249
462.257	1.178555
462.609	1.174842
462.961	1.171275
463.314	1.167460
463.666	1.163895
464.018	1.160442
464.370	1.157091
464.722	1.153694
465.074	1.149960
465.426	1.146884
465.777	1.143620
466.129	1.140145
466.481	1.136744
466.833	1.133555
467.184	1.130652
467.536	1.127144
467.888	1.123924
468.239	1.120529
468.591	1.116518
468.943	1.112695
469.294	1.108495
469.646	1.104892
469.997	1.101231
470.348	1.097636
470.700	1.094340
471.051	1.090981
471.402	1.087409
471.754	1.084058
472.105	1.080758
472.456	1.077768
472.807	1.074498
473.158	1.071509
473.509	1.068784
473.860	1.066067
474.211	1.063374
474.562	1.060628
474.913	1.058104
475.264	1.055370
475.615	1.052532
475.966	1.050063
476.316	1.047500
476.667	1.044823
477.018	1.042219
477.368	1.039291
477.719	1.036271
478.070	1.033633
478.420	1.030961
478.771	1.028391
479.121	1.025677
479.472	1.023057
479.822	1.020308
480.172	1.017764
480.523	1.015208
480.873	1.012792
481.223	1.010231
481.573	1.007289
481.924	1.003888
482.274	1.000508
482.624	0.997246
482.974	0.994314
483.324	0.991360
483.674	0.988866
484.024	0.986796
484.374	0.984945
484.724	0.983298
485.073	0.981739
485.423	0.979986
485.773	0.978267
486.123	0.976643
486.472	0.974848
486.822	0.973117
487.172	0.971504
487.521	0.969693
487.871	0.967853
488.220	0.965805
488.570	0.963418
488.919	0.960720
489.268	0.957876
489.618	0.954856
489.967	0.951442
490.316	0.947797
490.666	0.944379
491.015	0.941068
491.364	0.937836
491.713	0.934627
492.062	0.931744
492.411	0.928859
492.760	0.926138
493.109	0.923405
493.458	0.920666
493.807	0.918117
494.156	0.915371
494.505	0.912595
494.853	0.909987
495.202	0.907229
495.551	0.904450
495.900	0.901728
496.248	0.899062
496.597	0.896269
496.945	0.893648
497.294	0.891147
497.642	0.888586
497.991	0.886014
498.339	0.883384
498.688	0.880853
499.036	0.878400
499.384	0.875827
499.732	0.873255
500.081	0.870639
500.429	0.868154
500.777	0.865611
501.125	0.863218
501.473	0.860878
501.821	0.858589
502.169	0.856261
502.517	0.853948
502.865	0.851623
503.213	0.849261
503.561	0.846934
503.908	0.844809
504.256	0.842492
504.604	0.840114
504.952	0.837787
505.299	0.835559
505.647	0.833286
505.994	0.830981
506.342	0.828570
506.689	0.826295
507.037	0.824117
507.384	0.821907
507.732	0.819655
508.079	0.817450
508.426	0.815231
508.774	0.812967
509.121	0.810813
509.468	0.808745
509.815	0.806778
510.162	0.804722
510.509	0.802654
510.856	0.800637
511.203	0.798616
511.550	0.796512
511.897	0.794575
512.244	0.792642
512.591	0.790473
512.938	0.788506
513.284	0.786541
513.631	0.784634
513.978	0.782727
514.324	0.780794
514.671	0.778870
515.018	0.777023
515.364	0.775116
515.711	0.773246
516.057	0.771371
516.403	0.769417
516.750	0.767485
517.096	0.765522
517.443	0.763623
517.789	0.761887
518.135	0.760110
518.481	0.758248
518.827	0.756431
519.173	0.754611
519.519	0.752766
519.865	0.751063
520.211	0.749339
520.557	0.747543
520.903	0.745688
521.249	0.743827
521.595	0.741903
521.941	0.740059
522.287	0.738055
522.632	0.736145
522.978	0.734217
523.324	0.732352
523.669	0.730549
524.015	0.728601
524.360	0.726647
524.706	0.724825
525.051	0.722903
525.397	0.720927
525.742	0.719090
526.087	0.717325
526.433	0.715419
526.778	0.713587
527.123	0.711789
527.468	0.709948
527.813	0.708219
528.158	0.706483
528.504	0.704746
528.849	0.702882
529.193	0.700972
529.538	0.699122
529.883	0.697078
530.228	0.694929
530.573	0.692981
530.918	0.690915
531.263	0.688874
531.607	0.686843
531.952	0.684779
532.296	0.682753
532.641	0.680755
532.986	0.678719
533.330	0.676753
533.675	0.674884
534.019	0.672886
534.363	0.670802
534.708	0.668645
535.052	0.666511
535.396	0.664419
535.741	0.662318
536.085	0.660076
536.429	0.657872
536.773	0.655646
537.117	0.653474
537.461	0.651188
537.805	0.648663
538.149	0.646069
538.493	0.643583
538.837	0.641152
539.181	0.638644
539.524	0.636116
539.868	0.633664
540.212	0.631169
540.556	0.628554
540.899	0.625933
541.243	0.623306
541.586	0.620605
541.930	0.618038
542.273	0.615371
542.617	0.612669
542.960	0.609850
543.304	0.607133
543.647	0.604235
543.990	0.601269
544.333	0.598272
544.677	0.595358
545.020	0.592458
545.363	0.589560
545.706	0.586550
546.049	0.583544
546.392	0.580586
546.735	0.577704
547.078	0.574704
547.421	0.571627
547.764	0.568519
548.106	0.565252
548.449	0.561921
548.792	0.558693
549.135	0.555378
549.477	0.552012
549.820	0.548661
550.162	0.545360
550.505	0.541982
550.847	0.538655
551.190	0.535104
551.532	0.531498
551.875	0.527719
552.217	0.523935
552.559	0.520248
552.901	0.516569
553.244	0.512909
553.586	0.509313
553.928	0.505751
554.270	0.502267
554.612	0.498872
554.954	0.495447
555.296	0.491976
555.638	0.488510
555.980	0.484847
556.322	0.480953
556.663	0.477041
557.005	0.472999
557.347	0.468916
557.689	0.464894
558.030	0.460901
558.372	0.456951
558.713	0.453027
559.055	0.449170
559.396	0.445269
559.738	0.441315
560.079	0.437385
560.421	0.433529
560.762	0.429721
561.103	0.425905
561.444	0.422141
561.786	0.418450
562.127	0.414811
562.468	0.411170
562.809	0.407455
563.150	0.403654
563.491	0.399803
563.832	0.395809
564.173	0.391776
564.514	0.387638
564.855	0.383467
565.195	0.379219
565.536	0.374909
565.877	0.370626
566.218	0.366426
566.558	0.362277
566.899	0.358242
567.239	0.354358
567.580	0.350641
567.920	0.347134
568.261	0.343906
568.601	0.340920
568.941	0.338039
569.282	0.335293
569.622	0.332644
569.962	0.330066
570.302	0.327463
570.643	0.324833
570.983	0.322237
571.323	0.319737
571.663	0.317324
572.003	0.314950
572.343	0.312559
572.683	0.310172
573.022	0.307804
573.362	0.305327
573.702	0.302721
574.042	0.300070
574.381	0.297477
574.721	0.294970
575.061	0.292528
575.400	0.290192
575.740	0.287927
576.079	0.285731
576.419	0.283612
576.758	0.281450
577.097	0.279160
577.437	0.276688
577.776	0.274151
578.115	0.271637
578.454	0.269175
578.794	0.266779
579.133	0.264580
579.472	0.262622
579.811	0.260827
580.150	0.259083
580.489	0.257358
580.828	0.255634
581.167	0.253870
581.505	0.252048
581.844	0.250200
582.183	0.248337
582.522	0.246510
582.860	0.244740
583.199	0.243010
583.538	0.241243
583.876	0.239475
584.215	0.237673
584.553	0.235902
584.891	0.234184
585.230	0.232465
585.568	0.230749
585.906	0.229134
586.245	0.227567
586.583	0.226042
586.921	0.224608
587.259	0.223147
587.597	0.221713
587.935	0.220275
588.273	0.218812
588.611	0.217235
588.949	0.215577
589.287	0.213880
589.625	0.212184
589.963	0.210444
590.300	0.208776
590.638	0.207131
590.976	0.205476
591.313	0.203854
591.651	0.202291
591.989	0.200787
592.326	0.199330
592.664	0.197978
593.001	0.196688
593.338	0.195496
593.676	0.194405
594.013	0.193408
594.350	0.192455
594.687	0.191448
595.025	0.190394
595.362	0.189285
595.699	0.188158
596.036	0.187016
596.373	0.185852
596.710	0.184662
597.047	0.183530
597.384	0.182390
597.720	0.181296
598.057	0.180230
598.394	0.179209
598.731	0.178195
599.067	0.177169
599.404	0.176161
599.741	0.175163
600.077	0.174180
600.414	0.173285
600.750	0.172393
601.087	0.171446
601.423	0.170512
601.759	0.169643
602.096	0.168769
602.432	0.167931
602.768	0.167059
603.104	0.166177
603.440	0.165331
603.776	0.164540
604.112	0.163736
604.448	0.162946
604.784	0.162190
605.120	0.161476
605.456	0.160767
605.792	0.160034
606.128	0.159319
606.463	0.158624
606.799	0.157950
607.135	0.157277
607.470	0.156524
607.806	0.155784
608.142	0.155068
608.477	0.154385
608.812	0.153679
609.148	0.152979
609.483	0.152280
609.819	0.151616
610.154	0.150951
610.489	0.150307
610.824	0.149679
611.159	0.149043
611.494	0.148373
611.830	0.147752
612.165	0.147138
612.500	0.146535
612.834	0.145989
613.169	0.145433
613.504	0.144867
613.839	0.144269
614.174	0.143728
614.509	0.143193
614.843	0.142657
615.178	0.142151
615.512	0.141677
615.847	0.141172
616.182	0.140693
616.516	0.140184
616.850	0.139688
617.185	0.139228
617.519	0.138738
617.853	0.138244
618.188	0.137735
618.522	0.137333
618.856	0.136885
619.190	0.136361
619.524	0.135807
619.858	0.135302
620.192	0.134787
620.526	0.134239
620.860	0.133762
621.194	0.133287
621.528	0.132868
621.862	0.132438
622.195	0.131981
622.529	0.131528
622.863	0.131123
623.196	0.130677
623.530	0.130288
623.864	0.129840
624.197	0.129440
624.530	0.129087
624.864	0.128689
625.197	0.128308
625.531	0.127866
625.864	0.127484
626.197	0.127041
626.530	0.126672
626.863	0.126178
627.196	0.125716
627.529	0.125325
627.862	0.124904
628.195	0.124433
628.528	0.123979
628.861	0.123559
629.194	0.123168
629.527	0.122701
629.860	0.122277
630.192	0.121844
630.525	0.121424
630.858	0.121073
631.190	0.120666
631.523	0.120240
631.855	0.119806
632.188	0.119418
632.520	0.118978
632.852	0.118417
633.185	0.118040
633.517	0.117617
633.849	0.117272
634.182	0.116989
634.514	0.116711
634.846	0.116505
635.178	0.116230
635.510	0.115995
635.842	0.115735
636.174	0.115439
636.506	0.115130
636.837	0.114820
637.169	0.114604
637.501	0.114224
637.833	0.113944
638.164	0.113614
638.496	0.113226
638.828	0.112823
639.159	0.112362
639.491	0.112006
639.822	0.111688
640.154	0.111246
640.485	0.110769
640.816	0.110364
641.147	0.109890
641.479	0.109413
641.810	0.108872
642.141	0.108431
642.472	0.107961
642.803	0.107530
643.134	0.107144
643.465	0.106800
643.796	0.106501
644.127	0.106137
644.458	0.106044
644.789	0.105726
645.119	0.105493
645.450	0.105272
645.781	0.105080
646.111	0.105012
646.442	0.104873
646.773	0.104647
647.103	0.104526
647.433	0.104455
647.764	0.104314
648.094	0.104245
648.425	0.104175
648.755	0.104066
649.085	0.103891
649.415	0.103667
649.745	0.103525
650.075	0.103418
650.405	0.103382
650.735	0.104365
651.065	0.110758
651.395	0.110800
651.725	0.095795
652.055	0.067003
652.385	0.050728
652.715	0.040252
653.044	0.032939
653.374	0.027568
653.704	0.023468
654.033	0.025594
654.363	0.029850
654.692	0.032302
655.022	0.033919
655.351	0.035022
655.680	0.035745
656.010	0.036169
656.339	0.036372
656.668	0.036433
656.997	0.036410
657.326	0.036346
657.655	0.036089
657.984	0.034353
658.313	0.030169
658.642	0.026350
658.971	0.030203
659.300	0.035111
659.629	0.041575
659.958	0.050455
660.286	0.063438
660.615	0.084240
660.944	0.099298
661.272	0.100235
661.601	0.101922
661.929	0.102128
662.258	0.101101
662.586	0.099176
662.915	0.097246
663.243	0.095729
663.571	0.094670
663.899	0.094034
664.228	0.093393
664.556	0.093072
664.884	0.092854
665.212	0.092565
665.540	0.092352
665.868	0.092254
666.196	0.092037
666.524	0.091760
666.852	0.091656
667.179	0.091538
667.507	0.091470
667.835	0.091364
668.162	0.091249
668.490	0.091081
668.818	0.090984
669.145	0.090700
669.473	0.090532
669.800	0.090398
670.127	0.090179
670.455	0.089963
670.782	0.089918
671.109	0.089813
671.436	0.089696
671.764	0.089616
672.091	0.089540
672.418	0.089475
672.745	0.089379
673.072	0.089422
673.399	0.089396
673.726	0.089250
674.053	0.089032
674.379	0.088857
674.706	0.088675
675.033	0.088452
675.359	0.088268
675.686	0.088141
676.013	0.087943
676.339	0.087781
676.666	0.087537
676.992	0.087475
677.318	0.087336
677.645	0.087085
677.971	0.086853
678.297	0.086623
678.624	0.086468
678.950	0.086306
679.276	0.086065
679.602	0.085877
679.928	0.085632
680.254	0.085477
680.580	0.085356
680.906	0.085276
681.232	0.085014
681.558	0.084855
681.883	0.084676
682.209	0.084459
682.535	0.084223
682.860	0.084145
683.186	0.083896
683.511	0.083707
683.837	0.083428
684.162	0.083327
684.488	0.083221
684.813	0.083141
685.138	0.082972
685.464	0.082783
685.789	0.082566
686.114	0.082425
686.439	0.082313
686.764	0.082157
687.089	0.081976
687.414	0.081774
687.739	0.081601
688.064	0.081474
688.389	0.081272
688.714	0.081129
689.039	0.080893
689.363	0.080674
689.688	0.080414
690.013	0.080252
690.337	0.080142
690.662	0.080091
690.986	0.079931
691.311	0.079722
691.635	0.079536
691.959	0.079365
692.284	0.079220
692.608	0.079112
692.932	0.078976
693.256	0.078839
693.580	0.078734
693.904	0.078614
694.228	0.078542
694.552	0.078342
694.876	0.078076
695.200	0.077816
695.524	0.077511
695.848	0.077328
696.172	0.077140
696.495	0.076899
696.819	0.076840
697.143	0.076555
697.466	0.076360
697.790	0.076179
698.113	0.076074
698.437	0.075881
698.760	0.075699
699.083	0.075486
699.407	0.075318
699.730	0.075168
700.053	0.074917
700.376	0.074615
700.699	0.074227
701.022	0.073828
701.345	0.073532
701.668	0.073417
701.991	0.073371
702.314	0.073269
702.637	0.073312
702.960	0.073226
703.283	0.073156
703.605	0.072883
703.928	0.072710
704.251	0.072527
704.573	0.072288
704.896	0.072065
705.218	0.071913
705.540	0.071815
705.863	0.071773
706.185	0.071678
706.507	0.071515
706.830	0.071371
707.152	0.071222
707.474	0.071051
707.796	0.070895
708.118	0.070752
708.440	0.070525
708.762	0.070345
709.084	0.070120
709.406	0.069792
709.728	0.069583
710.049	0.069328
710.371	0.069068
710.693	0.068809
711.014	0.068435
711.336	0.068188
711.658	0.067932
711.979	0.067694
712.301	0.067345
712.622	0.066971
712.943	0.066555
713.265	0.066259
713.586	0.066004
713.907	0.065773
714.228	0.065680
714.549	0.065523
714.870	0.065413
715.191	0.065240
715.512	0.064899
715.833	0.064666
716.154	0.064415
716.475	0.064113
716.796	0.063826
717.117	0.063557
717.437	0.063279
717.758	0.063087
718.078	0.062786
718.399	0.062497
718.719	0.062193
719.040	0.062055
719.360	0.061817
719.681	0.061643
720.001	0.061473
720.321	0.061312
720.642	0.061175
720.962	0.060905
721.282	0.060680
721.602	0.060405
721.922	0.060216
722.242	0.060031
722.562	0.059748
722.882	0.059510
723.202	0.059310
723.521	0.059138
723.841	0.058976
724.161	0.058806
724.481	0.058684
724.800	0.058606
725.120	0.058514
725.439	0.058406
725.759	0.058220
726.078	0.058157
726.398	0.058083
726.717	0.057995
727.036	0.057856
727.355	0.057707
727.675	0.057604
727.994	0.057501
728.313	0.057391
728.632	0.057221
728.951	0.057056
729.270	0.056993
729.589	0.056891
729.908	0.056723
730.226	0.056516
730.545	0.056227
730.864	0.056068
731.182	0.055818
731.501	0.055543
731.820	0.055288
732.138	0.055083
732.457	0.054892
732.775	0.054682
733.093	0.054498
733.412	0.054279
733.730	0.054051
734.048	0.053791
734.367	0.053540
734.685	0.053285
735.003	0.053015
735.321	0.052816
735.639	0.052596
735.957	0.052389
736.275	0.052121
736.593	0.051898
736.910	0.051649
737.228	0.051506
737.546	0.051262
737.863	0.051099
738.181	0.050932
738.499	0.050702
738.816	0.050484
739.134	0.050292
739.451	0.050065
739.768	0.049873
740.086	0.049631
740.403	0.049347
740.720	0.049148
741.038	0.048980
741.355	0.048749
741.672	0.048476
741.989	0.048180
742.306	0.047909
742.623	0.047561
742.940	0.047299
743.257	0.046956
743.573	0.046764
743.890	0.046474
744.207	0.046228
744.523	0.046008
744.840	0.045684
745.157	0.045529
745.473	0.045370
745.790	0.045242
746.106	0.045108
746.422	0.044872
746.739	0.044708
747.055	0.044621
747.371	0.044473
747.687	0.044259
748.004	0.044045
748.320	0.043932
748.636	0.043845
748.952	0.043818
749.268	0.043889
749.584	0.043844
749.899	0.043846
750.215	0.043825
750.531	0.043801
750.847	0.043853
751.162	0.043785
751.478	0.043830
751.793	0.043785
752.109	0.043773
752.424	0.043684
752.740	0.043628
753.055	0.043737
753.370	0.043859
753.686	0.043949
754.001	0.043972
754.316	0.044032
754.631	0.044121
754.946	0.044133
755.261	0.044121
755.576	0.043993
755.891	0.043851
756.206	0.043781
756.521	0.043717
756.836	0.043673
757.150	0.043597
757.465	0.043417
757.780	0.043323
758.094	0.043244
758.409	0.043186
758.723	0.043073
759.038	0.043012
759.352	0.042948
759.667	0.042825
759.981	0.042717
760.295	0.042589
760.609	0.042535
760.923	0.042431
761.238	0.042248
761.552	0.042077
761.866	0.041915
762.180	0.041787
762.493	0.041597
762.807	0.041357
763.121	0.041114
763.435	0.040929
763.749	0.040759
764.062	0.040743
764.376	0.040747
764.689	0.040718
765.003	0.040697
765.316	0.040733
765.630	0.040791
765.943	0.040721
766.257	0.040579
766.570	0.040371
766.883	0.040155
767.196	0.039828
767.509	0.039502
767.822	0.039267
768.135	0.039021
768.448	0.038830
768.761	0.038581
769.074	0.038426
769.387	0.038337
769.700	0.038255
770.013	0.038108
770.325	0.037976
770.638	0.037783
770.950	0.037487
771.263	0.037174
771.575	0.036866
771.888	0.036447
772.200	0.036030
772.513	0.035666
772.825	0.035375
773.137	0.035060
773.449	0.034819
773.761	0.034663
774.074	0.034614
774.386	0.034569
774.698	0.034620
775.010	0.034509
775.321	0.034649
775.633	0.034631
775.945	0.034613
776.257	0.034669
776.568	0.034790
776.880	0.034952
777.192	0.034957
777.503	0.034951
777.815	0.035046
778.126	0.035161
778.438	0.035342
778.749	0.035369
779.060	0.035331
779.372	0.035273
779.683	0.035270
779.994	0.035171
780.305	0.035056
780.616	0.034911
780.927	0.034865
781.238	0.034675
781.549	0.034571
781.860	0.034414
782.171	0.034437
782.481	0.034491
782.792	0.034398
783.103	0.034235
783.413	0.034124
783.724	0.034027
784.034	0.034034
784.345	0.033981
784.655	0.033930
784.966	0.033734
785.276	0.033599
785.586	0.033611
785.896	0.033564
786.207	0.033482
786.517	0.033508
786.827	0.033583
787.137	0.033651
787.447	0.033548
787.757	0.033602
788.066	0.033634
788.376	0.033731
788.686	0.033638
788.996	0.033593
789.305	0.033619
789.615	0.033807
789.925	0.033871
790.234	0.033997
790.544	0.034100
790.853	0.034124
791.162	0.034013
791.472	0.034025
791.781	0.033957
792.090	0.033799
792.399	0.033645
792.708	0.033486
793.017	0.033322
793.326	0.033128
793.635	0.033042
793.944	0.032998
794.253	0.032900
794.562	0.032831
794.871	0.032765
795.179	0.032721
795.488	0.032629
795.797	0.032582
796.105	0.032267
796.414	0.032066
796.722	0.031810
797.031	0.031526
797.339	0.031232
797.647	0.030975
797.956	0.030780
798.264	0.030604
798.572	0.030627
798.880	0.030737
799.188	0.030763
799.496	0.030840
799.804	0.030843
800.112	0.030775
800.420	0.030713
800.728	0.030628
801.035	0.030487
801.343	0.030211
801.651	0.030121
801.958	0.030106
802.266	0.030060
802.573	0.030139
802.881	0.030291
803.188	0.030272
803.496	0.030336
803.803	0.030361
804.110	0.030517
804.417	0.030432
804.724	0.030367
805.032	0.030207
805.339	0.029983
805.646	0.029843
805.953	0.029650
806.259	0.029627
806.566	0.029485
806.873	0.029328
807.180	0.029246
807.486	0.029245
807.793	0.029234
808.100	0.029068
808.406	0.028797
808.713	0.028565
809.019	0.028187
809.326	0.027814
809.632	0.027715
809.938	0.027348
810.244	0.027125
810.551	0.026658
810.857	0.026364
811.163	0.026141
811.469	0.025855
811.775	0.025684
812.081	0.025501
812.387	0.025471
812.692	0.025346
812.998	0.025431
813.304	0.025410
813.610	0.025494
813.915	0.025448
814.221	0.025418
814.526	0.025436
814.832	0.025462
815.137	0.025402
815.443	0.025352
815.748	0.025230
816.053	0.025069
816.358	0.024978
816.664	0.025055
816.969	0.025101
817.274	0.025245
817.579	0.025346
817.884	0.025493
818.189	0.025547
818.493	0.025552
818.798	0.025504
819.103	0.025361
819.408	0.025012
819.712	0.024985
820.017	0.024715
820.321	0.024635
820.626	0.024750
820.930	0.024552
821.235	0.024563
821.539	0.024533
821.843	0.024583
822.148	0.024405
822.452	0.024277
822.756	0.024394
823.060	0.024007
823.364	0.024044
823.668	0.023858
823.972	0.023958
824.276	0.023983
824.580	0.024035
824.883	0.024265
825.187	0.024102
825.491	0.024104
825.795	0.024221
826.098	0.024113
826.402	0.024013
826.705	0.023774
827.008	0.023211
827.312	0.023027
827.615	0.022569
827.918	0.022122
828.222	0.021777
828.525	0.021510
828.828	0.021533
829.131	0.021349
829.434	0.021253
829.737	0.020882
830.040	0.020876
830.343	0.020515
830.645	0.020403
830.948	0.020187
831.251	0.020185
831.553	0.020192
831.856	0.020097
832.159	0.019915
832.461	0.019563
832.764	0.019381
833.066	0.019120
833.368	0.019214
833.671	0.019204
833.973	0.019161
834.275	0.019155
834.577	0.019066
834.879	0.019385
835.181	0.018966
835.483	0.018344
835.785	0.018108
836.087	0.017832
836.389	0.017688
836.690	0.017127
836.992	0.016410
837.294	0.015851
837.595	0.014826
837.897	0.014047
838.198	0.013555
838.500	0.012956
838.801	0.012902
839.103	0.012782
839.404	0.012978
839.705	0.012669
840.006	0.012750
840.307	0.013112
840.608	0.013319
840.910	0.013680
841.210	0.013564
841.511	0.013550
841.812	0.013501
842.113	0.013510
842.414	0.013001
842.715	0.012336
843.015	0.011866
843.316	0.011442
843.616	0.011135
843.917	0.011282
844.217	0.010996
844.518	0.010913
844.818	0.010990
845.118	0.011230
845.419	0.011535
845.719	0.011159
846.019	0.011222
846.319	0.011159
846.619	0.010347
846.919	0.010295
847.219	0.010023
847.519	0.009771
847.819	0.010196
848.118	0.010035
848.418	0.010197
848.718	0.010919
849.017	0.011483
849.317	0.012181
849.616	0.012382
849.916	0.013037
850.215	0.012954
850.515	0.013249
850.814	0.012230
851.113	0.011671
851.412	0.011043
851.712	0.010515
852.011	0.010033
852.310	0.009978
852.609	0.009564
852.908	0.009578
853.206	0.009361
853.505	0.009424
853.804	0.009132
854.103	0.008862
854.401	0.008760
854.700	0.008508
854.999	0.008140
855.297	0.007621
855.595	0.007265
855.894	0.006887
856.192	0.006181
856.491	0.005656
856.789	0.005037
857.087	0.005177
857.385	0.004926
857.683	0.004863
857.981	0.004703
858.279	0.005009
858.577	0.004504
858.875	0.004502
859.173	0.004561
859.471	0.004960
859.768	0.004874
860.066	0.004997
860.363	0.004684
860.661	0.004379
860.959	0.004182
861.256	0.003970
861.553	0.003998
861.851	0.003136
862.148	0.002766
862.445	0.002361
862.742	0.002231
863.039	0.001958
863.337	0.001917
863.634	0.002208
863.931	0.002268
864.227	0.002090
864.524	0.001452
864.821	0.001728
865.118	0.001012
865.415	0.000404
865.711	-0.000597
866.008	-0.001743
866.304	-0.001981
866.601	-0.002391
866.897	-0.002754
867.194	-0.002675
867.490	-0.002885
867.786	-0.003341
868.082	-0.002938
868.379	-0.003689
868.675	-0.003680
868.971	-0.004424
869.267	-0.004119
869.563	-0.003927
869.859	-0.004433
870.154	-0.005179
870.450	-0.004887
870.746	-0.004632
871.042	-0.004251
871.337	-0.003875
871.633	-0.004192
871.928	-0.003821
872.224	-0.003958
872.519	-0.004695
872.815	-0.004626
873.110	-0.003799
873.405	-0.004134
873.700	-0.004322
873.995	-0.003980
874.291	-0.004086
874.586	-0.002705
874.881	-0.002345
875.175	-0.001334
875.470	-0.001729
875.765	-0.002179
876.060	-0.002082
876.355	-0.001818
876.649	-0.002252
876.944	-0.002165
877.238	-0.002791
877.533	-0.003049
877.827	-0.002909
878.122	-0.003635
878.416	-0.003586
878.710	-0.002963
879.005	-0.003429
879.299	-0.004076
879.593	-0.004313
879.887	-0.004292
880.181	-0.004858
880.475	-0.004518
880.769	-0.004871
881.063	-0.004905
881.356	-0.005145
881.650	-0.005032
881.944	-0.005111
882.238	-0.014217
882.531	-0.009686
882.825	-0.010187
883.118	-0.012517
883.412	0.000178
883.705	-0.001726
883.998	0.002101
884.291	0.002174
884.585	-0.002718
884.878	-0.004588
>>>>>>>>>> END of Data <<<<<<<<<<
>>>>>>>>>> Raw Data Start <<<<<<<<
190.664	-177
191.040	3
191.415	3
191.791	2
192.166	5
192.542	13
192.917	6
193.293	3
193.668	7
194.044	5
194.419	-3
194.794	6
195.170	6
195.545	6
195.920	6
196.296	6
196.671	6
197.046	6
197.421	7
197.796	7
198.171	7
198.546	7
198.922	8
199.297	8
199.672	8
200.047	8
200.422	8
200.796	8
201.171	8
201.546	8
201.921	8
202.296	8
202.671	9
203.045	9
203.420	9
203.795	9
204.170	9
204.544	9
204.919	9
205.294	9
205.668	10
206.043	9
206.417	9
206.792	10
207.166	10
207.541	10
207.915	9
208.289	9
208.664	9
209.038	9
209.412	9
209.787	9
210.161	9
210.535	9
210.909	10
211.284	9
211.658	10
212.032	10
212.406	10
212.780	10
213.154	10
213.528	10
213.902	10
214.276	10
214.650	9
215.024	9
215.398	10
215.772	9
216.145	10
216.519	10
216.893	10
217.267	10
217.640	10
218.014	10
218.388	10
218.761	10
219.135	10
219.508	10
219.882	10
220.256	10
220.629	10
221.003	10
221.376	10
221.749	10
222.123	10
222.496	10
222.869	10
223.243	10
223.616	11
223.989	11
224.362	11
224.736	11
225.109	11
225.482	12
225.855	11
226.228	11
226.601	11
226.974	11
227.347	11
227.720	11
228.093	11
228.466	11
228.839	11
229.212	11
229.585	10
229.957	10
230.330	11
230.703	11
231.076	11
231.448	11
231.821	10
232.194	10
232.566	10
232.939	10
233.311	10
233.684	10
234.056	10
234.429	10
234.801	11
235.174	11
235.546	11
235.918	11
236.291	11
236.663	11
237.035	11
237.408	12
237.780	11
238.152	11
238.524	12
238.896	11
239.268	12
239.641	12
240.013	12
240.385	12
240.757	12
241.129	12
241.500	12
241.872	12
242.244	12
242.616	12
242.988	12
243.360	12
243.731	12
244.103	12
244.475	12
244.847	12
245.218	12
245.590	12
245.961	12
246.333	12
246.705	12
247.076	12
247.448	12
247.819	12
248.190	12
248.562	12
248.933	12
249.305	12
249.676	12
250.047	12
250.418	12
250.790	12
251.161	12
251.532	12
251.903	12
252.274	12
252.645	12
253.016	11
253.387	12
253.758	12
254.129	13
254.500	13
254.871	13
255.242	12
255.613	12
255.984	12
256.355	12
256.725	12
257.096	12
257.467	12
257.838	12
258.208	12
258.579	12
258.949	12
259.320	12
259.690	13
260.061	13
260.431	13
260.802	13
261.172	13
261.543	13
261.913	13
262.283	13
262.654	13
263.024	13
263.394	13
263.764	13
264.135	13
264.505	14
264.875	14
265.245	13
265.615	13
265.985	13
266.355	13
266.725	13
267.095	13
267.465	14
267.835	13
268.205	13
268.575	13
268.944	13
269.314	13
269.684	13
270.054	13
270.423	13
270.793	12
271.163	12
271.532	13
271.902	13
272.271	12
272.641	12
273.010	12
273.380	13
273.749	13
274.119	13
274.488	13
274.857	12
275.227	12
275.596	12
275.965	12
276.335	13
276.704	13
277.073	13
277.442	13
277.811	13
278.180	13
278.549	13
278.918	13
279.287	14
279.656	14
280.025	14
280.394	14
280.763	14
281.132	14
281.501	14
281.869	14
282.238	14
282.607	14
282.976	14
283.344	14
283.713	14
284.081	14
284.450	14
284.819	14
285.187	14
285.556	14
285.924	14
286.292	14
286.661	14
287.029	14
287.398	13
287.766	13
288.134	13
288.502	13
288.871	14
289.239	14
289.607	13
289.975	13
290.343	13
290.711	13
291.079	13
291.447	13
291.815	13
292.183	13
292.551	13
292.919	13
293.287	13
293.655	13
294.022	13
294.390	13
294.758	13
295.126	13
295.493	13
295.861	13
296.229	12
296.596	13
296.964	13
297.331	13
297.699	13
298.066	13
298.434	14
298.801	14
299.168	14
299.536	14
299.903	14
300.270	14
300.638	14
301.005	14
301.372	14
301.739	14
302.106	14
302.473	14
302.840	14
303.207	14
303.574	14
303.941	14
304.308	15
304.675	15
305.042	14
305.409	14
305.776	15
306.143	15
306.509	15
306.876	15
307.243	15
307.610	15
307.976	15
308.343	15
308.709	15
309.076	15
309.442	15
309.809	15
310.175	15
310.542	15
310.908	16
311.275	16
311.641	16
312.007	15
312.373	15
312.740	16
313.106	16
313.472	16
313.838	15
314.204	16
314.570	16
314.936	17
315.302	17
315.668	17
316.034	17
316.400	17
316.766	18
317.132	18
317.498	18
317.864	18
318.230	18
318.595	18
318.961	19
319.327	19
319.692	20
320.058	20
320.424	21
320.789	21
321.155	22
321.520	22
321.886	23
322.251	23
322.616	24
322.982	25
323.347	26
323.712	26
324.078	28
324.443	29
324.808	30
325.173	31
325.539	32
325.904	33
326.269	34
326.634	34
326.999	36
327.364	37
327.729	37
328.094	38
328.459	40
328.823	41
329.188	41
329.553	43
329.918	44
330.283	44
330.647	45
331.012	46
331.377	47
331.741	48
332.106	49
332.470	50
332.835	51
333.199	53
333.564	54
333.928	55
334.293	56
334.657	57
335.021	58
335.386	60
335.750	61
336.114	63
336.478	64
336.843	65
337.207	67
337.571	68
337.935	69
338.299	71
338.663	72
339.027	74
339.391	75
339.755	76
340.119	78
340.483	79
340.846	81
341.210	82
341.574	83
341.938	85
342.301	86
342.665	87
343.029	89
343.392	90
343.756	91
344.119	93
344.483	94
344.846	95
345.210	96
345.573	98
345.937	99
346.300	100
346.663	101
347.027	102
347.390	103
347.753	104
348.116	105
348.479	106
348.843	107
349.206	109
349.569	110
349.932	111
350.295	112
350.658	113
351.021	113
351.383	114
351.746	115
352.109	116
352.472	117
352.835	117
353.197	118
353.560	118
353.923	119
354.285	120
354.648	121
355.011	122
355.373	123
355.736	123
356.098	124
356.461	124
356.823	125
357.185	125
357.548	126
357.910	126
358.272	127
358.635	128
358.997	129
359.359	129
359.721	130
360.083	130
360.445	131
360.807	132
361.169	132
361.531	132
361.893	133
362.255	133
362.617	133
362.979	133
363.341	134
363.703	135
364.064	136
364.426	136
364.788	137
365.149	137
365.511	137
365.873	137
366.234	137
366.596	137
366.957	138
367.319	137
367.680	138
368.042	138
368.403	138
368.764	138
369.126	138
369.487	139
369.848	139
370.209	139
370.570	139
370.931	139
371.293	139
371.654	139
372.015	138
372.376	138
372.737	138
373.098	138
373.458	138
373.819	138
374.180	138
374.541	139
374.902	139
375.263	139
375.623	139
375.984	140
376.345	140
376.705	140
377.066	140
377.426	141
377.787	141
378.147	141
378.508	141
378.868	141
379.228	142
379.589	142
379.949	143
380.309	143
380.670	143
381.030	143
381.390	143
381.750	144
382.110	144
382.470	144
382.830	144
383.190	144
383.550	144
383.910	144
384.270	145
384.630	145
384.990	145
385.350	146
385.709	146
386.069	146
386.429	147
386.788	146
387.148	146
387.508	147
387.867	147
388.227	147
388.586	148
388.946	148
389.305	149
389.665	149
390.024	150
390.383	151
390.743	151
391.102	152
391.461	152
391.820	152
392.179	152
392.539	152
392.898	152
393.257	152
393.616	152
393.975	153
394.334	154
394.693	155
395.051	156
395.410	157
395.769	158
396.128	158
396.487	158
396.845	158
397.204	159
397.563	159
397.921	159
398.280	159
398.638	159
398.997	159
399.355	160
399.714	160
400.072	161
400.431	161
400.789	161
401.147	162
401.506	163
401.864	163
402.222	163
402.580	163
402.938	163
403.297	164
403.655	164
404.013	163
404.371	163
404.729	164
405.087	164
405.444	164
405.802	164
406.160	165
406.518	165
406.876	165
407.233	165
407.591	166
407.949	165
408.306	166
408.664	166
409.022	165
409.379	166
409.737	166
410.094	166
410.451	167
410.809	167
411.166	168
411.523	168
411.881	169
412.238	169
412.595	170
412.952	170
413.310	170
413.667	171
414.024	171
414.381	171
414.738	172
415.095	172
415.452	173
415.809	173
416.165	174
416.522	175
416.879	176
417.236	177
417.593	178
417.949	180
418.306	181
418.663	183
419.019	185
419.376	187
419.732	190
420.089	191
420.445	193
420.802	195
421.158	197
421.514	198
421.871	200
422.227	201
422.583	202
422.939	203
423.295	205
423.652	206
424.008	207
424.364	208
424.720	209
425.076	209
425.432	210
425.788	210
426.143	212
426.499	213
426.855	214
427.211	215
427.567	216
427.922	217
428.278	218
428.634	219
428.989	220
429.345	221
429.700	222
430.056	223
430.411	225
430.767	226
431.122	228
431.478	229
431.833	230
432.188	232
432.543	233
432.899	234
433.254	235
433.609	236
433.964	236
434.319	237
434.674	237
435.029	238
435.384	239
435.739	240
436.094	242
436.449	244
436.804	246
437.158	249
437.513	252
437.868	255
438.223	259
438.577	262
438.932	266
439.287	270
439.641	274
439.996	278
440.350	282
440.704	286
441.059	290
441.413	294
441.768	299
442.122	303
442.476	307
442.830	311
443.185	315
443.539	319
443.893	323
444.247	327
444.601	330
444.955	332
445.309	334
445.663	336
446.017	338
446.371	340
446.724	341
447.078	343
447.432	344
447.786	344
448.139	346
448.493	346
448.847	347
449.200	347
449.554	348
449.907	348
450.261	349
450.614	349
450.968	350
451.321	351
451.674	351
452.027	352
452.381	353
452.734	355
453.087	356
453.440	358
453.793	360
454.146	362
454.499	365
454.852	369
455.205	373
455.558	377
455.911	382
456.264	386
456.617	391
456.970	395
457.322	399
457.675	402
458.028	406
458.380	409
458.733	411
459.086	414
459.438	418
459.791	422
460.143	426
460.496	431
460.848	437
461.200	443
461.553	450
461.905	456
462.257	461
462.609	467
462.961	472
463.314	477
463.666	481
464.018	485
464.370	488
464.722	493
465.074	498
465.426	501
465.777	505
466.129	509
466.481	512
466.833	514
467.184	516
467.536	517
467.888	517
468.239	518
468.591	518
468.943	519
469.294	521
469.646	523
469.997	526
470.348	530
470.700	534
471.051	540
471.402	547
471.754	556
472.105	564
472.456	573
472.807	584
473.158	595
473.509	606
473.860	619
474.211	632
474.562	646
474.913	660
475.264	675
475.615	690
475.966	704
476.316	719
476.667	733
477.018	748
477.368	764
477.719	780
478.070	795
478.420	810
478.771	824
479.121	838
479.472	852
479.822	867
480.172	883
480.523	900
480.873	924
481.223	963
481.573	1021
481.924	1095
482.274	1178
482.624	1267
482.974	1356
483.324	1436
483.674	1497
484.024	1539
484.374	1568
484.724	1586
485.073	1599
485.423	1612
485.773	1623
486.123	1633
486.472	1644
486.822	1655
487.172	1663
487.521	1671
487.871	1676
488.220	1674
488.570	1657
488.919	1621
489.268	1568
489.618	1505
489.967	1438
490.316	1369
490.666	1308
491.015	1264
491.364	1240
491.713	1228
492.062	1226
492.411	1230
492.760	1235
493.109	1242
493.458	1248
493.807	1254
494.156	1259
494.505	1265
494.853	1270
495.202	1277
495.551	1286
495.900	1295
496.248	1304
496.597	1314
496.945	1323
497.294	1332
497.642	1341
497.991	1352
498.339	1364
498.688	1377
499.036	1389
499.384	1401
499.732	1412
500.081	1422
500.429	1430
500.777	1438
501.125	1445
501.473	1453
501.821	1460
502.169	1468
502.517	1475
502.865	1480
503.213	1484
503.561	1487
503.908	1489
504.256	1491
504.604	1493
504.952	1494
505.299	1494
505.647	1493
505.994	1490
506.342	1488
506.689	1485
507.037	1482
507.384	1481
507.732	1481
508.079	1481
508.426	1482
508.774	1483
509.121	1482
509.468	1482
509.815	1480
510.162	1479
510.509	1479
510.856	1477
511.203	1475
511.550	1474
511.897	1472
512.244	1471
512.591	1470
512.938	1469
513.284	1468
513.631	1465
513.978	1463
514.324	1460
514.671	1457
515.018	1454
515.364	1451
515.711	1449
516.057	1446
516.403	1444
516.750	1441
517.096	1438
517.443	1434
517.789	1430
518.135	1425
518.481	1423
518.827	1420
519.173	1416
519.519	1413
519.865	1410
520.211	1408
520.557	1405
520.903	1404
521.249	1403
521.595	1402
521.941	1401
522.287	1401
522.632	1400
522.978	1399
523.324	1399
523.669	1399
524.015	1401
524.360	1405
524.706	1410
525.051	1417
525.397	1426
525.742	1435
526.087	1443
526.433	1453
526.778	1461
527.123	1467
527.468	1473
527.813	1478
528.158	1483
528.504	1489
528.849	1497
529.193	1509
529.538	1522
529.883	1538
530.228	1556
530.573	1577
530.918	1598
531.263	1619
531.607	1639
531.952	1658
532.296	1673
532.641	1686
532.986	1696
533.330	1706
533.675	1716
534.019	1729
534.363	1746
534.708	1765
535.052	1788
535.396	1811
535.741	1835
536.085	1856
536.429	1875
536.773	1892
537.117	1905
537.461	1916
537.805	1928
538.149	1940
538.493	1953
538.837	1967
539.181	1983
539.524	2002
539.868	2024
540.212	2049
540.556	2076
540.899	2104
541.243	2130
541.586	2152
541.930	2170
542.273	2184
542.617	2195
542.960	2207
543.304	2222
543.647	2241
543.990	2265
544.333	2292
544.677	2319
545.020	2345
545.363	2368
545.706	2387
546.049	2402
546.392	2412
546.735	2417
547.078	2422
547.421	2427
547.764	2433
548.106	2440
548.449	2451
548.792	2465
549.135	2485
549.477	2509
549.820	2533
550.162	2555
550.505	2573
550.847	2586
551.190	2597
551.532	2607
551.875	2617
552.217	2628
552.559	2641
552.901	2658
553.244	2679
553.586	2701
553.928	2725
554.270	2747
554.612	2765
554.954	2781
555.296	2795
555.638	2808
555.980	2822
556.322	2840
556.663	2862
557.005	2891
557.347	2928
557.689	2967
558.030	3007
558.372	3043
558.713	3077
559.055	3110
559.396	3142
559.738	3175
560.079	3211
560.421	3251
560.762	3297
561.103	3346
561.444	3401
561.786	3458
562.127	3518
562.468	3583
562.809	3654
563.150	3732
563.491	3816
563.832	3909
564.173	4015
564.514	4135
564.855	4278
565.195	4453
565.536	4663
565.877	4907
566.218	5184
566.558	5498
566.899	5843
567.239	6216
567.580	6609
567.920	7015
568.261	7424
568.601	7842
568.941	8276
569.282	8723
569.622	9186
569.962	9668
570.302	10183
570.643	10718
570.983	11261
571.323	11787
571.663	12296
572.003	12780
572.343	13237
572.683	13664
573.022	14096
573.362	14551
573.702	15027
574.042	15506
574.381	15967
574.721	16407
575.061	16831
575.400	17219
575.740	17565
576.079	17874
576.419	18174
576.758	18512
577.097	18912
577.437	19354
577.776	19826
578.115	20321
578.454	20825
578.794	21297
579.133	21670
579.472	21932
579.811	22092
580.150	22157
580.489	22149
580.828	22104
581.167	22062
581.505	22040
581.844	22029
582.183	22018
582.522	22022
582.860	22039
583.199	22057
583.538	22049
583.876	21975
584.215	21811
584.553	21542
584.891	21175
585.230	20717
585.568	20206
585.906	19676
586.245	19197
586.583	18786
586.921	18448
587.259	18148
587.597	17847
587.935	17533
588.273	17207
588.611	16902
588.949	16633
589.287	16408
589.625	16233
589.963	16101
590.300	15996
590.638	15904
590.976	15801
591.313	15674
591.651	15552
591.989	15445
592.326	15361
592.664	15290
593.001	15233
593.338	15201
593.676	15188
594.013	15201
594.350	15261
594.687	15364
595.025	15482
595.362	15591
595.699	15672
596.036	15727
596.373	15749
596.710	15730
597.047	15680
597.384	15619
597.720	15546
598.057	15488
598.394	15446
598.731	15424
599.067	15429
599.404	15460
599.741	15527
600.077	15622
600.414	15726
600.750	15838
601.087	15928
601.423	15976
601.759	15986
602.096	15964
602.432	15924
602.768	15860
603.104	15769
603.440	15653
603.776	15528
604.112	15393
604.448	15256
604.784	15110
605.120	14953
605.456	14802
605.792	14644
606.128	14478
606.463	14306
606.799	14131
607.135	13972
607.470	13817
607.806	13663
608.142	13512
608.477	13366
608.812	13227
609.148	13087
609.483	12939
609.819	12787
610.154	12641
610.489	12506
610.824	12388
611.159	12290
611.494	12191
611.830	12105
612.165	12022
612.500	11928
612.834	11817
613.169	11690
613.504	11549
613.839	11393
614.174	11214
614.509	11033
614.843	10853
615.178	10681
615.512	10511
615.847	10345
616.182	10181
616.516	10015
616.850	9840
617.185	9656
617.519	9471
617.853	9271
618.188	9062
618.522	8869
618.856	8704
619.190	8562
619.524	8439
619.858	8340
620.192	8263
620.526	8196
620.860	8129
621.194	8065
621.528	8000
621.862	7937
622.195	7860
622.529	7777
622.863	7690
623.196	7605
623.530	7517
623.864	7430
624.197	7342
624.530	7256
624.864	7179
625.197	7099
625.531	7010
625.864	6900
626.197	6783
626.530	6656
626.863	6514
627.196	6358
627.529	6200
627.862	6044
628.195	5890
628.528	5737
628.861	5591
629.194	5459
629.527	5335
629.860	5211
630.192	5089
630.525	4975
630.858	4868
631.190	4766
631.523	4669
631.855	4576
632.188	4496
632.520	4422
632.852	4353
633.185	4281
633.517	4212
633.849	4149
634.182	4092
634.514	4037
634.846	3988
635.178	3945
635.510	3906
635.842	3871
636.174	3838
636.506	3804
636.837	3771
637.169	3738
637.501	3704
637.833	3666
638.164	3623
638.496	3576
638.828	3523
639.159	3464
639.491	3398
639.822	3329
640.154	3260
640.485	3193
640.816	3125
641.147	3058
641.479	2994
641.810	2932
642.141	2871
642.472	2813
642.803	2754
643.134	2698
643.465	2649
643.796	2610
644.127	2583
644.458	2567
644.789	2567
645.119	2582
645.450	2606
645.781	2635
646.111	2662
646.442	2687
646.773	2707
647.103	2722
647.433	2735
647.764	2748
648.094	2766
648.425	2788
648.755	2815
649.085	2847
649.415	2880
649.745	2916
650.075	2951
650.405	2990
650.735	3059
651.065	3548
651.395	5295
651.725	8326
652.055	11927
652.385	15522
652.715	19116
653.044	22711
653.374	26312
653.704	29919
654.033	33120
654.363	35088
654.692	36391
655.022	37222
655.351	37757
655.680	38081
656.010	38255
656.339	38331
656.668	38350
656.997	38339
657.326	38305
657.655	38229
657.984	37721
658.313	35945
658.642	32873
658.971	29221
659.300	25570
659.629	21918
659.958	18268
660.286	14618
660.615	10969
660.944	7734
661.272	5737
661.601	4408
661.929	3547
662.258	2979
662.586	2613
662.915	2392
663.243	2264
663.571	2191
663.899	2146
664.228	2118
664.556	2099
664.884	2086
665.212	2076
665.540	2070
665.868	2066
666.196	2065
666.524	2064
666.852	2066
667.179	2074
667.507	2089
667.835	2113
668.162	2144
668.490	2182
668.818	2228
669.145	2276
669.473	2324
669.800	2369
670.127	2409
670.455	2443
670.782	2470
671.109	2495
671.436	2516
671.764	2532
672.091	2546
672.418	2558
672.745	2568
673.072	2578
673.399	2589
673.726	2601
674.053	2612
674.379	2616
674.706	2615
675.033	2614
675.359	2611
675.686	2605
676.013	2602
676.339	2604
676.666	2612
676.992	2631
677.318	2657
677.645	2689
677.971	2718
678.297	2745
678.624	2771
678.950	2795
679.276	2819
679.602	2841
679.928	2864
680.254	2892
680.580	2928
680.906	2973
681.232	3032
681.558	3092
681.883	3153
682.209	3210
682.535	3262
682.860	3309
683.186	3351
683.511	3383
683.837	3403
684.162	3419
684.488	3431
684.813	3444
685.138	3456
685.464	3466
685.789	3476
686.114	3485
686.439	3497
686.764	3510
687.089	3520
687.414	3522
687.739	3513
688.064	3492
688.389	3466
688.714	3434
689.039	3400
689.363	3364
689.688	3325
690.013	3286
690.337	3251
690.662	3223
690.986	3198
691.311	3173
691.635	3147
691.959	3124
692.284	3107
692.608	3102
692.932	3108
693.256	3119
693.580	3132
693.904	3150
694.228	3170
694.552	3190
694.876	3200
695.200	3199
695.524	3186
695.848	3166
696.172	3141
696.495	3114
696.819	3085
697.143	3056
697.466	3026
697.790	2999
698.113	2981
698.437	2972
698.760	2970
699.083	2969
699.407	2961
699.730	2946
700.053	2923
700.376	2890
700.699	2845
701.022	2786
701.345	2721
701.668	2659
701.991	2606
702.314	2569
702.637	2549
702.960	2552
703.283	2577
703.605	2622
703.928	2685
704.251	2757
704.573	2830
704.896	2895
705.218	2948
705.540	2990
705.863	3022
706.185	3047
706.507	3069
706.830	3089
707.152	3110
707.474	3133
707.796	3159
708.118	3187
708.440	3215
708.762	3240
709.084	3260
709.406	3273
709.728	3275
710.049	3269
710.371	3256
710.693	3234
711.014	3210
711.336	3187
711.658	3166
711.979	3147
712.301	3131
712.622	3114
712.943	3094
713.265	3069
713.586	3042
713.907	3018
714.228	2995
714.549	2977
714.870	2965
715.191	2961
715.512	2961
715.833	2959
716.154	2952
716.475	2940
716.796	2922
717.117	2895
717.437	2862
717.758	2825
718.078	2787
718.399	2750
718.719	2718
719.040	2688
719.360	2666
719.681	2650
720.001	2640
720.321	2635
720.642	2632
720.962	2634
721.282	2641
721.602	2649
721.922	2659
722.242	2672
722.562	2689
722.882	2711
723.202	2730
723.521	2748
723.841	2767
724.161	2787
724.481	2806
724.800	2825
725.120	2850
725.439	2880
725.759	2915
726.078	2954
726.398	3001
726.717	3059
727.036	3125
727.355	3196
727.675	3265
727.994	3331
728.313	3394
728.632	3449
728.951	3495
729.270	3533
729.589	3569
729.908	3612
730.226	3662
730.545	3718
730.864	3777
731.182	3841
731.501	3907
731.820	3970
732.138	4025
732.457	4072
732.775	4116
733.093	4152
733.412	4174
733.730	4180
734.048	4171
734.367	4153
734.685	4127
735.003	4097
735.321	4071
735.639	4049
735.957	4032
736.275	4018
736.593	3997
736.910	3964
737.228	3917
737.546	3858
737.863	3788
738.181	3709
738.499	3627
738.816	3545
739.134	3466
739.451	3385
739.768	3304
740.086	3226
740.403	3153
740.720	3085
741.038	3022
741.355	2961
741.672	2900
741.989	2838
742.306	2774
742.623	2708
742.940	2642
743.257	2581
743.573	2528
743.890	2484
744.207	2451
744.523	2428
744.840	2413
745.157	2403
745.473	2401
745.790	2409
746.106	2426
746.422	2454
746.739	2489
747.055	2530
747.371	2578
747.687	2629
748.004	2678
748.320	2721
748.636	2758
748.952	2796
749.268	2833
749.584	2870
749.899	2903
750.215	2937
750.531	2975
750.847	3017
751.162	3060
751.478	3101
751.793	3144
752.109	3190
752.424	3239
752.740	3290
753.055	3346
753.370	3414
753.686	3493
754.001	3580
754.316	3671
754.631	3767
754.946	3869
755.261	3977
755.576	4082
755.891	4182
756.206	4281
756.521	4385
756.836	4491
757.150	4594
757.465	4685
757.780	4763
758.094	4829
758.409	4880
758.723	4914
759.038	4929
759.352	4930
759.667	4917
759.981	4892
760.295	4867
760.609	4846
760.923	4833
761.238	4825
761.552	4820
761.866	4813
762.180	4803
762.493	4778
762.807	4730
763.121	4656
763.435	4560
763.749	4455
764.062	4354
764.376	4269
764.689	4210
765.003	4177
765.316	4170
765.630	4183
765.943	4206
766.257	4235
766.570	4259
766.883	4266
767.196	4257
767.509	4229
767.822	4189
768.135	4136
768.448	4079
768.761	4018
769.074	3965
769.387	3924
769.700	3898
770.013	3882
770.325	3870
770.638	3854
770.950	3823
771.263	3773
771.575	3703
771.888	3613
772.200	3507
772.513	3392
772.825	3270
773.137	3147
773.449	3025
773.761	2905
774.074	2795
774.386	2696
774.698	2612
775.010	2544
775.321	2494
775.633	2461
775.945	2442
776.257	2431
776.568	2426
776.880	2432
777.192	2450
777.503	2476
777.815	2508
778.126	2550
778.438	2601
778.749	2657
779.060	2712
779.372	2764
779.683	2814
779.994	2859
780.305	2895
780.616	2921
780.927	2937
781.238	2943
781.549	2938
781.860	2920
782.171	2894
782.481	2864
782.792	2834
783.103	2805
783.413	2774
783.724	2739
784.034	2705
784.345	2674
784.655	2646
784.966	2618
785.276	2588
785.586	2558
785.896	2529
786.207	2498
786.517	2466
786.827	2433
787.137	2403
787.447	2374
787.757	2346
788.066	2319
788.376	2293
788.686	2268
788.996	2242
789.305	2216
789.615	2195
789.925	2183
790.234	2179
790.544	2184
790.853	2195
791.162	2207
791.472	2218
791.781	2223
792.090	2219
792.399	2207
792.708	2186
793.017	2163
793.326	2141
793.635	2119
793.944	2099
794.253	2082
794.562	2069
794.871	2061
795.179	2056
795.488	2048
795.797	2037
796.105	2020
796.414	1990
796.722	1950
797.031	1898
797.339	1836
797.647	1765
797.956	1690
798.264	1621
798.572	1562
798.880	1517
799.188	1483
799.496	1458
799.804	1440
800.112	1426
800.420	1415
800.728	1403
801.035	1389
801.343	1372
801.651	1358
801.958	1354
802.266	1359
802.573	1370
802.881	1384
803.188	1402
803.496	1423
803.803	1444
804.110	1462
804.417	1479
804.724	1494
805.032	1508
805.339	1520
805.646	1528
805.953	1532
806.259	1533
806.566	1531
806.873	1525
807.180	1518
807.486	1510
807.793	1500
808.100	1486
808.406	1462
808.713	1429
809.019	1390
809.326	1352
809.632	1313
809.938	1277
810.244	1244
810.551	1218
810.857	1195
811.163	1175
811.469	1154
811.775	1132
812.081	1109
812.387	1088
812.692	1071
812.998	1058
813.304	1048
813.610	1039
813.915	1033
814.221	1027
814.526	1022
814.832	1018
815.137	1014
815.443	1008
815.748	998
816.053	984
816.358	971
816.664	958
816.969	947
817.274	937
817.579	928
817.884	923
818.189	921
818.493	921
818.798	918
819.103	912
819.408	904
819.712	893
820.017	882
820.321	869
820.626	857
820.930	845
821.235	838
821.539	834
821.843	834
822.148	836
822.452	837
822.756	837
823.060	834
823.364	830
823.668	822
823.972	814
824.276	805
824.580	798
824.883	794
825.187	793
825.491	793
825.795	792
826.098	793
826.402	792
826.705	789
827.008	785
827.312	777
827.615	764
827.918	749
828.222	731
828.525	713
828.828	696
829.131	678
829.434	661
829.737	644
830.040	630
830.343	620
830.645	610
830.948	601
831.251	591
831.553	583
831.856	576
832.159	570
832.461	563
832.764	555
833.066	547
833.368	540
833.671	535
833.973	531
834.275	528
834.577	524
834.879	519
835.181	514
835.483	508
835.785	501
836.087	492
836.389	482
836.690	470
836.992	457
837.294	443
837.595	429
837.897	414
838.198	399
838.500	385
838.801	372
839.103	361
839.404	351
839.705	343
840.006	336
840.307	331
840.608	327
840.910	323
841.210	322
841.511	319
841.812	316
842.113	313
842.414	308
842.715	303
843.015	296
843.316	290
843.616	284
843.917	278
844.217	273
844.518	269
844.818	266
845.118	264
845.419	262
845.719	261
846.019	259
846.319	258
846.619	257
846.919	256
847.219	255
847.519	253
847.819	252
848.118	252
848.418	254
848.718	261
849.017	273
849.317	291
849.616	313
849.916	337
850.215	366
850.515	395
850.814	426
851.113	454
851.412	479
851.712	502
852.011	523
852.310	543
852.609	561
852.908	576
853.206	590
853.505	602
853.804	614
854.103	624
854.401	631
854.700	634
854.999	632
855.297	625
855.595	613
855.894	596
856.192	575
856.491	550
856.789	524
857.087	495
857.385	469
857.683	445
857.981	423
858.279	403
858.577	384
858.875	368
859.173	354
859.471	343
859.768	333
860.066	325
860.363	318
860.661	313
860.959	309
861.256	305
861.553	300
861.851	295
862.148	289
862.445	283
862.742	277
863.039	272
863.337	268
863.634	265
863.931	262
864.227	261
864.524	261
864.821	260
865.118	260
865.415	258
865.711	255
866.008	250
866.304	246
866.601	241
866.897	237
867.194	233
867.490	231
867.786	229
868.082	229
868.379	230
868.675	231
868.971	231
869.267	231
869.563	231
869.859	231
870.154	230
870.450	229
870.746	228
871.042	226
871.337	226
871.633	227
871.928	227
872.224	229
872.519	231
872.815	232
873.110	233
873.405	233
873.700	232
873.995	231
874.291	231
874.586	231
874.881	233
875.175	234
875.470	238
875.765	242
876.060	247
876.355	252
876.649	257
876.944	262
877.238	267
877.533	271
877.827	274
878.122	277
878.416	278
878.710	278
879.005	278
879.299	277
879.593	276
879.887	274
880.181	273
880.475	272
880.769	270
881.063	267
881.356	264
881.650	261
881.944	257
882.238	215
882.531	204
882.825	201
883.118	205
883.412	202
883.705	200
883.998	205
884.291	211
884.585	214
884.878	224
>>>>>>>>>> END of Data <<<<<<<<<<