Date	2021年06月15日火曜日 05時09分25秒
Spectrometers	USB2+H05879
ダーク	使用
リファレンス	使用
積分時間[msec]	10
平均回数	280
ｽﾑｰｼﾞﾝｸﾞ	10
Electrical Dark	USE
ピクセル数	2048
計測モード	吸光度
保存開始波長[nm]	190.664
保存終了波長[nm]	884.878
保存ﾋﾟｯﾁ波長[nm]	全波長

>>>>>>>>>> Data Start <<<<<<<<<<<<
190.664	0.000000
191.040	0.000000
191.415	0.000000
191.791	-2.167776
192.166	-0.615194
192.542	-0.776239
192.917	0.000000
193.293	-0.372274
193.668	-0.385377
194.044	-1.217274
194.419	0.000000
194.794	-1.411995
195.170	-1.317053
195.545	-1.223413
195.920	-1.101066
196.296	-0.987069
196.671	-0.833932
197.046	-0.679975
197.421	-0.633782
197.796	-0.629405
198.171	-0.581425
198.546	-0.535395
198.922	-0.479243
199.297	-0.454923
199.672	-0.421537
200.047	-0.395316
200.422	-0.371256
200.796	-0.360012
201.171	-0.339585
201.546	-0.331134
201.921	-0.317362
202.296	-0.306089
202.671	-0.286458
203.045	-0.272203
203.420	-0.259760
203.795	-0.244536
204.170	-0.234761
204.544	-0.229059
204.919	-0.228062
205.294	-0.216738
205.668	-0.199918
206.043	-0.189251
206.417	-0.194240
206.792	-0.187309
207.166	-0.177490
207.541	-0.181102
207.915	-0.188023
208.289	-0.171808
208.664	-0.170646
209.038	-0.169823
209.412	-0.153172
209.787	-0.145013
210.161	-0.140788
210.535	-0.139460
210.909	-0.127825
211.284	-0.124041
211.658	-0.126177
212.032	-0.128100
212.406	-0.130486
212.780	-0.135457
213.154	-0.140341
213.528	-0.142841
213.902	-0.142511
214.276	-0.139718
214.650	-0.145877
215.024	-0.141423
215.398	-0.137150
215.772	-0.127619
216.145	-0.126734
216.519	-0.122193
216.893	-0.116050
217.267	-0.120912
217.640	-0.121346
218.014	-0.107391
218.388	-0.093863
218.761	-0.100121
219.135	-0.095236
219.508	-0.096242
219.882	-0.098779
220.256	-0.091953
220.629	-0.081528
221.003	-0.085238
221.376	-0.083479
221.749	-0.081465
222.123	-0.080290
222.496	-0.078740
222.869	-0.079242
223.243	-0.079993
223.616	-0.081038
223.989	-0.086234
224.362	-0.084194
224.736	-0.085717
225.109	-0.082443
225.482	-0.080233
225.855	-0.077702
226.228	-0.089583
226.601	-0.087723
226.974	-0.081764
227.347	-0.071266
227.720	-0.070996
228.093	-0.075944
228.466	-0.083875
228.839	-0.081145
229.212	-0.085644
229.585	-0.095974
229.957	-0.085998
230.330	-0.078496
230.703	-0.080416
231.076	-0.081476
231.448	-0.081514
231.821	-0.083189
232.194	-0.076694
232.566	-0.084648
232.939	-0.093425
233.311	-0.096534
233.684	-0.097648
234.056	-0.095706
234.429	-0.094346
234.801	-0.100568
235.174	-0.103904
235.546	-0.101626
235.918	-0.100953
236.291	-0.097598
236.663	-0.092254
237.035	-0.081627
237.408	-0.072609
237.780	-0.069990
238.152	-0.073150
238.524	-0.072249
238.896	-0.066150
239.268	-0.066089
239.641	-0.059415
240.013	-0.054849
240.385	-0.048780
240.757	-0.042644
241.129	-0.042769
241.500	-0.047224
241.872	-0.045787
242.244	-0.040584
242.616	-0.038376
242.988	-0.036615
243.360	-0.030852
243.731	-0.023546
244.103	-0.022505
244.475	-0.020630
244.847	-0.023757
245.218	-0.021203
245.590	-0.021543
245.961	-0.020554
246.333	-0.019795
246.705	-0.020422
247.076	-0.016222
247.448	-0.016042
247.819	-0.024884
248.190	-0.013262
248.562	-0.016282
248.933	-0.013984
249.305	-0.011601
249.676	-0.002654
250.047	-0.011300
250.418	-0.014177
250.790	-0.012643
251.161	-0.014453
251.532	-0.014127
251.903	-0.013785
252.274	-0.006546
252.645	0.001374
253.016	-0.001587
253.387	-0.007684
253.758	-0.003612
254.129	-0.003167
254.500	-0.002464
254.871	-0.003527
255.242	-0.004019
255.613	-0.001375
255.984	-0.010770
256.355	-0.007788
256.725	-0.008512
257.096	-0.004841
257.467	-0.010700
257.838	-0.003419
258.208	0.002578
258.579	0.007958
258.949	0.009313
259.320	0.006398
259.690	0.011710
260.061	0.007867
260.431	0.001657
260.802	0.003106
261.172	0.006791
261.543	0.005783
261.913	0.006145
262.283	0.005344
262.654	0.004642
263.024	0.004963
263.394	0.005737
263.764	0.013400
264.135	0.015506
264.505	0.017563
264.875	0.019953
265.245	0.015790
265.615	0.017732
265.985	0.019672
266.355	0.018407
266.725	0.017135
267.095	0.021941
267.465	0.021962
267.835	0.019037
268.205	0.019191
268.575	0.020480
268.944	0.025140
269.314	0.021894
269.684	0.022767
270.054	0.016016
270.423	0.016234
270.793	0.013287
271.163	0.016542
271.532	0.011476
271.902	0.012458
272.271	0.019563
272.641	0.017926
273.010	0.020836
273.380	0.009595
273.749	0.006373
274.119	0.009387
274.488	0.014230
274.857	0.014220
275.227	0.011961
275.596	0.012008
275.965	0.018260
276.335	0.016597
276.704	0.012658
277.073	0.014823
277.442	0.017375
277.811	0.022940
278.180	0.031102
278.549	0.032320
278.918	0.036250
279.287	0.040700
279.656	0.047292
280.025	0.042934
280.394	0.041568
280.763	0.044379
281.132	0.055739
281.501	0.058664
281.869	0.055678
282.238	0.051337
282.607	0.047883
282.976	0.044412
283.344	0.045754
283.713	0.039209
284.081	0.036840
284.450	0.040661
284.819	0.041893
285.187	0.047040
285.556	0.050725
285.924	0.046152
286.292	0.047789
286.661	0.038544
287.029	0.034530
287.398	0.029790
287.766	0.032072
288.134	0.032242
288.502	0.030030
288.871	0.032182
289.239	0.032677
289.607	0.033235
289.975	0.036722
290.343	0.041863
290.711	0.048840
291.079	0.051633
291.447	0.053406
291.815	0.058097
292.183	0.058218
292.551	0.059639
292.919	0.058934
293.287	0.061972
293.655	0.068494
294.022	0.067369
294.390	0.081665
294.758	0.084352
295.126	0.083201
295.493	0.088158
295.861	0.095319
296.229	0.100720
296.596	0.100765
296.964	0.110180
297.331	0.113940
297.699	0.113502
298.066	0.114328
298.434	0.113072
298.801	0.112701
299.168	0.112493
299.536	0.113362
299.903	0.116714
300.270	0.118611
300.638	0.120757
301.005	0.130764
301.372	0.136938
301.739	0.150208
302.106	0.146486
302.473	0.156127
302.840	0.162816
303.207	0.174630
303.574	0.185058
303.941	0.199189
304.308	0.210540
304.675	0.215130
305.042	0.228304
305.409	0.253283
305.776	0.267850
306.143	0.288430
306.509	0.308802
306.876	0.338612
307.243	0.359544
307.610	0.380264
307.976	0.407210
308.343	0.438858
308.709	0.463199
309.076	0.489597
309.442	0.511827
309.809	0.544951
310.175	0.576127
310.542	0.607343
310.908	0.635329
311.275	0.662067
311.641	0.688630
312.007	0.719137
312.373	0.747915
312.740	0.773448
313.106	0.800377
313.472	0.834483
313.838	0.865552
314.204	0.893943
314.570	0.907350
314.936	0.933575
315.302	0.958165
315.668	0.979503
316.034	0.998807
316.400	1.023934
316.766	1.041547
317.132	1.068365
317.498	1.084988
317.864	1.099310
318.230	1.115023
318.595	1.130850
318.961	1.143239
319.327	1.160952
319.692	1.171538
320.058	1.182103
320.424	1.197889
320.789	1.210418
321.155	1.219523
321.520	1.231081
321.886	1.246860
322.251	1.260704
322.616	1.271176
322.982	1.281412
323.347	1.288783
323.712	1.299840
324.078	1.306342
324.443	1.313827
324.808	1.316290
325.173	1.324332
325.539	1.331444
325.904	1.338090
326.269	1.343125
326.634	1.350357
326.999	1.353761
327.364	1.360938
327.729	1.368114
328.094	1.371549
328.459	1.374789
328.823	1.379563
329.188	1.384003
329.553	1.385276
329.918	1.391519
330.283	1.396158
330.647	1.401119
331.012	1.404991
331.377	1.407493
331.741	1.407837
332.106	1.410274
332.470	1.413992
332.835	1.415376
333.199	1.416256
333.564	1.418325
333.928	1.420509
334.293	1.421771
334.657	1.423034
335.021	1.424103
335.386	1.423567
335.750	1.423009
336.114	1.421101
336.478	1.421005
336.843	1.418736
337.207	1.419441
337.571	1.419935
337.935	1.420103
338.299	1.418842
338.663	1.417345
339.027	1.416825
339.391	1.416875
339.755	1.417058
340.119	1.415920
340.483	1.415476
340.846	1.416402
341.210	1.416499
341.574	1.416122
341.938	1.415816
342.301	1.415465
342.665	1.414867
343.029	1.415154
343.392	1.416704
343.756	1.418113
344.119	1.417706
344.483	1.419034
344.846	1.417995
345.210	1.417649
345.573	1.416548
345.937	1.416487
346.300	1.417789
346.663	1.417656
347.027	1.418089
347.390	1.417784
347.753	1.417610
348.116	1.416982
348.479	1.417104
348.843	1.416599
349.206	1.415799
349.569	1.415353
349.932	1.416250
350.295	1.416393
350.658	1.417014
351.021	1.416758
351.383	1.417941
351.746	1.418071
352.109	1.418020
352.472	1.418680
352.835	1.418684
353.197	1.420316
353.560	1.420874
353.923	1.420350
354.285	1.420033
354.648	1.420059
355.011	1.420155
355.373	1.420982
355.736	1.421507
356.098	1.420877
356.461	1.421837
356.823	1.421613
357.185	1.422289
357.548	1.421670
357.910	1.421892
358.272	1.421862
358.635	1.420879
358.997	1.419505
359.359	1.420937
359.721	1.421146
360.083	1.421690
360.445	1.422138
360.807	1.421997
361.169	1.421749
361.531	1.422426
361.893	1.423292
362.255	1.424390
362.617	1.424979
362.979	1.425541
363.341	1.425330
363.703	1.426215
364.064	1.425968
364.426	1.426918
364.788	1.427212
365.149	1.428151
365.511	1.428542
365.873	1.429032
366.234	1.430528
366.596	1.431696
366.957	1.431564
367.319	1.431553
367.680	1.431383
368.042	1.431709
368.403	1.431863
368.764	1.433305
369.126	1.433826
369.487	1.433500
369.848	1.433550
370.209	1.434106
370.570	1.434545
370.931	1.436127
371.293	1.436102
371.654	1.437410
372.015	1.438854
372.376	1.440016
372.737	1.440867
373.098	1.441865
373.458	1.442452
373.819	1.443672
374.180	1.444914
374.541	1.445457
374.902	1.446315
375.263	1.447100
375.623	1.447534
375.984	1.448877
376.345	1.449024
376.705	1.449711
377.066	1.451609
377.426	1.452410
377.787	1.453485
378.147	1.454346
378.508	1.454914
378.868	1.456806
379.228	1.456998
379.589	1.456524
379.949	1.457108
380.309	1.457863
380.670	1.458311
381.030	1.458950
381.390	1.459411
381.750	1.458901
382.110	1.459755
382.470	1.461098
382.830	1.462209
383.190	1.463886
383.550	1.464028
383.910	1.465154
384.270	1.466062
384.630	1.466841
384.990	1.467260
385.350	1.467998
385.709	1.468988
386.069	1.469669
386.429	1.469607
386.788	1.470658
387.148	1.472497
387.508	1.473107
387.867	1.474216
388.227	1.474723
388.586	1.475529
388.946	1.476385
389.305	1.477970
389.665	1.479072
390.024	1.479633
390.383	1.480427
390.743	1.481115
391.102	1.481906
391.461	1.482061
391.820	1.483089
392.179	1.482903
392.539	1.483779
392.898	1.484662
393.257	1.485059
393.616	1.486649
393.975	1.487264
394.334	1.488206
394.693	1.488770
395.051	1.489635
395.410	1.490057
395.769	1.491588
396.128	1.492474
396.487	1.493130
396.845	1.493415
397.204	1.494091
397.563	1.494658
397.921	1.495108
398.280	1.494529
398.638	1.494262
398.997	1.495186
399.355	1.494696
399.714	1.495348
400.072	1.495121
400.431	1.494732
400.789	1.495181
401.147	1.495124
401.506	1.495665
401.864	1.495525
402.222	1.495543
402.580	1.495486
402.938	1.495659
403.297	1.495230
403.655	1.495298
404.013	1.495195
404.371	1.495579
404.729	1.494561
405.087	1.493908
405.444	1.494279
405.802	1.494347
406.160	1.495043
406.518	1.494698
406.876	1.495067
407.233	1.495295
407.591	1.496143
407.949	1.496339
408.306	1.496265
408.664	1.495797
409.022	1.495591
409.379	1.495462
409.737	1.495054
410.094	1.494690
410.451	1.493865
410.809	1.493737
411.166	1.493296
411.523	1.493646
411.881	1.493031
412.238	1.493220
412.595	1.493459
412.952	1.493642
413.310	1.493755
413.667	1.493787
414.024	1.494059
414.381	1.493387
414.738	1.492537
415.095	1.491888
415.452	1.491813
415.809	1.491613
416.165	1.491552
416.522	1.491454
416.879	1.490933
417.236	1.490536
417.593	1.489725
417.949	1.490101
418.306	1.489844
418.663	1.490564
419.019	1.489340
419.376	1.489171
419.732	1.488482
420.089	1.488491
420.445	1.487474
420.802	1.487452
421.158	1.486530
421.514	1.485087
421.871	1.484476
422.227	1.483898
422.583	1.483586
422.939	1.482305
423.295	1.481295
423.652	1.480199
424.008	1.478994
424.364	1.478454
424.720	1.478146
425.076	1.478270
425.432	1.477289
425.788	1.476500
426.143	1.474790
426.499	1.474746
426.855	1.474327
427.211	1.473641
427.567	1.472284
427.922	1.471728
428.278	1.469774
428.634	1.469559
428.989	1.468999
429.345	1.468565
429.700	1.467837
430.056	1.467185
430.411	1.467043
430.767	1.466205
431.122	1.465500
431.478	1.464352
431.833	1.463161
432.188	1.461447
432.543	1.460043
432.899	1.458383
433.254	1.456759
433.609	1.455603
433.964	1.453794
434.319	1.451731
434.674	1.450537
435.029	1.449192
435.384	1.447089
435.739	1.445867
436.094	1.443808
436.449	1.442591
436.804	1.441348
437.158	1.439939
437.513	1.438101
437.868	1.435708
438.223	1.433709
438.577	1.431754
438.932	1.431094
439.287	1.429756
439.641	1.428065
439.996	1.426126
440.350	1.424525
440.704	1.422934
441.059	1.420694
441.413	1.418366
441.768	1.416382
442.122	1.414334
442.476	1.411956
442.830	1.410233
443.185	1.408417
443.539	1.406134
443.893	1.403629
444.247	1.400953
444.601	1.398766
444.955	1.396256
445.309	1.393856
445.663	1.391181
446.017	1.388659
446.371	1.385012
446.724	1.381834
447.078	1.379005
447.432	1.376245
447.786	1.373176
448.139	1.369561
448.493	1.366823
448.847	1.363659
449.200	1.360395
449.554	1.357284
449.907	1.354740
450.261	1.350687
450.614	1.347300
450.968	1.344102
451.321	1.340736
451.674	1.337300
452.027	1.333518
452.381	1.329653
452.734	1.326115
453.087	1.322852
453.440	1.318880
453.793	1.315678
454.146	1.312169
454.499	1.308614
454.852	1.304933
455.205	1.301458
455.558	1.298201
455.911	1.294301
456.264	1.290607
456.617	1.287244
456.970	1.283531
457.322	1.279859
457.675	1.277000
458.028	1.273774
458.380	1.270617
458.733	1.267326
459.086	1.264281
459.438	1.261155
459.791	1.257644
460.143	1.254099
460.496	1.250837
460.848	1.247635
461.200	1.244165
461.553	1.240644
461.905	1.237454
462.257	1.233923
462.609	1.230687
462.961	1.227787
463.314	1.224638
463.666	1.221650
464.018	1.218567
464.370	1.215749
464.722	1.212628
465.074	1.209118
465.426	1.206066
465.777	1.203083
466.129	1.200012
466.481	1.196890
466.833	1.193860
467.184	1.191351
467.536	1.188392
467.888	1.185006
468.239	1.181768
468.591	1.178443
468.943	1.174870
469.294	1.171196
469.646	1.167639
469.997	1.163634
470.348	1.159814
470.700	1.156539
471.051	1.153460
471.402	1.149978
471.754	1.146753
472.105	1.143498
472.456	1.140669
472.807	1.137658
473.158	1.134842
473.509	1.132242
473.860	1.129594
474.211	1.126946
474.562	1.124323
474.913	1.121665
475.264	1.119188
475.615	1.116371
475.966	1.113806
476.316	1.111234
476.667	1.108599
477.018	1.105945
477.368	1.103421
477.719	1.100845
478.070	1.098162
478.420	1.095411
478.771	1.092905
479.121	1.090335
479.472	1.088012
479.822	1.085621
480.172	1.083115
480.523	1.080509
480.873	1.077669
481.223	1.074330
481.573	1.070980
481.924	1.067592
482.274	1.064576
482.624	1.061762
482.974	1.059529
483.324	1.057405
483.674	1.055821
484.024	1.054217
484.374	1.052809
484.724	1.051345
485.073	1.049693
485.423	1.048064
485.773	1.046491
486.123	1.044918
486.472	1.043259
486.822	1.041602
487.172	1.040000
487.521	1.038363
487.871	1.036742
488.220	1.035099
488.570	1.033358
488.919	1.031250
489.268	1.028826
489.618	1.026084
489.967	1.022862
490.316	1.019232
490.666	1.015526
491.015	1.011695
491.364	1.008105
491.713	1.004810
492.062	1.001734
492.411	0.998980
492.760	0.996358
493.109	0.993668
493.458	0.990954
493.807	0.988390
494.156	0.985730
494.505	0.983069
494.853	0.980385
495.202	0.977620
495.551	0.974867
495.900	0.972243
496.248	0.969617
496.597	0.966998
496.945	0.964426
497.294	0.962059
497.642	0.959491
497.991	0.956763
498.339	0.954080
498.688	0.951539
499.036	0.949098
499.384	0.946719
499.732	0.944252
500.081	0.941711
500.429	0.939191
500.777	0.936832
501.125	0.934396
501.473	0.931974
501.821	0.929566
502.169	0.927280
502.517	0.924949
502.865	0.922669
503.213	0.920370
503.561	0.918070
503.908	0.915817
504.256	0.913478
504.604	0.911102
504.952	0.908715
505.299	0.906438
505.647	0.904080
505.994	0.901772
506.342	0.899290
506.689	0.896947
507.037	0.894618
507.384	0.892399
507.732	0.890245
508.079	0.887893
508.426	0.885700
508.774	0.883450
509.121	0.881259
509.468	0.879211
509.815	0.877134
510.162	0.875106
510.509	0.873026
510.856	0.871025
511.203	0.869055
511.550	0.867022
511.897	0.865040
512.244	0.863158
512.591	0.861179
512.938	0.859293
513.284	0.857367
513.631	0.855549
513.978	0.853612
514.324	0.851831
514.671	0.849933
515.018	0.847960
515.364	0.846236
515.711	0.844248
516.057	0.842350
516.403	0.840581
516.750	0.838596
517.096	0.836808
517.443	0.834874
517.789	0.833038
518.135	0.831221
518.481	0.829369
518.827	0.827601
519.173	0.825807
519.519	0.823956
519.865	0.822246
520.211	0.820525
520.557	0.818772
520.903	0.816824
521.249	0.815028
521.595	0.813191
521.941	0.811304
522.287	0.809386
522.632	0.807350
522.978	0.805640
523.324	0.803833
523.669	0.801928
524.015	0.800062
524.360	0.798122
524.706	0.796301
525.051	0.794506
525.397	0.792689
525.742	0.790917
526.087	0.789246
526.433	0.787450
526.778	0.785918
527.123	0.784204
527.468	0.782440
527.813	0.780774
528.158	0.779126
528.504	0.777281
528.849	0.775308
529.193	0.773518
529.538	0.771720
529.883	0.769852
530.228	0.767711
530.573	0.765843
530.918	0.763957
531.263	0.762053
531.607	0.760181
531.952	0.758415
532.296	0.756574
532.641	0.754796
532.986	0.752910
533.330	0.750933
533.675	0.749072
534.019	0.746954
534.363	0.744899
534.708	0.742893
535.052	0.740927
535.396	0.739086
535.741	0.737280
536.085	0.735442
536.429	0.733398
536.773	0.731343
537.117	0.729308
537.461	0.727165
537.805	0.724842
538.149	0.722528
538.493	0.720280
538.837	0.718002
539.181	0.715487
539.524	0.713017
539.868	0.710578
540.212	0.708140
540.556	0.705797
540.899	0.703389
541.243	0.701000
541.586	0.698628
541.930	0.696195
542.273	0.693711
542.617	0.691064
542.960	0.688360
543.304	0.685576
543.647	0.682773
543.990	0.680002
544.333	0.677061
544.677	0.674379
545.020	0.671717
545.363	0.668990
545.706	0.666212
546.049	0.663484
546.392	0.660864
546.735	0.658185
547.078	0.655301
547.421	0.652385
547.764	0.649384
548.106	0.646176
548.449	0.642858
548.792	0.639606
549.135	0.636343
549.477	0.633056
549.820	0.629919
550.162	0.626733
550.505	0.623575
550.847	0.620352
551.190	0.616956
551.532	0.613505
551.875	0.609858
552.217	0.606033
552.559	0.602324
552.901	0.598648
553.244	0.595018
553.586	0.591418
553.928	0.587907
554.270	0.584558
554.612	0.581262
554.954	0.577854
555.296	0.574496
555.638	0.571070
555.980	0.567307
556.322	0.563405
556.663	0.559354
557.005	0.555198
557.347	0.551096
557.689	0.547057
558.030	0.543118
558.372	0.539157
558.713	0.535256
559.055	0.531288
559.396	0.527368
559.738	0.523295
560.079	0.519245
560.421	0.515145
560.762	0.511151
561.103	0.507188
561.444	0.503267
561.786	0.499409
562.127	0.495622
562.468	0.491738
562.809	0.487826
563.150	0.483879
563.491	0.479816
563.832	0.475579
564.173	0.471156
564.514	0.466625
564.855	0.461970
565.195	0.457045
565.536	0.452233
565.877	0.447479
566.218	0.442874
566.558	0.438412
566.899	0.434181
567.239	0.430108
567.580	0.426334
567.920	0.422851
568.261	0.419648
568.601	0.416549
568.941	0.413630
569.282	0.410789
569.622	0.407982
569.962	0.405195
570.302	0.402385
570.643	0.399640
570.983	0.397069
571.323	0.394622
571.663	0.392209
572.003	0.389849
572.343	0.387515
572.683	0.385027
573.022	0.382397
573.362	0.379654
573.702	0.376847
574.042	0.374043
574.381	0.371331
574.721	0.368717
575.061	0.366196
575.400	0.363829
575.740	0.361519
576.079	0.359212
576.419	0.356840
576.758	0.354336
577.097	0.351684
577.437	0.348970
577.776	0.346221
578.115	0.343482
578.454	0.340905
578.794	0.338589
579.133	0.336511
579.472	0.334641
579.811	0.332914
580.150	0.331236
580.489	0.329484
580.828	0.327600
581.167	0.325612
581.505	0.323608
581.844	0.321594
582.183	0.319556
582.522	0.317569
582.860	0.315641
583.199	0.313794
583.538	0.312043
583.876	0.310381
584.215	0.308757
584.553	0.307103
584.891	0.305471
585.230	0.303797
585.568	0.302045
585.906	0.300216
586.245	0.298379
586.583	0.296558
586.921	0.294889
587.259	0.293360
587.597	0.291923
587.935	0.290483
588.273	0.288970
588.611	0.287230
588.949	0.285340
589.287	0.283397
589.625	0.281389
589.963	0.279512
590.300	0.277707
590.638	0.276001
590.976	0.274328
591.313	0.272645
591.651	0.270982
591.989	0.269344
592.326	0.267793
592.664	0.266323
593.001	0.264933
593.338	0.263631
593.676	0.262468
594.013	0.261282
594.350	0.260110
594.687	0.258976
595.025	0.257913
595.362	0.256859
595.699	0.255769
596.036	0.254689
596.373	0.253611
596.710	0.252523
597.047	0.251341
597.384	0.250180
597.720	0.248996
598.057	0.247834
598.394	0.246653
598.731	0.245485
599.067	0.244310
599.404	0.243112
599.741	0.241958
600.077	0.240873
600.414	0.239861
600.750	0.238949
601.087	0.238124
601.423	0.237258
601.759	0.236422
602.096	0.235559
602.432	0.234721
602.768	0.233861
603.104	0.233022
603.440	0.232178
603.776	0.231365
604.112	0.230581
604.448	0.229811
604.784	0.229082
605.120	0.228339
605.456	0.227626
605.792	0.226897
606.128	0.226180
606.463	0.225500
606.799	0.224768
607.135	0.224006
607.470	0.223291
607.806	0.222489
608.142	0.221724
608.477	0.221011
608.812	0.220279
609.148	0.219591
609.483	0.218909
609.819	0.218253
610.154	0.217541
610.489	0.216793
610.824	0.216053
611.159	0.215328
611.494	0.214639
611.830	0.213995
612.165	0.213428
612.500	0.212915
612.834	0.212432
613.169	0.211963
613.504	0.211454
613.839	0.210943
614.174	0.210438
614.509	0.209887
614.843	0.209374
615.178	0.208857
615.512	0.208397
615.847	0.207937
616.182	0.207508
616.516	0.207074
616.850	0.206646
617.185	0.206216
617.519	0.205779
617.853	0.205392
618.188	0.204888
618.522	0.204283
618.856	0.203663
619.190	0.202978
619.524	0.202324
619.858	0.201711
620.192	0.201086
620.526	0.200525
620.860	0.200083
621.194	0.199606
621.528	0.199090
621.862	0.198655
622.195	0.198233
622.529	0.197736
622.863	0.197288
623.196	0.196791
623.530	0.196322
623.864	0.195910
624.197	0.195505
624.530	0.195113
624.864	0.194684
625.197	0.194394
625.531	0.194056
625.864	0.193697
626.197	0.193320
626.530	0.192978
626.863	0.192567
627.196	0.192140
627.529	0.191739
627.862	0.191290
628.195	0.190833
628.528	0.190428
628.861	0.189927
629.194	0.189465
629.527	0.189042
629.860	0.188606
630.192	0.188139
630.525	0.187650
630.858	0.187140
631.190	0.186668
631.523	0.186148
631.855	0.185504
632.188	0.184884
632.520	0.184397
632.852	0.183859
633.185	0.183381
633.517	0.182877
633.849	0.182482
634.182	0.182164
634.514	0.181832
634.846	0.181464
635.178	0.181117
635.510	0.180760
635.842	0.180412
636.174	0.180068
636.506	0.179755
636.837	0.179439
637.169	0.179134
637.501	0.178783
637.833	0.178612
638.164	0.178339
638.496	0.178046
638.828	0.177687
639.159	0.177313
639.491	0.176927
639.822	0.176529
640.154	0.176048
640.485	0.175538
640.816	0.174955
641.147	0.174419
641.479	0.173745
641.810	0.173142
642.141	0.172581
642.472	0.172094
642.803	0.171611
643.134	0.171033
643.465	0.170443
643.796	0.169957
644.127	0.169433
644.458	0.169076
644.789	0.168535
645.119	0.168119
645.450	0.167909
645.781	0.167954
646.111	0.168034
646.442	0.168097
646.773	0.168097
647.103	0.168075
647.433	0.168024
647.764	0.167904
648.094	0.167757
648.425	0.167756
648.755	0.167682
649.085	0.167559
649.415	0.167430
649.745	0.167519
650.075	0.167504
650.405	0.167457
650.735	0.165849
651.065	0.156220
651.395	0.146735
651.725	0.132460
652.055	0.092166
652.385	0.068323
652.715	0.053171
653.044	0.042700
653.374	0.035054
653.704	0.029243
654.033	0.041346
654.363	0.048751
654.692	0.053180
655.022	0.055862
655.351	0.057527
655.680	0.058535
656.010	0.059094
656.339	0.059346
656.668	0.059409
656.997	0.059375
657.326	0.059280
657.655	0.059140
657.984	0.058327
658.313	0.054457
658.642	0.049360
658.971	0.056117
659.300	0.065708
659.629	0.078492
659.958	0.096388
660.286	0.123248
660.615	0.168173
660.944	0.168381
661.272	0.167082
661.601	0.165556
661.929	0.164030
662.258	0.162631
662.586	0.161273
662.915	0.159846
663.243	0.158710
663.571	0.157702
663.899	0.157008
664.228	0.156485
664.556	0.155979
664.884	0.155544
665.212	0.155189
665.540	0.154920
665.868	0.154646
666.196	0.154399
666.524	0.154191
666.852	0.153954
667.179	0.153647
667.507	0.153535
667.835	0.153365
668.162	0.153104
668.490	0.152822
668.818	0.152700
669.145	0.152571
669.473	0.152419
669.800	0.152447
670.127	0.152370
670.455	0.152351
670.782	0.152339
671.109	0.152215
671.436	0.152232
671.764	0.152254
672.091	0.152252
672.418	0.152217
672.745	0.152179
673.072	0.152174
673.399	0.152115
673.726	0.151969
674.053	0.151941
674.379	0.151843
674.706	0.151607
675.033	0.151426
675.359	0.151322
675.686	0.151081
676.013	0.150907
676.339	0.150677
676.666	0.150290
676.992	0.150060
677.318	0.149858
677.645	0.149657
677.971	0.149481
678.297	0.149364
678.624	0.149194
678.950	0.148998
679.276	0.148797
679.602	0.148571
679.928	0.148285
680.254	0.147985
680.580	0.147750
680.906	0.147457
681.232	0.147241
681.558	0.147210
681.883	0.147179
682.209	0.147158
682.535	0.147152
682.860	0.147112
683.186	0.147102
683.511	0.147048
683.837	0.146900
684.162	0.146809
684.488	0.146677
684.813	0.146607
685.138	0.146421
685.464	0.146250
685.789	0.146053
686.114	0.145905
686.439	0.145796
686.764	0.145633
687.089	0.145544
687.414	0.145503
687.739	0.145475
688.064	0.145351
688.389	0.145272
688.714	0.145078
689.039	0.144806
689.363	0.144531
689.688	0.144277
690.013	0.144064
690.337	0.143897
690.662	0.143708
690.986	0.143588
691.311	0.143469
691.635	0.143297
691.959	0.143146
692.284	0.142875
692.608	0.142624
692.932	0.142383
693.256	0.142264
693.580	0.142247
693.904	0.142190
694.228	0.142114
694.552	0.142108
694.876	0.142108
695.200	0.141986
695.524	0.141857
695.848	0.141781
696.172	0.141620
696.495	0.141399
696.819	0.141231
697.143	0.140919
697.466	0.140616
697.790	0.140230
698.113	0.139861
698.437	0.139522
698.760	0.139281
699.083	0.139165
699.407	0.139113
699.730	0.139021
700.053	0.138944
700.376	0.138780
700.699	0.138507
701.022	0.138167
701.345	0.137700
701.668	0.137100
701.991	0.136479
702.314	0.135775
702.637	0.135104
702.960	0.134470
703.283	0.133869
703.605	0.133242
703.928	0.132917
704.251	0.132863
704.573	0.132753
704.896	0.132725
705.218	0.132671
705.540	0.132465
705.863	0.132204
706.185	0.131836
706.507	0.131320
706.830	0.130778
707.152	0.130232
707.474	0.129731
707.796	0.129317
708.118	0.128922
708.440	0.128642
708.762	0.128434
709.084	0.128346
709.406	0.128160
709.728	0.128026
710.049	0.127847
710.371	0.127680
710.693	0.127477
711.014	0.127071
711.336	0.126771
711.658	0.126489
711.979	0.126232
712.301	0.126037
712.622	0.125874
712.943	0.125756
713.265	0.125787
713.586	0.125683
713.907	0.125687
714.228	0.125764
714.549	0.125681
714.870	0.125631
715.191	0.125663
715.512	0.125614
715.833	0.125619
716.154	0.125598
716.475	0.125539
716.796	0.125407
717.117	0.125215
717.437	0.124943
717.758	0.124689
718.078	0.124389
718.399	0.124054
718.719	0.123679
719.040	0.123309
719.360	0.123046
719.681	0.122725
720.001	0.122519
720.321	0.122375
720.642	0.122123
720.962	0.121842
721.282	0.121752
721.602	0.121640
721.922	0.121389
722.242	0.121258
722.562	0.121001
722.882	0.120798
723.202	0.120684
723.521	0.120649
723.841	0.120592
724.161	0.120590
724.481	0.120582
724.800	0.120499
725.120	0.120428
725.439	0.120395
725.759	0.120398
726.078	0.120411
726.398	0.120433
726.717	0.120430
727.036	0.120437
727.355	0.120545
727.675	0.120710
727.994	0.120874
728.313	0.121119
728.632	0.121346
728.951	0.121446
729.270	0.121499
729.589	0.121506
729.908	0.121376
730.226	0.121255
730.545	0.121068
730.864	0.120878
731.182	0.120780
731.501	0.120699
731.820	0.120651
732.138	0.120634
732.457	0.120534
732.775	0.120383
733.093	0.120411
733.412	0.120357
733.730	0.120257
734.048	0.120163
734.367	0.119943
734.685	0.119707
735.003	0.119388
735.321	0.119102
735.639	0.118798
735.957	0.118576
736.275	0.118360
736.593	0.118289
736.910	0.118212
737.228	0.118205
737.546	0.118172
737.863	0.118082
738.181	0.117900
738.499	0.117686
738.816	0.117460
739.134	0.117288
739.451	0.117179
739.768	0.116922
740.086	0.116641
740.403	0.116451
740.720	0.116245
741.038	0.116069
741.355	0.115799
741.672	0.115443
741.989	0.115123
742.306	0.114833
742.623	0.114519
742.940	0.114202
743.257	0.113639
743.573	0.113198
743.890	0.112749
744.207	0.112288
744.523	0.111862
744.840	0.111539
745.157	0.111242
745.473	0.110831
745.790	0.110537
746.106	0.110193
746.422	0.109915
746.739	0.109682
747.055	0.109490
747.371	0.109264
747.687	0.109170
748.004	0.109162
748.320	0.109252
748.636	0.109258
748.952	0.109284
749.268	0.109308
749.584	0.109361
749.899	0.109511
750.215	0.109552
750.531	0.109542
750.847	0.109573
751.162	0.109620
751.478	0.109702
751.793	0.109656
752.109	0.109672
752.424	0.109623
752.740	0.109611
753.055	0.109676
753.370	0.109694
753.686	0.109827
754.001	0.110066
754.316	0.110354
754.631	0.110593
754.946	0.110780
755.261	0.110950
755.576	0.111081
755.891	0.111090
756.206	0.111076
756.521	0.110985
756.836	0.110972
757.150	0.111021
757.465	0.111069
757.780	0.111093
758.094	0.111169
758.409	0.111307
758.723	0.111481
759.038	0.111568
759.352	0.111595
759.667	0.111548
759.981	0.111512
760.295	0.111363
760.609	0.111146
760.923	0.110916
761.238	0.110654
761.552	0.110410
761.866	0.110216
762.180	0.110132
762.493	0.110147
762.807	0.110136
763.121	0.110149
763.435	0.110061
763.749	0.109866
764.062	0.109669
764.376	0.109436
764.689	0.109074
765.003	0.108766
765.316	0.108487
765.630	0.108371
765.943	0.108267
766.257	0.108161
766.570	0.108090
766.883	0.107914
767.196	0.107763
767.509	0.107443
767.822	0.107170
768.135	0.106893
768.448	0.106578
768.761	0.106211
769.074	0.105875
769.387	0.105551
769.700	0.105271
770.013	0.105071
770.325	0.104913
770.638	0.104805
770.950	0.104677
771.263	0.104633
771.575	0.104450
771.888	0.104158
772.200	0.103845
772.513	0.103442
772.825	0.103107
773.137	0.102768
773.449	0.102563
773.761	0.102170
774.074	0.101943
774.386	0.101717
774.698	0.101459
775.010	0.101129
775.321	0.100831
775.633	0.100461
775.945	0.100260
776.257	0.100083
776.568	0.099948
776.880	0.099858
777.192	0.099649
777.503	0.099518
777.815	0.099537
778.126	0.099607
778.438	0.099743
778.749	0.099945
779.060	0.100162
779.372	0.100277
779.683	0.100369
779.994	0.100430
780.305	0.100558
780.616	0.100651
780.927	0.100709
781.238	0.100741
781.549	0.100897
781.860	0.100975
782.171	0.101070
782.481	0.101119
782.792	0.101103
783.103	0.101053
783.413	0.101070
783.724	0.101123
784.034	0.101065
784.345	0.100868
784.655	0.100680
784.966	0.100503
785.276	0.100345
785.586	0.100156
785.896	0.099965
786.207	0.099846
786.517	0.099785
786.827	0.099763
787.137	0.099650
787.447	0.099541
787.757	0.099502
788.066	0.099394
788.376	0.099373
788.686	0.099321
788.996	0.099238
789.305	0.099152
789.615	0.099057
789.925	0.098913
790.234	0.098737
790.544	0.098711
790.853	0.098599
791.162	0.098638
791.472	0.098731
791.781	0.098831
792.090	0.098978
792.399	0.098973
792.708	0.098862
793.017	0.098746
793.326	0.098502
793.635	0.098363
793.944	0.098167
794.253	0.097948
794.562	0.097669
794.871	0.097413
795.179	0.097204
795.488	0.097047
795.797	0.096969
796.105	0.096850
796.414	0.096795
796.722	0.096737
797.031	0.096587
797.339	0.096396
797.647	0.096036
797.956	0.095438
798.264	0.094763
798.572	0.094176
798.880	0.093855
799.188	0.093359
799.496	0.092882
799.804	0.092732
800.112	0.092417
800.420	0.092269
800.728	0.092229
801.035	0.092199
801.343	0.091939
801.651	0.091587
801.958	0.091249
802.266	0.091102
802.573	0.091032
802.881	0.091031
803.188	0.090918
803.496	0.090966
803.803	0.091156
804.110	0.091273
804.417	0.091432
804.724	0.091296
805.032	0.091223
805.339	0.091130
805.646	0.091221
805.953	0.091060
806.259	0.090949
806.566	0.090946
806.873	0.090925
807.180	0.090746
807.486	0.090755
807.793	0.090778
808.100	0.090879
808.406	0.090797
808.713	0.090582
809.019	0.090103
809.326	0.089615
809.632	0.089291
809.938	0.088744
810.244	0.088178
810.551	0.087676
810.857	0.087252
811.163	0.087039
811.469	0.086759
811.775	0.086494
812.081	0.086217
812.387	0.086206
812.692	0.086075
812.998	0.085912
813.304	0.085628
813.610	0.085729
813.915	0.085495
814.221	0.085171
814.526	0.085042
814.832	0.085218
815.137	0.085215
815.443	0.085373
815.748	0.085293
816.053	0.085170
816.358	0.085054
816.664	0.084798
816.969	0.084613
817.274	0.084560
817.579	0.084411
817.884	0.084215
818.189	0.084144
818.493	0.084041
818.798	0.083867
819.103	0.083539
819.408	0.083326
819.712	0.083231
820.017	0.082848
820.321	0.082514
820.626	0.082494
820.930	0.082184
821.235	0.081726
821.539	0.081294
821.843	0.081075
822.148	0.080790
822.452	0.080546
822.756	0.080613
823.060	0.080738
823.364	0.080808
823.668	0.080693
823.972	0.080625
824.276	0.080628
824.580	0.080395
824.883	0.080347
825.187	0.080380
825.491	0.080402
825.795	0.080495
826.098	0.080532
826.402	0.080336
826.705	0.080451
827.008	0.080134
827.312	0.079952
827.615	0.079906
827.918	0.079791
828.222	0.079530
828.525	0.079438
828.828	0.079405
829.131	0.079140
829.434	0.078751
829.737	0.078130
830.040	0.077420
830.343	0.076745
830.645	0.076182
830.948	0.075749
831.251	0.075284
831.553	0.074875
831.856	0.074627
832.159	0.074635
832.461	0.074332
832.764	0.074328
833.066	0.073949
833.368	0.073974
833.671	0.073913
833.973	0.073437
834.275	0.073437
834.577	0.073282
834.879	0.073231
835.181	0.072809
835.483	0.072332
835.785	0.071822
836.087	0.071690
836.389	0.071675
836.690	0.071120
836.992	0.070362
837.294	0.069682
837.595	0.068662
837.897	0.067664
838.198	0.066877
838.500	0.065575
838.801	0.064658
839.103	0.063740
839.404	0.063279
839.705	0.062532
840.006	0.061896
840.307	0.061958
840.608	0.061233
840.910	0.061065
841.210	0.060963
841.511	0.060932
841.812	0.060991
842.113	0.061598
842.414	0.060843
842.715	0.060043
843.015	0.059480
843.316	0.059430
843.616	0.058405
843.917	0.058125
844.217	0.058106
844.518	0.057488
844.818	0.056965
845.118	0.056941
845.419	0.057140
845.719	0.056648
846.019	0.056456
846.319	0.056636
846.619	0.055844
846.919	0.055981
847.219	0.055998
847.519	0.055765
847.819	0.055873
848.118	0.055214
848.418	0.054215
848.718	0.054297
849.017	0.054155
849.317	0.054144
849.616	0.054265
849.916	0.054953
850.215	0.055592
850.515	0.056019
850.814	0.056586
851.113	0.057134
851.412	0.057200
851.712	0.057224
852.011	0.057233
852.310	0.057789
852.609	0.058076
852.908	0.058306
853.206	0.058384
853.505	0.058572
853.804	0.058619
854.103	0.058763
854.401	0.058990
854.700	0.059169
854.999	0.059269
855.297	0.059365
855.595	0.059679
855.894	0.059584
856.192	0.059483
856.491	0.059270
856.789	0.058956
857.087	0.058186
857.385	0.057594
857.683	0.057344
857.981	0.056882
858.279	0.056901
858.577	0.055791
858.875	0.054992
859.173	0.054332
859.471	0.054227
859.768	0.053787
860.066	0.052967
860.363	0.051956
860.661	0.051070
860.959	0.050851
861.256	0.050649
861.553	0.050522
861.851	0.049525
862.148	0.048706
862.445	0.048597
862.742	0.048290
863.039	0.047666
863.337	0.047942
863.634	0.047272
863.931	0.046136
864.227	0.045657
864.524	0.045087
864.821	0.045415
865.118	0.044785
865.415	0.045001
865.711	0.044382
866.008	0.043202
866.304	0.043826
866.601	0.043420
866.897	0.043639
867.194	0.042794
867.490	0.042343
867.786	0.042044
868.082	0.041690
868.379	0.041847
868.675	0.040992
868.971	0.040419
869.267	0.040666
869.563	0.040635
869.859	0.040620
870.154	0.040897
870.450	0.041035
870.746	0.040380
871.042	0.040552
871.337	0.040387
871.633	0.039372
871.928	0.039305
872.224	0.039807
872.519	0.038327
872.815	0.037936
873.110	0.037356
873.405	0.037746
873.700	0.037386
873.995	0.036852
874.291	0.037180
874.586	0.037626
874.881	0.037840
875.175	0.038033
875.470	0.037897
875.765	0.037476
876.060	0.037622
876.355	0.037742
876.649	0.037721
876.944	0.038604
877.238	0.038461
877.533	0.039116
877.827	0.039903
878.122	0.039908
878.416	0.039884
878.710	0.041006
879.005	0.041057
879.299	0.040583
879.593	0.040212
879.887	0.039894
880.181	0.039699
880.475	0.039706
880.769	0.039330
881.063	0.039450
881.356	0.039432
881.650	0.039439
881.944	0.039393
882.238	0.019840
882.531	0.042427
882.825	0.024743
883.118	0.028097
883.412	0.034444
883.705	0.034476
883.998	0.037619
884.291	0.041690
884.585	0.039436
884.878	0.031260
>>>>>>>>>> END of Data <<<<<<<<<<
>>>>>>>>>> Raw Data Start <<<<<<<<
190.664	-406
191.040	9
191.415	9
191.791	3
192.166	9
192.542	7
192.917	5
193.293	7
193.668	5
194.044	13
194.419	-10
194.794	10
195.170	10
195.545	10
195.920	11
196.296	11
196.671	12
197.046	12
197.421	13
197.796	14
198.171	14
198.546	14
198.922	14
199.297	14
199.672	15
200.047	15
200.422	15
200.796	15
201.171	15
201.546	15
201.921	15
202.296	15
202.671	16
203.045	16
203.420	16
203.795	16
204.170	16
204.544	16
204.919	16
205.294	16
205.668	16
206.043	15
206.417	15
206.792	15
207.166	15
207.541	15
207.915	15
208.289	15
208.664	15
209.038	15
209.412	15
209.787	15
210.161	15
210.535	15
210.909	15
211.284	15
211.658	15
212.032	15
212.406	15
212.780	15
213.154	15
213.528	15
213.902	15
214.276	15
214.650	15
215.024	15
215.398	15
215.772	15
216.145	15
216.519	15
216.893	15
217.267	15
217.640	15
218.014	15
218.388	15
218.761	15
219.135	16
219.508	16
219.882	16
220.256	16
220.629	16
221.003	16
221.376	16
221.749	16
222.123	16
222.496	15
222.869	15
223.243	16
223.616	16
223.989	16
224.362	16
224.736	16
225.109	16
225.482	16
225.855	16
226.228	16
226.601	16
226.974	16
227.347	16
227.720	16
228.093	16
228.466	16
228.839	16
229.212	16
229.585	15
229.957	15
230.330	15
230.703	16
231.076	16
231.448	16
231.821	15
232.194	15
232.566	15
232.939	15
233.311	15
233.684	16
234.056	15
234.429	16
234.801	16
235.174	16
235.546	16
235.918	16
236.291	16
236.663	17
237.035	16
237.408	17
237.780	17
238.152	17
238.524	17
238.896	17
239.268	17
239.641	17
240.013	17
240.385	17
240.757	17
241.129	17
241.500	17
241.872	17
242.244	17
242.616	17
242.988	16
243.360	17
243.731	17
244.103	17
244.475	16
244.847	17
245.218	17
245.590	17
245.961	17
246.333	17
246.705	17
247.076	17
247.448	17
247.819	17
248.190	17
248.562	17
248.933	18
249.305	18
249.676	18
250.047	18
250.418	18
250.790	18
251.161	18
251.532	18
251.903	17
252.274	17
252.645	17
253.016	17
253.387	17
253.758	17
254.129	17
254.500	17
254.871	18
255.242	18
255.613	17
255.984	18
256.355	17
256.725	17
257.096	17
257.467	17
257.838	17
258.208	17
258.579	17
258.949	17
259.320	17
259.690	17
260.061	18
260.431	18
260.802	18
261.172	18
261.543	18
261.913	18
262.283	18
262.654	18
263.024	18
263.394	18
263.764	18
264.135	18
264.505	18
264.875	18
265.245	18
265.615	18
265.985	18
266.355	18
266.725	18
267.095	18
267.465	18
267.835	18
268.205	18
268.575	18
268.944	18
269.314	17
269.684	17
270.054	17
270.423	17
270.793	18
271.163	18
271.532	18
271.902	18
272.271	17
272.641	17
273.010	17
273.380	18
273.749	18
274.119	18
274.488	18
274.857	18
275.227	18
275.596	19
275.965	19
276.335	19
276.704	19
277.073	19
277.442	19
277.811	19
278.180	19
278.549	19
278.918	19
279.287	19
279.656	19
280.025	19
280.394	19
280.763	19
281.132	19
281.501	19
281.869	18
282.238	18
282.607	18
282.976	18
283.344	18
283.713	18
284.081	18
284.450	18
284.819	19
285.187	19
285.556	18
285.924	18
286.292	18
286.661	19
287.029	19
287.398	19
287.766	19
288.134	19
288.502	19
288.871	19
289.239	19
289.607	19
289.975	19
290.343	19
290.711	19
291.079	19
291.447	19
291.815	19
292.183	19
292.551	19
292.919	19
293.287	19
293.655	19
294.022	19
294.390	18
294.758	18
295.126	18
295.493	18
295.861	18
296.229	17
296.596	17
296.964	17
297.331	17
297.699	17
298.066	17
298.434	18
298.801	18
299.168	18
299.536	18
299.903	18
300.270	18
300.638	18
301.005	18
301.372	18
301.739	18
302.106	18
302.473	18
302.840	19
303.207	19
303.574	19
303.941	19
304.308	19
304.675	20
305.042	20
305.409	19
305.776	20
306.143	19
306.509	20
306.876	20
307.243	20
307.610	20
307.976	20
308.343	20
308.709	20
309.076	20
309.442	21
309.809	20
310.175	20
310.542	20
310.908	20
311.275	20
311.641	21
312.007	21
312.373	21
312.740	21
313.106	21
313.472	21
313.838	21
314.204	21
314.570	22
314.936	22
315.302	22
315.668	22
316.034	23
316.400	23
316.766	23
317.132	23
317.498	24
317.864	24
318.230	25
318.595	25
318.961	25
319.327	26
319.692	26
320.058	27
320.424	28
320.789	28
321.155	29
321.520	30
321.886	30
322.251	31
322.616	31
322.982	32
323.347	33
323.712	34
324.078	35
324.443	36
324.808	38
325.173	39
325.539	40
325.904	41
326.269	42
326.634	43
326.999	44
327.364	45
327.729	46
328.094	47
328.459	48
328.823	50
329.188	51
329.553	52
329.918	53
330.283	54
330.647	55
331.012	56
331.377	57
331.741	58
332.106	59
332.470	60
332.835	61
333.199	63
333.564	64
333.928	65
334.293	67
334.657	68
335.021	69
335.386	71
335.750	73
336.114	75
336.478	76
336.843	78
337.207	80
337.571	81
337.935	83
338.299	85
338.663	86
339.027	88
339.391	90
339.755	91
340.119	93
340.483	95
340.846	96
341.210	98
341.574	99
341.938	101
342.301	103
342.665	104
343.029	106
343.392	107
343.756	108
344.119	110
344.483	111
344.846	112
345.210	114
345.573	116
345.937	117
346.300	118
346.663	119
347.027	121
347.390	122
347.753	123
348.116	125
348.479	126
348.843	128
349.206	129
349.569	130
349.932	131
350.295	132
350.658	133
351.021	135
351.383	135
351.746	136
352.109	137
352.472	138
352.835	139
353.197	140
353.560	141
353.923	142
354.285	143
354.648	144
355.011	145
355.373	145
355.736	146
356.098	147
356.461	148
356.823	149
357.185	149
357.548	151
357.910	151
358.272	152
358.635	154
358.997	155
359.359	155
359.721	156
360.083	157
360.445	157
360.807	158
361.169	159
361.531	160
361.893	160
362.255	161
362.617	161
362.979	162
363.341	163
363.703	163
364.064	164
364.426	165
364.788	166
365.149	166
365.511	167
365.873	167
366.234	167
366.596	167
366.957	168
367.319	169
367.680	169
368.042	170
368.403	170
368.764	170
369.126	170
369.487	171
369.848	171
370.209	171
370.570	171
370.931	171
371.293	171
371.654	171
372.015	170
372.376	170
372.737	170
373.098	170
373.458	170
373.819	170
374.180	170
374.541	171
374.902	171
375.263	171
375.623	172
375.984	172
376.345	173
376.705	174
377.066	174
377.426	174
377.787	174
378.147	175
378.508	175
378.868	175
379.228	175
379.589	176
379.949	176
380.309	177
380.670	177
381.030	177
381.390	178
381.750	178
382.110	178
382.470	178
382.830	178
383.190	177
383.550	178
383.910	178
384.270	178
384.630	178
384.990	179
385.350	179
385.709	180
386.069	180
386.429	180
386.788	180
387.148	180
387.508	180
387.867	180
388.227	181
388.586	181
388.946	182
389.305	183
389.665	183
390.024	184
390.383	185
390.743	186
391.102	186
391.461	187
391.820	187
392.179	187
392.539	187
392.898	187
393.257	187
393.616	187
393.975	188
394.334	189
394.693	190
395.051	191
395.410	192
395.769	193
396.128	193
396.487	193
396.845	194
397.204	193
397.563	193
397.921	193
398.280	193
398.638	193
398.997	193
399.355	193
399.714	193
400.072	194
400.431	194
400.789	194
401.147	195
401.506	195
401.864	195
402.222	195
402.580	194
402.938	194
403.297	193
403.655	193
404.013	192
404.371	192
404.729	192
405.087	192
405.444	192
405.802	192
406.160	192
406.518	192
406.876	192
407.233	192
407.591	192
407.949	192
408.306	192
408.664	192
409.022	192
409.379	192
409.737	192
410.094	192
410.451	192
410.809	193
411.166	193
411.523	193
411.881	194
412.238	194
412.595	194
412.952	194
413.310	194
413.667	194
414.024	194
414.381	194
414.738	195
415.095	195
415.452	195
415.809	195
416.165	195
416.522	196
416.879	196
417.236	197
417.593	198
417.949	199
418.306	201
418.663	202
419.019	204
419.376	206
419.732	208
420.089	210
420.445	211
420.802	213
421.158	214
421.514	216
421.871	217
422.227	218
422.583	219
422.939	220
423.295	221
423.652	222
424.008	223
424.364	223
424.720	223
425.076	223
425.432	223
425.788	223
426.143	224
426.499	224
426.855	225
427.211	225
427.567	227
427.922	227
428.278	228
428.634	228
428.989	228
429.345	228
429.700	228
430.056	229
430.411	230
430.767	231
431.122	232
431.478	233
431.833	234
432.188	235
432.543	235
432.899	236
433.254	236
433.609	236
433.964	236
434.319	236
434.674	236
435.029	236
435.384	237
435.739	237
436.094	239
436.449	240
436.804	242
437.158	244
437.513	246
437.868	249
438.223	252
438.577	255
438.932	257
439.287	260
439.641	263
439.996	267
440.350	270
440.704	273
441.059	277
441.413	280
441.768	283
442.122	287
442.476	290
442.830	293
443.185	296
443.539	299
443.893	302
444.247	305
444.601	307
444.955	309
445.309	310
445.663	311
446.017	312
446.371	313
446.724	314
447.078	315
447.432	315
447.786	315
448.139	316
448.493	316
448.847	316
449.200	316
449.554	316
449.907	315
450.261	316
450.614	316
450.968	316
451.321	316
451.674	317
452.027	317
452.381	318
452.734	319
453.087	320
453.440	321
453.793	322
454.146	324
454.499	326
454.852	329
455.205	333
455.558	336
455.911	340
456.264	343
456.617	347
456.970	350
457.322	354
457.675	356
458.028	359
458.380	362
458.733	364
459.086	366
459.438	369
459.791	372
460.143	376
460.496	381
460.848	385
461.200	391
461.553	396
461.905	401
462.257	406
462.609	410
462.961	414
463.314	418
463.666	421
464.018	424
464.370	427
464.722	430
465.074	434
465.426	437
465.777	441
466.129	443
466.481	446
466.833	448
467.184	448
467.536	449
467.888	449
468.239	450
468.591	450
468.943	450
469.294	451
469.646	453
469.997	455
470.348	459
470.700	463
471.051	468
471.402	474
471.754	481
472.105	488
472.456	496
472.807	505
473.158	514
473.509	524
473.860	535
474.211	546
474.562	558
474.913	570
475.264	583
475.615	595
475.966	608
476.316	621
476.667	633
477.018	646
477.368	659
477.719	673
478.070	686
478.420	698
478.771	710
479.121	722
479.472	734
479.822	746
480.172	759
480.523	775
480.873	796
481.223	830
481.573	881
481.924	945
482.274	1017
482.624	1092
482.974	1167
483.324	1233
483.674	1283
484.024	1318
484.374	1341
484.724	1356
485.073	1368
485.423	1378
485.773	1387
486.123	1396
486.472	1405
486.822	1413
487.172	1421
487.521	1426
487.871	1430
488.220	1427
488.570	1410
488.919	1378
489.268	1332
489.618	1278
489.967	1220
490.316	1161
490.666	1110
491.015	1075
491.364	1054
491.713	1045
492.062	1044
492.411	1046
492.760	1051
493.109	1056
493.458	1062
493.807	1066
494.156	1071
494.505	1075
494.853	1080
495.202	1086
495.551	1094
495.900	1101
496.248	1109
496.597	1117
496.945	1124
497.294	1131
497.642	1139
497.991	1149
498.339	1159
498.688	1170
499.036	1181
499.384	1190
499.732	1199
500.081	1207
500.429	1214
500.777	1221
501.125	1227
501.473	1233
501.821	1240
502.169	1246
502.517	1252
502.865	1256
503.213	1260
503.561	1262
503.908	1265
504.256	1267
504.604	1268
504.952	1269
505.299	1269
505.647	1268
505.994	1266
506.342	1264
506.689	1262
507.037	1260
507.384	1259
507.732	1259
508.079	1260
508.426	1260
508.774	1261
509.121	1260
509.468	1260
509.815	1259
510.162	1258
510.509	1257
510.856	1256
511.203	1254
511.550	1253
511.897	1252
512.244	1250
512.591	1249
512.938	1248
513.284	1247
513.631	1245
513.978	1243
514.324	1240
514.671	1237
515.018	1234
515.364	1232
515.711	1230
516.057	1228
516.403	1226
516.750	1224
517.096	1220
517.443	1217
517.789	1214
518.135	1210
518.481	1208
518.827	1205
519.173	1202
519.519	1199
519.865	1197
520.211	1195
520.557	1193
520.903	1192
521.249	1191
521.595	1190
521.941	1189
522.287	1188
522.632	1188
522.978	1187
523.324	1186
523.669	1187
524.015	1188
524.360	1192
524.706	1196
525.051	1202
525.397	1209
525.742	1216
526.087	1223
526.433	1231
526.778	1237
527.123	1242
527.468	1246
527.813	1250
528.158	1254
528.504	1260
528.849	1267
529.193	1277
529.538	1287
529.883	1301
530.228	1316
530.573	1333
530.918	1351
531.263	1368
531.607	1385
531.952	1399
532.296	1411
532.641	1422
532.986	1430
533.330	1438
533.675	1446
534.019	1458
534.363	1472
534.708	1488
535.052	1506
535.396	1525
535.741	1544
536.085	1560
536.429	1576
536.773	1589
537.117	1599
537.461	1609
537.805	1618
538.149	1627
538.493	1637
538.837	1648
539.181	1661
539.524	1677
539.868	1696
540.212	1716
540.556	1738
540.899	1760
541.243	1781
541.586	1798
541.930	1812
542.273	1823
542.617	1833
542.960	1842
543.304	1855
543.647	1870
543.990	1889
544.333	1911
544.677	1933
545.020	1954
545.363	1972
545.706	1987
546.049	1998
546.392	2005
546.735	2009
547.078	2012
547.421	2015
547.764	2019
548.106	2025
548.449	2034
548.792	2046
549.135	2063
549.477	2082
549.820	2101
550.162	2118
550.505	2132
550.847	2143
551.190	2151
551.532	2158
551.875	2166
552.217	2175
552.559	2186
552.901	2201
553.244	2217
553.586	2236
553.928	2255
554.270	2273
554.612	2288
554.954	2301
555.296	2311
555.638	2322
555.980	2334
556.322	2349
556.663	2368
557.005	2393
557.347	2424
557.689	2456
558.030	2488
558.372	2519
558.713	2547
559.055	2574
559.396	2601
559.738	2629
560.079	2659
560.421	2694
560.762	2733
561.103	2775
561.444	2822
561.786	2870
562.127	2921
562.468	2976
562.809	3036
563.150	3103
563.491	3174
563.832	3253
564.173	3344
564.514	3447
564.855	3571
565.195	3723
565.536	3903
565.877	4111
566.218	4347
566.558	4614
566.899	4905
567.239	5221
567.580	5552
567.920	5892
568.261	6236
568.601	6589
568.941	6954
569.282	7331
569.622	7723
569.962	8132
570.302	8569
570.643	9022
570.983	9479
571.323	9920
571.663	10349
572.003	10756
572.343	11139
572.683	11501
573.022	11871
573.362	12262
573.702	12669
574.042	13077
574.381	13470
574.721	13845
575.061	14205
575.400	14534
575.740	14827
576.079	15092
576.419	15354
576.758	15652
577.097	16004
577.437	16387
577.776	16795
578.115	17222
578.454	17654
578.794	18051
579.133	18363
579.472	18581
579.811	18713
580.150	18766
580.489	18760
580.828	18729
581.167	18702
581.505	18692
581.844	18690
582.183	18688
582.522	18698
582.860	18719
583.199	18739
583.538	18732
583.876	18664
584.215	18518
584.553	18284
584.891	17970
585.230	17579
585.568	17147
585.906	16706
586.245	16309
586.583	15971
586.921	15692
587.259	15439
587.597	15183
587.935	14916
588.273	14640
588.611	14386
588.949	14165
589.287	13981
589.625	13842
589.963	13733
590.300	13649
590.638	13572
590.976	13484
591.313	13378
591.651	13277
591.989	13190
592.326	13121
592.664	13064
593.001	13018
593.338	12994
593.676	12985
594.013	13002
594.350	13059
594.687	13151
595.025	13252
595.362	13344
595.699	13412
596.036	13458
596.373	13474
596.710	13454
597.047	13414
597.384	13361
597.720	13302
598.057	13255
598.394	13224
598.731	13210
599.067	13219
599.404	13251
599.741	13314
600.077	13398
600.414	13491
600.750	13588
601.087	13661
601.423	13700
601.759	13707
602.096	13689
602.432	13654
602.768	13599
603.104	13520
603.440	13420
603.776	13313
604.112	13197
604.448	13079
604.784	12953
605.120	12820
605.456	12690
605.792	12555
606.128	12412
606.463	12264
606.799	12116
607.135	11982
607.470	11848
607.806	11717
608.142	11589
608.477	11465
608.812	11346
609.148	11226
609.483	11099
609.819	10968
610.154	10844
610.489	10731
610.824	10632
611.159	10550
611.494	10466
611.830	10392
612.165	10320
612.500	10237
612.834	10140
613.169	10029
613.504	9907
613.839	9772
614.174	9617
614.509	9462
614.843	9307
615.178	9160
615.512	9014
615.847	8871
616.182	8729
616.516	8585
616.850	8434
617.185	8276
617.519	8116
617.853	7943
618.188	7764
618.522	7602
618.856	7464
619.190	7345
619.524	7240
619.858	7157
620.192	7093
620.526	7036
620.860	6978
621.194	6923
621.528	6869
621.862	6814
622.195	6748
622.529	6677
622.863	6604
623.196	6531
623.530	6457
623.864	6382
624.197	6306
624.530	6232
624.864	6167
625.197	6097
625.531	6019
625.864	5924
626.197	5823
626.530	5713
626.863	5590
627.196	5456
627.529	5321
627.862	5187
628.195	5055
628.528	4923
628.861	4798
629.194	4686
629.527	4579
629.860	4473
630.192	4369
630.525	4271
630.858	4181
631.190	4094
631.523	4011
631.855	3934
632.188	3867
632.520	3804
632.852	3744
633.185	3683
633.517	3624
633.849	3571
634.182	3522
634.514	3475
634.846	3434
635.178	3397
635.510	3365
635.842	3336
636.174	3307
636.506	3278
636.837	3250
637.169	3222
637.501	3192
637.833	3159
638.164	3122
638.496	3081
638.828	3035
639.159	2983
639.491	2926
639.822	2867
640.154	2808
640.485	2750
640.816	2693
641.147	2636
641.479	2582
641.810	2529
642.141	2477
642.472	2426
642.803	2376
643.134	2329
643.465	2288
643.796	2255
644.127	2233
644.458	2221
644.789	2221
645.119	2235
645.450	2256
645.781	2280
646.111	2303
646.442	2323
646.773	2339
647.103	2351
647.433	2362
647.764	2374
648.094	2389
648.425	2408
648.755	2431
649.085	2458
649.415	2487
649.745	2516
650.075	2546
650.405	2580
650.735	2655
651.065	3195
651.395	4875
651.725	7652
652.055	11256
652.385	14906
652.715	18555
653.044	22206
653.374	25862
653.704	29523
654.033	31941
654.363	33594
654.692	34682
655.022	35388
655.351	35850
655.680	36135
656.010	36288
656.339	36356
656.668	36374
656.997	36364
657.326	36335
657.655	36253
657.984	35695
658.313	33990
658.642	31177
658.971	27529
659.300	23830
659.629	20132
659.958	16434
660.286	12737
660.615	9041
660.944	6596
661.272	4919
661.601	3807
661.929	3076
662.258	2585
662.586	2265
662.915	2071
663.243	1958
663.571	1895
663.899	1856
664.228	1832
664.556	1816
664.884	1805
665.212	1798
665.540	1792
665.868	1790
666.196	1789
666.524	1788
666.852	1790
667.179	1798
667.507	1811
667.835	1832
668.162	1859
668.490	1893
668.818	1932
669.145	1974
669.473	2016
669.800	2054
670.127	2088
670.455	2116
670.782	2139
671.109	2161
671.436	2178
671.764	2192
672.091	2204
672.418	2214
672.745	2222
673.072	2231
673.399	2241
673.726	2251
674.053	2260
674.379	2262
674.706	2262
675.033	2261
675.359	2258
675.686	2253
676.013	2251
676.339	2253
676.666	2261
676.992	2278
677.318	2301
677.645	2328
677.971	2353
678.297	2376
678.624	2399
678.950	2420
679.276	2440
679.602	2459
679.928	2479
680.254	2505
680.580	2536
680.906	2577
681.232	2627
681.558	2679
681.883	2730
682.209	2778
682.535	2822
682.860	2863
683.186	2897
683.511	2923
683.837	2940
684.162	2954
684.488	2964
684.813	2975
685.138	2986
685.464	2995
685.789	3003
686.114	3011
686.439	3021
686.764	3033
687.089	3041
687.414	3041
687.739	3032
688.064	3014
688.389	2991
688.714	2964
689.039	2934
689.363	2904
689.688	2870
690.013	2837
690.337	2807
690.662	2784
690.986	2762
691.311	2740
691.635	2718
691.959	2697
692.284	2684
692.608	2680
692.932	2686
693.256	2695
693.580	2706
693.904	2721
694.228	2739
694.552	2754
694.876	2761
695.200	2760
695.524	2748
695.848	2730
696.172	2707
696.495	2684
696.819	2660
697.143	2635
697.466	2609
697.790	2588
698.113	2574
698.437	2567
698.760	2565
699.083	2564
699.407	2557
699.730	2543
700.053	2522
700.376	2493
700.699	2453
701.022	2403
701.345	2347
701.668	2296
701.991	2254
702.314	2224
702.637	2211
702.960	2217
703.283	2241
703.605	2282
703.928	2338
704.251	2400
704.573	2462
704.896	2518
705.218	2563
705.540	2600
705.863	2629
706.185	2653
706.507	2674
706.830	2694
707.152	2715
707.474	2737
707.796	2761
708.118	2787
708.440	2812
708.762	2834
709.084	2851
709.406	2861
709.728	2863
710.049	2857
710.371	2845
710.693	2826
711.014	2805
711.336	2785
711.658	2766
711.979	2750
712.301	2735
712.622	2719
712.943	2700
713.265	2676
713.586	2652
713.907	2629
714.228	2608
714.549	2592
714.870	2581
715.191	2576
715.512	2575
715.833	2571
716.154	2564
716.475	2552
716.796	2536
717.117	2511
717.437	2483
717.758	2451
718.078	2419
718.399	2387
718.719	2359
719.040	2335
719.360	2316
719.681	2303
720.001	2294
720.321	2289
720.642	2287
720.962	2289
721.282	2294
721.602	2301
721.922	2310
722.242	2320
722.562	2336
722.882	2354
723.202	2371
723.521	2385
723.841	2401
724.161	2417
724.481	2433
724.800	2450
725.120	2471
725.439	2497
725.759	2526
726.078	2559
726.398	2599
726.717	2649
727.036	2706
727.355	2765
727.675	2824
727.994	2878
728.313	2931
728.632	2976
728.951	3013
729.270	3045
729.589	3075
729.908	3113
730.226	3155
730.545	3202
730.864	3253
731.182	3307
731.501	3363
731.820	3415
732.138	3461
732.457	3501
732.775	3538
733.093	3567
733.412	3584
733.730	3589
734.048	3580
734.367	3564
734.685	3542
735.003	3517
735.321	3494
735.639	3476
735.957	3462
736.275	3449
736.593	3430
736.910	3401
737.228	3360
737.546	3307
737.863	3246
738.181	3179
738.499	3108
738.816	3039
739.134	2970
739.451	2900
739.768	2831
740.086	2765
740.403	2702
740.720	2644
741.038	2589
741.355	2537
741.672	2486
741.989	2433
742.306	2378
742.623	2321
742.940	2265
743.257	2214
743.573	2169
743.890	2132
744.207	2105
744.523	2086
744.840	2074
745.157	2066
745.473	2065
745.790	2072
746.106	2088
746.422	2113
746.739	2143
747.055	2179
747.371	2221
747.687	2264
748.004	2305
748.320	2341
748.636	2373
748.952	2405
749.268	2437
749.584	2468
749.899	2496
750.215	2524
750.531	2557
750.847	2593
751.162	2630
751.478	2665
751.793	2702
752.109	2741
752.424	2783
752.740	2826
753.055	2874
753.370	2933
753.686	3001
754.001	3075
754.316	3151
754.631	3232
754.946	3319
755.261	3410
755.576	3498
755.891	3582
756.206	3667
756.521	3756
756.836	3846
757.150	3933
757.465	4009
757.780	4075
758.094	4130
758.409	4172
758.723	4198
759.038	4209
759.352	4209
759.667	4197
759.981	4176
760.295	4154
760.609	4138
760.923	4128
761.238	4122
761.552	4118
761.866	4112
762.180	4103
762.493	4080
762.807	4037
763.121	3971
763.435	3889
763.749	3799
764.062	3715
764.376	3644
764.689	3597
765.003	3571
765.316	3568
765.630	3580
765.943	3600
766.257	3624
766.570	3644
766.883	3650
767.196	3640
767.509	3617
767.822	3582
768.135	3538
768.448	3489
768.761	3439
769.074	3395
769.387	3361
769.700	3340
770.013	3328
770.325	3318
770.638	3302
770.950	3275
771.263	3230
771.575	3169
771.888	3091
772.200	3000
772.513	2902
772.825	2798
773.137	2692
773.449	2588
773.761	2487
774.074	2393
774.386	2310
774.698	2240
775.010	2182
775.321	2141
775.633	2115
775.945	2100
776.257	2091
776.568	2088
776.880	2095
777.192	2111
777.503	2134
777.815	2162
778.126	2198
778.438	2243
778.749	2290
779.060	2336
779.372	2380
779.683	2422
779.994	2460
780.305	2490
780.616	2510
780.927	2524
781.238	2528
781.549	2522
781.860	2505
782.171	2482
782.481	2456
782.792	2431
783.103	2405
783.413	2377
783.724	2347
784.034	2318
784.345	2293
784.655	2269
784.966	2245
785.276	2220
785.586	2195
785.896	2170
786.207	2144
786.517	2117
786.827	2089
787.137	2064
787.447	2039
787.757	2016
788.066	1993
788.376	1971
788.686	1950
788.996	1928
789.305	1906
789.615	1889
789.925	1879
790.234	1877
790.544	1882
790.853	1892
791.162	1902
791.472	1911
791.781	1914
792.090	1910
792.399	1898
792.708	1880
793.017	1860
793.326	1841
793.635	1823
793.944	1807
794.253	1792
794.562	1782
794.871	1776
795.179	1772
795.488	1766
795.797	1757
796.105	1741
796.414	1715
796.722	1679
797.031	1634
797.339	1580
797.647	1520
797.956	1457
798.264	1398
798.572	1350
798.880	1311
799.188	1284
799.496	1264
799.804	1249
800.112	1237
800.420	1228
800.728	1218
801.035	1205
801.343	1190
801.651	1179
801.958	1176
802.266	1181
802.573	1191
802.881	1204
803.188	1220
803.496	1237
803.803	1255
804.110	1271
804.417	1285
804.724	1298
805.032	1310
805.339	1320
805.646	1327
805.953	1330
806.259	1331
806.566	1329
806.873	1324
807.180	1317
807.486	1310
807.793	1302
808.100	1289
808.406	1268
808.713	1239
809.019	1206
809.326	1172
809.632	1140
809.938	1109
810.244	1081
810.551	1058
810.857	1038
811.163	1021
811.469	1003
811.775	984
812.081	964
812.387	946
812.692	931
812.998	921
813.304	912
813.610	905
813.915	899
814.221	895
814.526	891
814.832	887
815.137	883
815.443	877
815.748	869
816.053	857
816.358	846
816.664	835
816.969	825
817.274	817
817.579	810
817.884	806
818.189	805
818.493	805
818.798	803
819.103	798
819.408	790
819.712	781
820.017	771
820.321	761
820.626	750
820.930	740
821.235	734
821.539	732
821.843	732
822.148	734
822.452	736
822.756	735
823.060	732
823.364	728
823.668	722
823.972	714
824.276	707
824.580	701
824.883	698
825.187	696
825.491	696
825.795	696
826.098	696
826.402	696
826.705	693
827.008	688
827.312	681
827.615	670
827.918	656
828.222	640
828.525	624
828.828	609
829.131	594
829.434	579
829.737	565
830.040	554
830.343	545
830.645	537
830.948	529
831.251	521
831.553	514
831.856	508
832.159	503
832.461	496
832.764	489
833.066	482
833.368	476
833.671	472
833.973	469
834.275	466
834.577	463
834.879	459
835.181	454
835.483	449
835.785	443
836.087	435
836.389	426
836.690	415
836.992	404
837.294	392
837.595	379
837.897	366
838.198	353
838.500	341
838.801	330
839.103	321
839.404	313
839.705	306
840.006	300
840.307	296
840.608	293
840.910	290
841.210	288
841.511	286
841.812	283
842.113	280
842.414	276
842.715	271
843.015	266
843.316	260
843.616	255
843.917	250
844.217	245
844.518	242
844.818	239
845.118	237
845.419	236
845.719	235
846.019	233
846.319	232
846.619	231
846.919	230
847.219	229
847.519	228
847.819	226
848.118	227
848.418	230
848.718	236
849.017	248
849.317	264
849.616	284
849.916	306
850.215	331
850.515	358
850.814	385
851.113	409
851.412	431
851.712	451
852.011	469
852.310	486
852.609	502
852.908	515
853.206	527
853.505	538
853.804	548
854.103	556
854.401	562
854.700	564
854.999	562
855.297	555
855.595	543
855.894	528
856.192	508
856.491	487
856.789	462
857.087	438
857.385	415
857.683	394
857.981	375
858.279	358
858.577	341
858.875	327
859.173	316
859.471	306
859.768	298
860.066	291
860.363	285
860.661	281
860.959	277
861.256	274
861.553	270
861.851	265
862.148	260
862.445	254
862.742	249
863.039	245
863.337	241
863.634	239
863.931	237
864.227	236
864.524	236
864.821	236
865.118	235
865.415	233
865.711	230
866.008	226
866.304	221
866.601	217
866.897	213
867.194	210
867.490	208
867.786	207
868.082	207
868.379	207
868.675	208
868.971	209
869.267	209
869.563	209
869.859	208
870.154	207
870.450	206
870.746	205
871.042	204
871.337	204
871.633	205
871.928	206
872.224	207
872.519	209
872.815	211
873.110	212
873.405	211
873.700	211
873.995	210
874.291	210
874.586	211
874.881	212
875.175	214
875.470	217
875.765	221
876.060	225
876.355	230
876.649	234
876.944	238
877.238	243
877.533	246
877.827	248
878.122	251
878.416	252
878.710	251
879.005	251
879.299	250
879.593	249
879.887	248
880.181	247
880.475	245
880.769	243
881.063	241
881.356	239
881.650	235
881.944	232
882.238	198
882.531	181
882.825	185
883.118	187
883.412	187
883.705	184
883.998	189
884.291	193
884.585	194
884.878	207
>>>>>>>>>> END of Data <<<<<<<<<<