Date	2021年06月15日火曜日 04時05分46秒
Spectrometers	USB2+H05879
ダーク	使用
リファレンス	使用
積分時間[msec]	10
平均回数	280
ｽﾑｰｼﾞﾝｸﾞ	10
Electrical Dark	USE
ピクセル数	2048
計測モード	吸光度
保存開始波長[nm]	190.664
保存終了波長[nm]	884.878
保存ﾋﾟｯﾁ波長[nm]	全波長

>>>>>>>>>> Data Start <<<<<<<<<<<<
190.664	0.000000
191.040	0.000000
191.415	0.000000
191.791	-2.130470
192.166	-0.511024
192.542	-0.917815
192.917	0.000000
193.293	-0.482665
193.668	-0.441950
194.044	-0.692454
194.419	0.000000
194.794	-1.336863
195.170	-1.273395
195.545	-1.195264
195.920	-1.075044
196.296	-0.960942
196.671	-0.802446
197.046	-0.643412
197.421	-0.591132
197.796	-0.585472
198.171	-0.560687
198.546	-0.518567
198.922	-0.475462
199.297	-0.454875
199.672	-0.437537
200.047	-0.415784
200.422	-0.374394
200.796	-0.366060
201.171	-0.351790
201.546	-0.354090
201.921	-0.349318
202.296	-0.340520
202.671	-0.316984
203.045	-0.287625
203.420	-0.272248
203.795	-0.253904
204.170	-0.244236
204.544	-0.237445
204.919	-0.249030
205.294	-0.250724
205.668	-0.235451
206.043	-0.213360
206.417	-0.218991
206.792	-0.209067
207.166	-0.202876
207.541	-0.196797
207.915	-0.202241
208.289	-0.196906
208.664	-0.195958
209.038	-0.194896
209.412	-0.178773
209.787	-0.155960
210.161	-0.138398
210.535	-0.138515
210.909	-0.123394
211.284	-0.114796
211.658	-0.121062
212.032	-0.121343
212.406	-0.124909
212.780	-0.116413
213.154	-0.111730
213.528	-0.118541
213.902	-0.124940
214.276	-0.112703
214.650	-0.118043
215.024	-0.109181
215.398	-0.102276
215.772	-0.091565
216.145	-0.080512
216.519	-0.068918
216.893	-0.063353
217.267	-0.069999
217.640	-0.079382
218.014	-0.072216
218.388	-0.060858
218.761	-0.067872
219.135	-0.062202
219.508	-0.054883
219.882	-0.065231
220.256	-0.059969
220.629	-0.053190
221.003	-0.054519
221.376	-0.050759
221.749	-0.056351
222.123	-0.059228
222.496	-0.054928
222.869	-0.052778
223.243	-0.055395
223.616	-0.059461
223.989	-0.071826
224.362	-0.070344
224.736	-0.072959
225.109	-0.064776
225.482	-0.063365
225.855	-0.063076
226.228	-0.068185
226.601	-0.063623
226.974	-0.057830
227.347	-0.058471
227.720	-0.050579
228.093	-0.057285
228.466	-0.063119
228.839	-0.064027
229.212	-0.064877
229.585	-0.073459
229.957	-0.071951
230.330	-0.071145
230.703	-0.070987
231.076	-0.076950
231.448	-0.079804
231.821	-0.078617
232.194	-0.079535
232.566	-0.083934
232.939	-0.087508
233.311	-0.090089
233.684	-0.091002
234.056	-0.090159
234.429	-0.091114
234.801	-0.097284
235.174	-0.091422
235.546	-0.089823
235.918	-0.085141
236.291	-0.082956
236.663	-0.070195
237.035	-0.068649
237.408	-0.055290
237.780	-0.047820
238.152	-0.052772
238.524	-0.058277
238.896	-0.051940
239.268	-0.050739
239.641	-0.054888
240.013	-0.048138
240.385	-0.038497
240.757	-0.045634
241.129	-0.041381
241.500	-0.044821
241.872	-0.042185
242.244	-0.041876
242.616	-0.038626
242.988	-0.038446
243.360	-0.035605
243.731	-0.028750
244.103	-0.028023
244.475	-0.034891
244.847	-0.025342
245.218	-0.024621
245.590	-0.021807
245.961	-0.015595
246.333	-0.013855
246.705	-0.012640
247.076	-0.004222
247.448	0.006936
247.819	0.006296
248.190	0.011774
248.562	0.013635
248.933	0.015010
249.305	0.016594
249.676	0.018265
250.047	0.016899
250.418	0.010812
250.790	0.009091
251.161	0.007772
251.532	0.000583
251.903	-0.002884
252.274	0.007458
252.645	0.009506
253.016	0.011455
253.387	0.003392
253.758	0.004803
254.129	0.006309
254.500	0.010154
254.871	0.002293
255.242	-0.005420
255.613	-0.008626
255.984	-0.021015
256.355	-0.014418
256.725	-0.012696
257.096	-0.010068
257.467	-0.015964
257.838	-0.017250
258.208	-0.012724
258.579	-0.014747
258.949	-0.015390
259.320	-0.011972
259.690	-0.007445
260.061	-0.010938
260.431	-0.014474
260.802	-0.020945
261.172	-0.015087
261.543	-0.015118
261.913	-0.012425
262.283	-0.015620
262.654	-0.014332
263.024	-0.011230
263.394	-0.010273
263.764	-0.002318
264.135	-0.003992
264.505	-0.004472
264.875	-0.002884
265.245	0.001111
265.615	0.001918
265.985	0.005028
266.355	0.013653
266.725	0.012976
267.095	0.013937
267.465	0.018486
267.835	0.018376
268.205	0.012801
268.575	0.015341
268.944	0.014167
269.314	0.010400
269.684	0.007015
270.054	0.003667
270.423	0.008012
270.793	0.007722
271.163	0.013359
271.532	0.019367
271.902	0.026094
272.271	0.028278
272.641	0.030711
273.010	0.026832
273.380	0.022493
273.749	0.015683
274.119	0.020413
274.488	0.029595
274.857	0.036372
275.227	0.034335
275.596	0.030816
275.965	0.038461
276.335	0.045236
276.704	0.042376
277.073	0.047319
277.442	0.059685
277.811	0.062467
278.180	0.068628
278.549	0.067019
278.918	0.065468
279.287	0.061152
279.656	0.060415
280.025	0.058430
280.394	0.050551
280.763	0.058566
281.132	0.069414
281.501	0.075584
281.869	0.064774
282.238	0.065735
282.607	0.053141
282.976	0.053950
283.344	0.062672
283.713	0.057110
284.081	0.049875
284.450	0.053079
284.819	0.057723
285.187	0.056113
285.556	0.051671
285.924	0.044740
286.292	0.045233
286.661	0.041115
287.029	0.039390
287.398	0.042294
287.766	0.042381
288.134	0.049327
288.502	0.046652
288.871	0.044029
289.239	0.045512
289.607	0.048393
289.975	0.043574
290.343	0.046077
290.711	0.042572
291.079	0.037598
291.447	0.044567
291.815	0.047791
292.183	0.045546
292.551	0.039150
292.919	0.036695
293.287	0.043179
293.655	0.046712
294.022	0.050160
294.390	0.054740
294.758	0.057461
295.126	0.054507
295.493	0.058974
295.861	0.061980
296.229	0.057535
296.596	0.059304
296.964	0.058287
297.331	0.057203
297.699	0.057896
298.066	0.071445
298.434	0.080903
298.801	0.084353
299.168	0.081328
299.536	0.087021
299.903	0.094381
300.270	0.104314
300.638	0.109904
301.005	0.120048
301.372	0.133006
301.739	0.137715
302.106	0.138902
302.473	0.146026
302.840	0.149883
303.207	0.165455
303.574	0.181714
303.941	0.204390
304.308	0.218140
304.675	0.234065
305.042	0.252350
305.409	0.277822
305.776	0.289863
306.143	0.302733
306.509	0.325941
306.876	0.351567
307.243	0.374246
307.610	0.401522
307.976	0.428520
308.343	0.455961
308.709	0.484942
309.076	0.511747
309.442	0.541867
309.809	0.576609
310.175	0.607024
310.542	0.639649
310.908	0.666991
311.275	0.693352
311.641	0.719490
312.007	0.748439
312.373	0.777122
312.740	0.806086
313.106	0.831051
313.472	0.865116
313.838	0.901480
314.204	0.926636
314.570	0.948455
314.936	0.978079
315.302	0.998866
315.668	1.016397
316.034	1.043062
316.400	1.069424
316.766	1.084538
317.132	1.111021
317.498	1.133394
317.864	1.149442
318.230	1.168495
318.595	1.186480
318.961	1.205237
319.327	1.223969
319.692	1.241118
320.058	1.250546
320.424	1.268736
320.789	1.285288
321.155	1.299175
321.520	1.309917
321.886	1.329934
322.251	1.345031
322.616	1.354857
322.982	1.365138
323.347	1.376704
323.712	1.391208
324.078	1.399388
324.443	1.413281
324.808	1.419141
325.173	1.427100
325.539	1.437377
325.904	1.443194
326.269	1.452315
326.634	1.458541
326.999	1.465022
327.364	1.468660
327.729	1.478037
328.094	1.482256
328.459	1.486829
328.823	1.490973
329.188	1.499192
329.553	1.498277
329.918	1.504709
330.283	1.511627
330.647	1.520078
331.012	1.524833
331.377	1.525801
331.741	1.528481
332.106	1.532726
332.470	1.540318
332.835	1.542238
333.199	1.544930
333.564	1.551848
333.928	1.553533
334.293	1.554140
334.657	1.552761
335.021	1.557080
335.386	1.558550
335.750	1.559427
336.114	1.561803
336.478	1.563333
336.843	1.562588
337.207	1.565219
337.571	1.567840
337.935	1.567600
338.299	1.566276
338.663	1.565988
339.027	1.566856
339.391	1.567172
339.755	1.565970
340.119	1.563737
340.483	1.564395
340.846	1.565867
341.210	1.565054
341.574	1.566149
341.938	1.567445
342.301	1.569481
342.665	1.569714
343.029	1.569636
343.392	1.571787
343.756	1.571504
344.119	1.571725
344.483	1.572091
344.846	1.573462
345.210	1.573301
345.573	1.573502
345.937	1.574316
346.300	1.576729
346.663	1.576503
347.027	1.578352
347.390	1.579257
347.753	1.579659
348.116	1.580264
348.479	1.581826
348.843	1.581883
349.206	1.581546
349.569	1.581517
349.932	1.583036
350.295	1.584970
350.658	1.587801
351.021	1.589223
351.383	1.590593
351.746	1.591967
352.109	1.594039
352.472	1.593556
352.835	1.593816
353.197	1.594939
353.560	1.596830
353.923	1.596953
354.285	1.596815
354.648	1.596385
355.011	1.596992
355.373	1.598185
355.736	1.598669
356.098	1.598796
356.461	1.600127
356.823	1.601358
357.185	1.602781
357.548	1.603998
357.910	1.603447
358.272	1.602249
358.635	1.601099
358.997	1.600842
359.359	1.602719
359.721	1.603260
360.083	1.605092
360.445	1.606941
360.807	1.607952
361.169	1.608747
361.531	1.609310
361.893	1.612203
362.255	1.613669
362.617	1.615417
362.979	1.617063
363.341	1.618412
363.703	1.619107
364.064	1.621100
364.426	1.621869
364.788	1.621774
365.149	1.622989
365.511	1.624992
365.873	1.627389
366.234	1.628484
366.596	1.629678
366.957	1.629232
367.319	1.630531
367.680	1.630561
368.042	1.629818
368.403	1.631572
368.764	1.633605
369.126	1.634154
369.487	1.634933
369.848	1.636630
370.209	1.637797
370.570	1.638396
370.931	1.639834
371.293	1.641966
371.654	1.642689
372.015	1.644645
372.376	1.647318
372.737	1.647872
373.098	1.648022
373.458	1.648357
373.819	1.651056
374.180	1.653994
374.541	1.655639
374.902	1.656059
375.263	1.657741
375.623	1.659970
375.984	1.660878
376.345	1.660276
376.705	1.662291
377.066	1.663988
377.426	1.664423
377.787	1.665401
378.147	1.666603
378.508	1.667379
378.868	1.667796
379.228	1.667883
379.589	1.667854
379.949	1.668710
380.309	1.670430
380.670	1.671849
381.030	1.672853
381.390	1.673143
381.750	1.671970
382.110	1.672779
382.470	1.673947
382.830	1.674930
383.190	1.676010
383.550	1.676524
383.910	1.678459
384.270	1.679521
384.630	1.680944
384.990	1.682188
385.350	1.683122
385.709	1.683721
386.069	1.685864
386.429	1.686482
386.788	1.688215
387.148	1.690234
387.508	1.690291
387.867	1.690257
388.227	1.690529
388.586	1.692296
388.946	1.693163
389.305	1.694648
389.665	1.695390
390.024	1.697148
390.383	1.697928
390.743	1.698312
391.102	1.698775
391.461	1.698633
391.820	1.699566
392.179	1.698569
392.539	1.698330
392.898	1.699954
393.257	1.700863
393.616	1.701616
393.975	1.702139
394.334	1.703387
394.693	1.703465
395.051	1.705092
395.410	1.704839
395.769	1.706402
396.128	1.707927
396.487	1.708539
396.845	1.708975
397.204	1.708935
397.563	1.708101
397.921	1.708601
398.280	1.707657
398.638	1.706389
398.997	1.706953
399.355	1.706302
399.714	1.706804
400.072	1.705850
400.431	1.704110
400.789	1.703011
401.147	1.701622
401.506	1.700231
401.864	1.698796
402.222	1.697708
402.580	1.695295
402.938	1.695811
403.297	1.694535
403.655	1.692380
404.013	1.691320
404.371	1.690591
404.729	1.689271
405.087	1.688431
405.444	1.687875
405.802	1.686984
406.160	1.687613
406.518	1.686269
406.876	1.686093
407.233	1.685167
407.591	1.685557
407.949	1.685103
408.306	1.684525
408.664	1.683859
409.022	1.684275
409.379	1.683462
409.737	1.682335
410.094	1.682296
410.451	1.680901
410.809	1.680249
411.166	1.678774
411.523	1.678139
411.881	1.677640
412.238	1.677347
412.595	1.675372
412.952	1.674472
413.310	1.674155
413.667	1.673801
414.024	1.673624
414.381	1.672791
414.738	1.672646
415.095	1.671069
415.452	1.669260
415.809	1.668366
416.165	1.668131
416.522	1.666664
416.879	1.665684
417.236	1.664379
417.593	1.662929
417.949	1.661357
418.306	1.659674
418.663	1.659613
419.019	1.658472
419.376	1.656061
419.732	1.654685
420.089	1.653999
420.445	1.652212
420.802	1.651551
421.158	1.649082
421.514	1.646503
421.871	1.644601
422.227	1.641781
422.583	1.640744
422.939	1.639163
423.295	1.637304
423.652	1.634896
424.008	1.632818
424.364	1.631084
424.720	1.630219
425.076	1.628834
425.432	1.627330
425.788	1.625363
426.143	1.622596
426.499	1.619939
426.855	1.619167
427.211	1.617236
427.567	1.615676
427.922	1.614222
428.278	1.610842
428.634	1.609467
428.989	1.607096
429.345	1.604192
429.700	1.602556
430.056	1.600444
430.411	1.599113
430.767	1.597455
431.122	1.595169
431.478	1.592702
431.833	1.590147
432.188	1.586583
432.543	1.584213
432.899	1.581325
433.254	1.577930
433.609	1.574636
433.964	1.571942
434.319	1.568163
434.674	1.564916
435.029	1.561635
435.384	1.558022
435.739	1.555891
436.094	1.553229
436.449	1.550847
436.804	1.548371
437.158	1.545149
437.513	1.542054
437.868	1.538466
438.223	1.534935
438.577	1.531174
438.932	1.529182
439.287	1.525862
439.641	1.522863
439.996	1.519366
440.350	1.516085
440.704	1.513820
441.059	1.511374
441.413	1.507885
441.768	1.504425
442.122	1.501092
442.476	1.497335
442.830	1.493788
443.185	1.490292
443.539	1.486420
443.893	1.483066
444.247	1.479100
444.601	1.475779
444.955	1.471418
445.309	1.467424
445.663	1.463320
446.017	1.459552
446.371	1.454633
446.724	1.449809
447.078	1.445468
447.432	1.441160
447.786	1.436793
448.139	1.431593
448.493	1.426625
448.847	1.422083
449.200	1.417762
449.554	1.413337
449.907	1.409316
450.261	1.404592
450.614	1.400145
450.968	1.395602
451.321	1.390437
451.674	1.385963
452.027	1.380737
452.381	1.376580
452.734	1.372283
453.087	1.367614
453.440	1.362712
453.793	1.358202
454.146	1.354043
454.499	1.349537
454.852	1.344944
455.205	1.340322
455.558	1.336307
455.911	1.332105
456.264	1.328034
456.617	1.323823
456.970	1.319747
457.322	1.315696
457.675	1.312084
458.028	1.308162
458.380	1.304314
458.733	1.300695
459.086	1.297062
459.438	1.293430
459.791	1.289636
460.143	1.285400
460.496	1.281624
460.848	1.277754
461.200	1.273731
461.553	1.269838
461.905	1.266298
462.257	1.262364
462.609	1.258786
462.961	1.255189
463.314	1.251373
463.666	1.247558
464.018	1.243589
464.370	1.240084
464.722	1.236207
465.074	1.232504
465.426	1.229009
465.777	1.225688
466.129	1.222562
466.481	1.218915
466.833	1.215655
467.184	1.212468
467.536	1.209061
467.888	1.205464
468.239	1.201660
468.591	1.197779
468.943	1.193595
469.294	1.189359
469.646	1.185122
469.997	1.180687
470.348	1.176658
470.700	1.172716
471.051	1.168995
471.402	1.165640
471.754	1.162177
472.105	1.158832
472.456	1.155542
472.807	1.152127
473.158	1.149036
473.509	1.145675
473.860	1.142793
474.211	1.139773
474.562	1.136812
474.913	1.133865
475.264	1.131039
475.615	1.128429
475.966	1.125450
476.316	1.122661
476.667	1.119982
477.018	1.117329
477.368	1.114583
477.719	1.111676
478.070	1.109099
478.420	1.106600
478.771	1.103678
479.121	1.100642
479.472	1.097941
479.822	1.095222
480.172	1.092463
480.523	1.089329
480.873	1.086448
481.223	1.082974
481.573	1.079363
481.924	1.075829
482.274	1.072525
482.624	1.069521
482.974	1.066764
483.324	1.064575
483.674	1.062547
484.024	1.060521
484.374	1.058701
484.724	1.056893
485.073	1.055106
485.423	1.053272
485.773	1.051315
486.123	1.049559
486.472	1.047679
486.822	1.045833
487.172	1.043957
487.521	1.042014
487.871	1.040223
488.220	1.038362
488.570	1.036260
488.919	1.033768
489.268	1.030748
489.618	1.027536
489.967	1.023746
490.316	1.019558
490.666	1.015202
491.015	1.011103
491.364	1.007353
491.713	1.003847
492.062	1.000672
492.411	0.997525
492.760	0.994563
493.109	0.991649
493.458	0.988653
493.807	0.986027
494.156	0.983069
494.505	0.980125
494.853	0.977405
495.202	0.974463
495.551	0.971464
495.900	0.968539
496.248	0.965821
496.597	0.963040
496.945	0.960136
497.294	0.957430
497.642	0.954703
497.991	0.951869
498.339	0.948894
498.688	0.946078
499.036	0.943421
499.384	0.940776
499.732	0.938162
500.081	0.935499
500.429	0.932691
500.777	0.930134
501.125	0.927525
501.473	0.925006
501.821	0.922491
502.169	0.919913
502.517	0.917455
502.865	0.914997
503.213	0.912580
503.561	0.910062
503.908	0.907679
504.256	0.905235
504.604	0.902708
504.952	0.900206
505.299	0.897791
505.647	0.895514
505.994	0.893009
506.342	0.890528
506.689	0.888023
507.037	0.885685
507.384	0.883245
507.732	0.880959
508.079	0.878609
508.426	0.876274
508.774	0.873891
509.121	0.871691
509.468	0.869546
509.815	0.867418
510.162	0.865143
510.509	0.862957
510.856	0.860732
511.203	0.858632
511.550	0.856536
511.897	0.854437
512.244	0.852547
512.591	0.850337
512.938	0.848199
513.284	0.846189
513.631	0.844077
513.978	0.841907
514.324	0.839739
514.671	0.837586
515.018	0.835538
515.364	0.833454
515.711	0.831428
516.057	0.829435
516.403	0.827383
516.750	0.825400
517.096	0.823440
517.443	0.821508
517.789	0.819549
518.135	0.817646
518.481	0.815595
518.827	0.813682
519.173	0.811841
519.519	0.809839
519.865	0.807996
520.211	0.806181
520.557	0.804166
520.903	0.802184
521.249	0.800413
521.595	0.798502
521.941	0.796521
522.287	0.794352
522.632	0.792199
522.978	0.790036
523.324	0.787999
523.669	0.785939
524.015	0.783796
524.360	0.781583
524.706	0.779544
525.051	0.777509
525.397	0.775447
525.742	0.773396
526.087	0.771420
526.433	0.769433
526.778	0.767434
527.123	0.765455
527.468	0.763461
527.813	0.761610
528.158	0.759580
528.504	0.757468
528.849	0.755354
529.193	0.753348
529.538	0.751341
529.883	0.749162
530.228	0.747005
530.573	0.744816
530.918	0.742693
531.263	0.740481
531.607	0.738334
531.952	0.736194
532.296	0.734002
532.641	0.731919
532.986	0.729689
533.330	0.727502
533.675	0.725271
534.019	0.722983
534.363	0.720640
534.708	0.718372
535.052	0.716135
535.396	0.713967
535.741	0.711727
536.085	0.709362
536.429	0.706923
536.773	0.704583
537.117	0.702212
537.461	0.699625
537.805	0.696870
538.149	0.694096
538.493	0.691380
538.837	0.688695
539.181	0.685909
539.524	0.683156
539.868	0.680376
540.212	0.677738
540.556	0.674944
540.899	0.672210
541.243	0.669453
541.586	0.666661
541.930	0.663778
542.273	0.660916
542.617	0.657976
542.960	0.655014
543.304	0.651959
543.647	0.648803
543.990	0.645531
544.333	0.642359
544.677	0.639261
545.020	0.636165
545.363	0.633003
545.706	0.629894
546.049	0.626744
546.392	0.623575
546.735	0.620468
547.078	0.617174
547.421	0.613816
547.764	0.610434
548.106	0.606896
548.449	0.603280
548.792	0.599809
549.135	0.596215
549.477	0.592584
549.820	0.589047
550.162	0.585572
550.505	0.581993
550.847	0.578466
551.190	0.574716
551.532	0.570800
551.875	0.566769
552.217	0.562644
552.559	0.558635
552.901	0.554566
553.244	0.550648
553.586	0.546817
553.928	0.543021
554.270	0.539404
554.612	0.535793
554.954	0.532138
555.296	0.528355
555.638	0.524602
555.980	0.520534
556.322	0.516329
556.663	0.511982
557.005	0.507613
557.347	0.503249
557.689	0.499019
558.030	0.494815
558.372	0.490695
558.713	0.486575
559.055	0.482448
559.396	0.478339
559.738	0.474097
560.079	0.469886
560.421	0.465681
560.762	0.461572
561.103	0.457494
561.444	0.453447
561.786	0.449516
562.127	0.445580
562.468	0.441650
562.809	0.437590
563.150	0.433487
563.491	0.429322
563.832	0.425061
564.173	0.420630
564.514	0.416031
564.855	0.411288
565.195	0.406495
565.536	0.401706
565.877	0.396994
566.218	0.392438
566.558	0.387994
566.899	0.383699
567.239	0.379679
567.580	0.375885
567.920	0.372358
568.261	0.369084
568.601	0.365940
568.941	0.362941
569.282	0.360086
569.622	0.357281
569.962	0.354498
570.302	0.351754
570.643	0.349071
570.983	0.346505
571.323	0.344039
571.663	0.341646
572.003	0.339285
572.343	0.336901
572.683	0.334421
573.022	0.331839
573.362	0.329146
573.702	0.326447
574.042	0.323784
574.381	0.321163
574.721	0.318625
575.061	0.316159
575.400	0.313851
575.740	0.311574
576.079	0.309317
576.419	0.306989
576.758	0.304580
577.097	0.302103
577.437	0.299514
577.776	0.296902
578.115	0.294316
578.454	0.291838
578.794	0.289589
579.133	0.287567
579.472	0.285721
579.811	0.283983
580.150	0.282288
580.489	0.280543
580.828	0.278692
581.167	0.276779
581.505	0.274843
581.844	0.272917
582.183	0.270971
582.522	0.269074
582.860	0.267264
583.199	0.265538
583.538	0.263896
583.876	0.262269
584.215	0.260632
584.553	0.258990
584.891	0.257355
585.230	0.255665
585.568	0.253944
585.906	0.252149
586.245	0.250368
586.583	0.248652
586.921	0.247126
587.259	0.245735
587.597	0.244398
587.935	0.243016
588.273	0.241530
588.611	0.239876
588.949	0.238123
589.287	0.236357
589.625	0.234553
589.963	0.232824
590.300	0.231155
590.638	0.229591
590.976	0.228061
591.313	0.226508
591.651	0.224966
591.989	0.223433
592.326	0.221980
592.664	0.220650
593.001	0.219356
593.338	0.218202
593.676	0.217152
594.013	0.216090
594.350	0.215057
594.687	0.214062
595.025	0.213127
595.362	0.212156
595.699	0.211157
596.036	0.210120
596.373	0.209081
596.710	0.208010
597.047	0.206891
597.384	0.205779
597.720	0.204661
598.057	0.203558
598.394	0.202472
598.731	0.201383
599.067	0.200314
599.404	0.199281
599.741	0.198232
600.077	0.197254
600.414	0.196319
600.750	0.195454
601.087	0.194635
601.423	0.193772
601.759	0.192945
602.096	0.192075
602.432	0.191261
602.768	0.190416
603.104	0.189579
603.440	0.188708
603.776	0.187897
604.112	0.187102
604.448	0.186332
604.784	0.185567
605.120	0.184832
605.456	0.184134
605.792	0.183460
606.128	0.182780
606.463	0.182075
606.799	0.181373
607.135	0.180663
607.470	0.179977
607.806	0.179247
608.142	0.178543
608.477	0.177893
608.812	0.177213
609.148	0.176574
609.483	0.175916
609.819	0.175275
610.154	0.174594
610.489	0.173939
610.824	0.173262
611.159	0.172618
611.494	0.171996
611.830	0.171434
612.165	0.170937
612.500	0.170425
612.834	0.169923
613.169	0.169408
613.504	0.168842
613.839	0.168273
614.174	0.167725
614.509	0.167138
614.843	0.166584
615.178	0.166044
615.512	0.165522
615.847	0.165022
616.182	0.164566
616.516	0.164100
616.850	0.163649
617.185	0.163178
617.519	0.162709
617.853	0.162243
618.188	0.161708
618.522	0.161104
618.856	0.160496
619.190	0.159855
619.524	0.159227
619.858	0.158678
620.192	0.158148
620.526	0.157698
620.860	0.157289
621.194	0.156845
621.528	0.156370
621.862	0.155955
622.195	0.155563
622.529	0.155072
622.863	0.154615
623.196	0.154140
623.530	0.153728
623.864	0.153330
624.197	0.152927
624.530	0.152495
624.864	0.152126
625.197	0.151797
625.531	0.151457
625.864	0.151063
626.197	0.150644
626.530	0.150272
626.863	0.149826
627.196	0.149343
627.529	0.148912
627.862	0.148414
628.195	0.147948
628.528	0.147532
628.861	0.147024
629.194	0.146566
629.527	0.146154
629.860	0.145763
630.192	0.145303
630.525	0.144805
630.858	0.144300
631.190	0.143836
631.523	0.143373
631.855	0.142777
632.188	0.142270
632.520	0.141796
632.852	0.141305
633.185	0.140918
633.517	0.140497
633.849	0.140064
634.182	0.139768
634.514	0.139490
634.846	0.139197
635.178	0.138967
635.510	0.138667
635.842	0.138318
636.174	0.137980
636.506	0.137738
636.837	0.137388
637.169	0.137090
637.501	0.136760
637.833	0.136516
638.164	0.136263
638.496	0.135930
638.828	0.135576
639.159	0.135188
639.491	0.134752
639.822	0.134358
640.154	0.133846
640.485	0.133305
640.816	0.132758
641.147	0.132193
641.479	0.131481
641.810	0.130962
642.141	0.130394
642.472	0.129882
642.803	0.129483
643.134	0.128989
643.465	0.128461
643.796	0.128020
644.127	0.127623
644.458	0.127297
644.789	0.126991
645.119	0.126832
645.450	0.126739
645.781	0.126848
646.111	0.126944
646.442	0.127067
646.773	0.127085
647.103	0.126980
647.433	0.126944
647.764	0.126859
648.094	0.126698
648.425	0.126668
648.755	0.126606
649.085	0.126512
649.415	0.126456
649.745	0.126455
650.075	0.126436
650.405	0.126319
650.735	0.124996
651.065	0.117232
651.395	0.110712
651.725	0.098729
652.055	0.067640
652.385	0.050129
652.715	0.038858
653.044	0.031011
653.374	0.025257
653.704	0.020871
654.033	0.027966
654.363	0.033506
654.692	0.036620
655.022	0.038421
655.351	0.039492
655.680	0.040093
656.010	0.040405
656.339	0.040527
656.668	0.040537
656.997	0.040482
657.326	0.040397
657.655	0.040279
657.984	0.039635
658.313	0.036368
658.642	0.032342
658.971	0.037492
659.300	0.044070
659.629	0.052764
659.958	0.064796
660.286	0.082561
660.615	0.111439
660.944	0.116723
661.272	0.114789
661.601	0.114129
661.929	0.114341
662.258	0.115084
662.586	0.116130
662.915	0.116785
663.243	0.117063
663.571	0.116995
663.899	0.116847
664.228	0.116556
664.556	0.116437
664.884	0.116186
665.212	0.115993
665.540	0.115850
665.868	0.115779
666.196	0.115660
666.524	0.115574
666.852	0.115536
667.179	0.115352
667.507	0.115210
667.835	0.115132
668.162	0.115081
668.490	0.114981
668.818	0.114944
669.145	0.115003
669.473	0.115024
669.800	0.115148
670.127	0.115209
670.455	0.115235
670.782	0.115354
671.109	0.115333
671.436	0.115336
671.764	0.115372
672.091	0.115361
672.418	0.115317
672.745	0.115337
673.072	0.115343
673.399	0.115308
673.726	0.115222
674.053	0.115158
674.379	0.115126
674.706	0.115049
675.033	0.114850
675.359	0.114722
675.686	0.114534
676.013	0.114284
676.339	0.114100
676.666	0.113886
676.992	0.113766
677.318	0.113675
677.645	0.113560
677.971	0.113425
678.297	0.113356
678.624	0.113236
678.950	0.113044
679.276	0.112889
679.602	0.112604
679.928	0.112375
680.254	0.112155
680.580	0.111952
680.906	0.111726
681.232	0.111592
681.558	0.111543
681.883	0.111609
682.209	0.111609
682.535	0.111624
682.860	0.111664
683.186	0.111594
683.511	0.111409
683.837	0.111207
684.162	0.111108
684.488	0.110943
684.813	0.110849
685.138	0.110649
685.464	0.110550
685.789	0.110418
686.114	0.110268
686.439	0.110209
686.764	0.110155
687.089	0.110112
687.414	0.110087
687.739	0.110128
688.064	0.110015
688.389	0.109866
688.714	0.109693
689.039	0.109402
689.363	0.109224
689.688	0.109032
690.013	0.108839
690.337	0.108737
690.662	0.108673
690.986	0.108545
691.311	0.108429
691.635	0.108406
691.959	0.108274
692.284	0.108047
692.608	0.107880
692.932	0.107783
693.256	0.107669
693.580	0.107652
693.904	0.107568
694.228	0.107550
694.552	0.107494
694.876	0.107413
695.200	0.107320
695.524	0.107167
695.848	0.107055
696.172	0.106734
696.495	0.106389
696.819	0.106176
697.143	0.105860
697.466	0.105550
697.790	0.105216
698.113	0.104948
698.437	0.104558
698.760	0.104355
699.083	0.104294
699.407	0.104241
699.730	0.104112
700.053	0.103974
700.376	0.103716
700.699	0.103455
701.022	0.102985
701.345	0.102442
701.668	0.101912
701.991	0.101365
702.314	0.100671
702.637	0.100084
702.960	0.099599
703.283	0.099187
703.605	0.098766
703.928	0.098617
704.251	0.098505
704.573	0.098431
704.896	0.098340
705.218	0.098210
705.540	0.098014
705.863	0.097652
706.185	0.097183
706.507	0.096694
706.830	0.096191
707.152	0.095617
707.474	0.095133
707.796	0.094644
708.118	0.094257
708.440	0.094001
708.762	0.093725
709.084	0.093576
709.406	0.093406
709.728	0.093231
710.049	0.092987
710.371	0.092763
710.693	0.092452
711.014	0.092041
711.336	0.091665
711.658	0.091344
711.979	0.091107
712.301	0.090859
712.622	0.090689
712.943	0.090581
713.265	0.090465
713.586	0.090313
713.907	0.090283
714.228	0.090226
714.549	0.090202
714.870	0.090262
715.191	0.090207
715.512	0.090213
715.833	0.090243
716.154	0.090140
716.475	0.090006
716.796	0.089845
717.117	0.089584
717.437	0.089224
717.758	0.088885
718.078	0.088477
718.399	0.088082
718.719	0.087694
719.040	0.087304
719.360	0.086983
719.681	0.086681
720.001	0.086415
720.321	0.086273
720.642	0.086001
720.962	0.085670
721.282	0.085568
721.602	0.085318
721.922	0.085137
722.242	0.084929
722.562	0.084661
722.882	0.084443
723.202	0.084344
723.521	0.084240
723.841	0.084207
724.161	0.084179
724.481	0.084129
724.800	0.084009
725.120	0.083904
725.439	0.083815
725.759	0.083748
726.078	0.083753
726.398	0.083674
726.717	0.083724
727.036	0.083731
727.355	0.083845
727.675	0.084032
727.994	0.084116
728.313	0.084208
728.632	0.084296
728.951	0.084269
729.270	0.084140
729.589	0.084063
729.908	0.083805
730.226	0.083632
730.545	0.083462
730.864	0.083238
731.182	0.083060
731.501	0.082995
731.820	0.082917
732.138	0.082843
732.457	0.082668
732.775	0.082482
733.093	0.082396
733.412	0.082234
733.730	0.082039
734.048	0.081812
734.367	0.081529
734.685	0.081197
735.003	0.080830
735.321	0.080454
735.639	0.080145
735.957	0.079953
736.275	0.079782
736.593	0.079721
736.910	0.079574
737.228	0.079440
737.546	0.079354
737.863	0.079229
738.181	0.078963
738.499	0.078691
738.816	0.078447
739.134	0.078283
739.451	0.078076
739.768	0.077859
740.086	0.077629
740.403	0.077399
740.720	0.077159
741.038	0.076885
741.355	0.076619
741.672	0.076284
741.989	0.075998
742.306	0.075617
742.623	0.075198
742.940	0.074714
743.257	0.074103
743.573	0.073674
743.890	0.073237
744.207	0.072751
744.523	0.072354
744.840	0.072061
745.157	0.071742
745.473	0.071335
745.790	0.071060
746.106	0.070761
746.422	0.070510
746.739	0.070306
747.055	0.070115
747.371	0.069887
747.687	0.069886
748.004	0.069884
748.320	0.069991
748.636	0.069932
748.952	0.069963
749.268	0.070047
749.584	0.070221
749.899	0.070311
750.215	0.070306
750.531	0.070285
750.847	0.070360
751.162	0.070403
751.478	0.070468
751.793	0.070471
752.109	0.070468
752.424	0.070486
752.740	0.070503
753.055	0.070588
753.370	0.070624
753.686	0.070826
754.001	0.071143
754.316	0.071395
754.631	0.071653
754.946	0.071770
755.261	0.071970
755.576	0.072096
755.891	0.072129
756.206	0.072010
756.521	0.071986
756.836	0.071959
757.150	0.071938
757.465	0.071937
757.780	0.071944
758.094	0.071995
758.409	0.072047
758.723	0.072137
759.038	0.072110
759.352	0.072138
759.667	0.072056
759.981	0.071970
760.295	0.071766
760.609	0.071501
760.923	0.071283
761.238	0.071046
761.552	0.070885
761.866	0.070692
762.180	0.070612
762.493	0.070593
762.807	0.070596
763.121	0.070510
763.435	0.070413
763.749	0.070238
764.062	0.070020
764.376	0.069794
764.689	0.069537
765.003	0.069312
765.316	0.069195
765.630	0.069252
765.943	0.069149
766.257	0.069099
766.570	0.069045
766.883	0.068935
767.196	0.068795
767.509	0.068493
767.822	0.068185
768.135	0.067898
768.448	0.067642
768.761	0.067309
769.074	0.066984
769.387	0.066664
769.700	0.066413
770.013	0.066184
770.325	0.066055
770.638	0.065973
770.950	0.065828
771.263	0.065685
771.575	0.065524
771.888	0.065179
772.200	0.064783
772.513	0.064421
772.825	0.064060
773.137	0.063701
773.449	0.063423
773.761	0.063159
774.074	0.062922
774.386	0.062738
774.698	0.062562
775.010	0.062275
775.321	0.062032
775.633	0.061835
775.945	0.061781
776.257	0.061803
776.568	0.061811
776.880	0.061768
777.192	0.061846
777.503	0.061890
777.815	0.062010
778.126	0.062118
778.438	0.062300
778.749	0.062496
779.060	0.062708
779.372	0.062808
779.683	0.062934
779.994	0.063093
780.305	0.063107
780.616	0.063274
780.927	0.063394
781.238	0.063388
781.549	0.063489
781.860	0.063598
782.171	0.063616
782.481	0.063654
782.792	0.063644
783.103	0.063731
783.413	0.063780
783.724	0.063677
784.034	0.063617
784.345	0.063459
784.655	0.063332
784.966	0.063242
785.276	0.063132
785.586	0.063073
785.896	0.063059
786.207	0.063036
786.517	0.063008
786.827	0.063056
787.137	0.063041
787.447	0.063019
787.757	0.063115
788.066	0.063123
788.376	0.063145
788.686	0.063206
788.996	0.063217
789.305	0.063284
789.615	0.063177
789.925	0.063168
790.234	0.063233
790.544	0.063335
790.853	0.063437
791.162	0.063570
791.472	0.063765
791.781	0.063945
792.090	0.064055
792.399	0.064069
792.708	0.063982
793.017	0.063945
793.326	0.063864
793.635	0.063670
793.944	0.063501
794.253	0.063390
794.562	0.063261
794.871	0.063180
795.179	0.063108
795.488	0.063075
795.797	0.063038
796.105	0.063000
796.414	0.062916
796.722	0.062858
797.031	0.062824
797.339	0.062703
797.647	0.062453
797.956	0.061993
798.264	0.061482
798.572	0.061092
798.880	0.060795
799.188	0.060622
799.496	0.060368
799.804	0.060298
800.112	0.060157
800.420	0.060208
800.728	0.060053
801.035	0.060043
801.343	0.059733
801.651	0.059433
801.958	0.059155
802.266	0.058967
802.573	0.059015
802.881	0.059214
803.188	0.059246
803.496	0.059419
803.803	0.059608
804.110	0.059906
804.417	0.060092
804.724	0.060233
805.032	0.060170
805.339	0.060228
805.646	0.060106
805.953	0.059957
806.259	0.059937
806.566	0.059915
806.873	0.059854
807.180	0.059930
807.486	0.059969
807.793	0.060175
808.100	0.060301
808.406	0.060276
808.713	0.060287
809.019	0.059989
809.326	0.059708
809.632	0.059460
809.938	0.058868
810.244	0.058310
810.551	0.057930
810.857	0.057452
811.163	0.057295
811.469	0.057146
811.775	0.056978
812.081	0.057055
812.387	0.057053
812.692	0.057000
812.998	0.057260
813.304	0.057192
813.610	0.057246
813.915	0.057168
814.221	0.057060
814.526	0.056956
814.832	0.057054
815.137	0.057155
815.443	0.057274
815.748	0.057255
816.053	0.057065
816.358	0.057078
816.664	0.057135
816.969	0.056938
817.274	0.057229
817.579	0.057052
817.884	0.057053
818.189	0.056987
818.493	0.056904
818.798	0.057071
819.103	0.056986
819.408	0.056669
819.712	0.056456
820.017	0.056253
820.321	0.056079
820.626	0.055865
820.930	0.055644
821.235	0.055604
821.539	0.055147
821.843	0.055166
822.148	0.054915
822.452	0.055081
822.756	0.055279
823.060	0.055290
823.364	0.055530
823.668	0.055426
823.972	0.055584
824.276	0.055587
824.580	0.055638
824.883	0.055814
825.187	0.055758
825.491	0.055806
825.795	0.055759
826.098	0.055916
826.402	0.055633
826.705	0.055765
827.008	0.055741
827.312	0.055857
827.615	0.055656
827.918	0.055531
828.222	0.055149
828.525	0.054954
828.828	0.054861
829.131	0.054678
829.434	0.054645
829.737	0.054102
830.040	0.053634
830.343	0.053076
830.645	0.052705
830.948	0.052373
831.251	0.051825
831.553	0.051532
831.856	0.051326
832.159	0.051470
832.461	0.051303
832.764	0.051361
833.066	0.051029
833.368	0.051050
833.671	0.050557
833.973	0.050322
834.275	0.050316
834.577	0.050193
834.879	0.050196
835.181	0.049754
835.483	0.049472
835.785	0.048979
836.087	0.048875
836.389	0.048803
836.690	0.048293
836.992	0.047761
837.294	0.046976
837.595	0.046131
837.897	0.045254
838.198	0.044602
838.500	0.043681
838.801	0.042901
839.103	0.042178
839.404	0.041586
839.705	0.041212
840.006	0.041086
840.307	0.041225
840.608	0.041189
840.910	0.041349
841.210	0.041434
841.511	0.041473
841.812	0.041119
842.113	0.041163
842.414	0.040743
842.715	0.040184
843.015	0.039434
843.316	0.039163
843.616	0.038966
843.917	0.039074
844.217	0.038942
844.518	0.038062
844.818	0.037924
845.118	0.038028
845.419	0.038714
845.719	0.038424
846.019	0.037662
846.319	0.037754
846.619	0.036960
846.919	0.036542
847.219	0.036600
847.519	0.036476
847.819	0.036404
848.118	0.035939
848.418	0.035974
848.718	0.035676
849.017	0.035616
849.317	0.036050
849.616	0.036293
849.916	0.037096
850.215	0.037789
850.515	0.037972
850.814	0.038544
851.113	0.038928
851.412	0.039175
851.712	0.039204
852.011	0.039485
852.310	0.040074
852.609	0.040426
852.908	0.040673
853.206	0.040913
853.505	0.041061
853.804	0.041329
854.103	0.041454
854.401	0.041681
854.700	0.041690
854.999	0.041673
855.297	0.041805
855.595	0.042006
855.894	0.041858
856.192	0.041520
856.491	0.041247
856.789	0.041350
857.087	0.040943
857.385	0.040610
857.683	0.040257
857.981	0.039960
858.279	0.039492
858.577	0.038562
858.875	0.037709
859.173	0.037138
859.471	0.036721
859.768	0.036479
860.066	0.035541
860.363	0.035036
860.661	0.034852
860.959	0.034434
861.256	0.034666
861.553	0.034722
861.851	0.033960
862.148	0.033761
862.445	0.033433
862.742	0.032741
863.039	0.031513
863.337	0.031730
863.634	0.031147
863.931	0.030671
864.227	0.029958
864.524	0.030293
864.821	0.030670
865.118	0.030767
865.415	0.030175
865.711	0.029604
866.008	0.028080
866.304	0.028306
866.601	0.027831
866.897	0.027215
867.194	0.027026
867.490	0.026739
867.786	0.025902
868.082	0.025960
868.379	0.025747
868.675	0.025729
868.971	0.025512
869.267	0.025966
869.563	0.026313
869.859	0.026136
870.154	0.025831
870.450	0.026191
870.746	0.025316
871.042	0.024938
871.337	0.024179
871.633	0.024459
871.928	0.024641
872.224	0.024758
872.519	0.023837
872.815	0.023684
873.110	0.023623
873.405	0.023185
873.700	0.022779
873.995	0.022681
874.291	0.022794
874.586	0.023169
874.881	0.023775
875.175	0.024142
875.470	0.024084
875.765	0.023686
876.060	0.023994
876.355	0.024211
876.649	0.024257
876.944	0.024768
877.238	0.024668
877.533	0.024632
877.827	0.024866
878.122	0.025282
878.416	0.025767
878.710	0.026302
879.005	0.026190
879.299	0.026031
879.593	0.026083
879.887	0.026038
880.181	0.025725
880.475	0.025867
880.769	0.025658
881.063	0.025348
881.356	0.025461
881.650	0.025066
881.944	0.024717
882.238	0.016587
882.531	0.022221
882.825	0.020271
883.118	0.011779
883.412	0.026757
883.705	0.021923
883.998	0.029519
884.291	0.028803
884.585	0.012220
884.878	0.020575
>>>>>>>>>> END of Data <<<<<<<<<<
>>>>>>>>>> Raw Data Start <<<<<<<<
190.664	-389
191.040	6
191.415	6
191.791	3
192.166	7
192.542	10
192.917	5
193.293	8
193.668	6
194.044	4
194.419	-10
194.794	9
195.170	9
195.545	10
195.920	10
196.296	11
196.671	11
197.046	11
197.421	12
197.796	12
198.171	13
198.546	13
198.922	14
199.297	14
199.672	15
200.047	16
200.422	15
200.796	16
201.171	16
201.546	16
201.921	16
202.296	16
202.671	17
203.045	17
203.420	17
203.795	17
204.170	17
204.544	16
204.919	17
205.294	17
205.668	17
206.043	16
206.417	16
206.792	16
207.166	16
207.541	15
207.915	15
208.289	15
208.664	15
209.038	15
209.412	16
209.787	15
210.161	15
210.535	15
210.909	15
211.284	15
211.658	15
212.032	14
212.406	14
212.780	14
213.154	14
213.528	14
213.902	14
214.276	14
214.650	14
215.024	14
215.398	14
215.772	14
216.145	14
216.519	13
216.893	13
217.267	13
217.640	14
218.014	14
218.388	14
218.761	14
219.135	14
219.508	14
219.882	14
220.256	15
220.629	15
221.003	14
221.376	14
221.749	15
222.123	15
222.496	14
222.869	15
223.243	15
223.616	15
223.989	15
224.362	16
224.736	16
225.109	16
225.482	16
225.855	15
226.228	15
226.601	15
226.974	15
227.347	15
227.720	15
228.093	15
228.466	15
228.839	15
229.212	15
229.585	15
229.957	15
230.330	15
230.703	15
231.076	16
231.448	16
231.821	15
232.194	15
232.566	15
232.939	15
233.311	15
233.684	15
234.056	15
234.429	15
234.801	15
235.174	16
235.546	16
235.918	16
236.291	16
236.663	16
237.035	16
237.408	16
237.780	16
238.152	16
238.524	16
238.896	16
239.268	16
239.641	17
240.013	17
240.385	16
240.757	17
241.129	17
241.500	17
241.872	17
242.244	17
242.616	17
242.988	16
243.360	17
243.731	17
244.103	17
244.475	17
244.847	17
245.218	17
245.590	17
245.961	17
246.333	17
246.705	16
247.076	16
247.448	16
247.819	16
248.190	16
248.562	16
248.933	16
249.305	17
249.676	17
250.047	17
250.418	17
250.790	17
251.161	17
251.532	17
251.903	17
252.274	17
252.645	17
253.016	16
253.387	17
253.758	17
254.129	17
254.500	17
254.871	18
255.242	18
255.613	18
255.984	18
256.355	17
256.725	17
257.096	17
257.467	17
257.838	17
258.208	18
258.579	18
258.949	18
259.320	18
259.690	18
260.061	18
260.431	19
260.802	19
261.172	19
261.543	19
261.913	19
262.283	19
262.654	19
263.024	19
263.394	19
263.764	18
264.135	19
264.505	19
264.875	19
265.245	19
265.615	19
265.985	19
266.355	18
266.725	18
267.095	18
267.465	18
267.835	18
268.205	18
268.575	18
268.944	18
269.314	18
269.684	18
270.054	18
270.423	18
270.793	18
271.163	18
271.532	17
271.902	17
272.271	17
272.641	17
273.010	17
273.380	17
273.749	18
274.119	18
274.488	18
274.857	17
275.227	18
275.596	18
275.965	18
276.335	18
276.704	18
277.073	18
277.442	17
277.811	18
278.180	17
278.549	17
278.918	18
279.287	18
279.656	18
280.025	18
280.394	19
280.763	19
281.132	18
281.501	18
281.869	18
282.238	18
282.607	18
282.976	18
283.344	18
283.713	18
284.081	18
284.450	18
284.819	18
285.187	18
285.556	18
285.924	19
286.292	19
286.661	18
287.029	18
287.398	18
287.766	18
288.134	18
288.502	18
288.871	19
289.239	19
289.607	19
289.975	19
290.343	19
290.711	19
291.079	20
291.447	19
291.815	19
292.183	20
292.551	20
292.919	20
293.287	20
293.655	20
294.022	20
294.390	19
294.758	19
295.126	19
295.493	19
295.861	19
296.229	19
296.596	19
296.964	19
297.331	19
297.699	20
298.066	19
298.434	19
298.801	19
299.168	19
299.536	19
299.903	19
300.270	18
300.638	18
301.005	18
301.372	18
301.739	18
302.106	19
302.473	19
302.840	19
303.207	19
303.574	19
303.941	19
304.308	19
304.675	19
305.042	19
305.409	18
305.776	19
306.143	19
306.509	19
306.876	19
307.243	19
307.610	19
307.976	19
308.343	19
308.709	19
309.076	19
309.442	19
309.809	19
310.175	19
310.542	19
310.908	19
311.275	19
311.641	19
312.007	19
312.373	19
312.740	20
313.106	20
313.472	20
313.838	19
314.204	20
314.570	20
314.936	20
315.302	20
315.668	21
316.034	21
316.400	21
316.766	21
317.132	21
317.498	21
317.864	21
318.230	22
318.595	22
318.961	22
319.327	22
319.692	23
320.058	23
320.424	23
320.789	24
321.155	24
321.520	25
321.886	25
322.251	25
322.616	26
322.982	27
323.347	27
323.712	28
324.078	29
324.443	29
324.808	30
325.173	31
325.539	31
325.904	32
326.269	33
326.634	33
326.999	34
327.364	35
327.729	36
328.094	37
328.459	37
328.823	38
329.188	39
329.553	40
329.918	41
330.283	41
330.647	41
331.012	42
331.377	43
331.741	44
332.106	45
332.470	45
332.835	46
333.199	47
333.564	47
333.928	48
334.293	49
334.657	50
335.021	51
335.386	52
335.750	53
336.114	54
336.478	55
336.843	56
337.207	57
337.571	58
337.935	59
338.299	60
338.663	61
339.027	62
339.391	63
339.755	65
340.119	66
340.483	67
340.846	68
341.210	69
341.574	70
341.938	71
342.301	72
342.665	73
343.029	74
343.392	75
343.756	76
344.119	77
344.483	78
344.846	79
345.210	80
345.573	81
345.937	81
346.300	82
346.663	83
347.027	83
347.390	84
347.753	85
348.116	86
348.479	86
348.843	87
349.206	88
349.569	89
349.932	89
350.295	90
350.658	90
351.021	90
351.383	91
351.746	91
352.109	92
352.472	92
352.835	93
353.197	93
353.560	94
353.923	94
354.285	95
354.648	96
355.011	96
355.373	97
355.736	97
356.098	98
356.461	98
356.823	98
357.185	99
357.548	99
357.910	100
358.272	101
358.635	101
358.997	102
359.359	102
359.721	103
360.083	103
360.445	103
360.807	103
361.169	103
361.531	104
361.893	104
362.255	104
362.617	104
362.979	104
363.341	104
363.703	105
364.064	105
364.426	105
364.788	106
365.149	106
365.511	106
365.873	106
366.234	106
366.596	106
366.957	107
367.319	107
367.680	107
368.042	107
368.403	107
368.764	107
369.126	107
369.487	107
369.848	107
370.209	107
370.570	107
370.931	107
371.293	106
371.654	106
372.015	106
372.376	106
372.737	106
373.098	106
373.458	106
373.819	106
374.180	105
374.541	105
374.902	106
375.263	106
375.623	106
375.984	106
376.345	106
376.705	106
377.066	106
377.426	107
377.787	107
378.147	107
378.508	107
378.868	108
379.228	108
379.589	108
379.949	108
380.309	108
380.670	108
381.030	108
381.390	109
381.750	109
382.110	109
382.470	109
382.830	109
383.190	109
383.550	109
383.910	109
384.270	109
384.630	109
384.990	109
385.350	109
385.709	110
386.069	109
386.429	109
386.788	109
387.148	109
387.508	109
387.867	110
388.227	110
388.586	110
388.946	111
389.305	111
389.665	111
390.024	112
390.383	112
390.743	113
391.102	113
391.461	113
391.820	113
392.179	114
392.539	114
392.898	114
393.257	114
393.616	114
393.975	115
394.334	115
394.693	116
395.051	116
395.410	117
395.769	118
396.128	118
396.487	118
396.845	118
397.204	118
397.563	118
397.921	118
398.280	118
398.638	119
398.997	119
399.355	119
399.714	119
400.072	119
400.431	120
400.789	120
401.147	121
401.506	122
401.864	122
402.222	122
402.580	123
402.938	122
403.297	122
403.655	123
404.013	123
404.371	123
404.729	123
405.087	123
405.444	123
405.802	123
406.160	123
406.518	124
406.876	124
407.233	124
407.591	124
407.949	124
408.306	124
408.664	124
409.022	124
409.379	124
409.737	125
410.094	125
410.451	125
410.809	125
411.166	126
411.523	127
411.881	127
412.238	127
412.595	128
412.952	128
413.310	128
413.667	128
414.024	128
414.381	128
414.738	129
415.095	129
415.452	130
415.809	130
416.165	130
416.522	131
416.879	131
417.236	132
417.593	133
417.949	134
418.306	136
418.663	137
419.019	138
419.376	140
419.732	142
420.089	143
420.445	145
420.802	146
421.158	148
421.514	149
421.871	150
422.227	152
422.583	152
422.939	153
423.295	154
423.652	155
424.008	156
424.364	157
424.720	157
425.076	158
425.432	158
425.788	159
426.143	159
426.499	161
426.855	161
427.211	162
427.567	163
427.922	164
428.278	165
428.634	165
428.989	166
429.345	167
429.700	168
430.056	169
430.411	170
430.767	171
431.122	172
431.478	173
431.833	174
432.188	176
432.543	177
432.899	178
433.254	179
433.609	180
433.964	180
434.319	181
434.674	181
435.029	182
435.384	183
435.739	184
436.094	186
436.449	187
436.804	189
437.158	191
437.513	194
437.868	196
438.223	199
438.577	203
438.932	205
439.287	209
439.641	212
439.996	215
440.350	219
440.704	221
441.059	224
441.413	228
441.768	231
442.122	235
442.476	238
442.830	242
443.185	245
443.539	248
443.893	252
444.247	255
444.601	257
444.955	260
445.309	261
445.663	263
446.017	265
446.371	267
446.724	269
447.078	270
447.432	271
447.786	272
448.139	274
448.493	275
448.847	276
449.200	277
449.554	278
449.907	278
450.261	279
450.614	280
450.968	281
451.321	282
451.674	283
452.027	284
452.381	285
452.734	287
453.087	288
453.440	290
453.793	292
454.146	294
454.499	297
454.852	300
455.205	304
455.558	308
455.911	311
456.264	315
456.617	319
456.970	322
457.322	326
457.675	329
458.028	332
458.380	335
458.733	337
459.086	340
459.438	343
459.791	346
460.143	350
460.496	355
460.848	359
461.200	365
461.553	370
461.905	375
462.257	380
462.609	385
462.961	389
463.314	393
463.666	397
464.018	400
464.370	404
464.722	408
465.074	412
465.426	415
465.777	418
466.129	421
466.481	424
466.833	426
467.184	427
467.536	428
467.888	429
468.239	429
468.591	430
468.943	431
469.294	432
469.646	435
469.997	438
470.348	441
470.700	446
471.051	451
471.402	457
471.754	464
472.105	472
472.456	479
472.807	488
473.158	497
473.509	508
473.860	519
474.211	530
474.562	542
474.913	554
475.264	567
475.615	579
475.966	592
476.316	604
476.667	617
477.018	629
477.368	643
477.719	656
478.070	668
478.420	680
478.771	693
479.121	705
479.472	717
479.822	729
480.172	743
480.523	759
480.873	780
481.223	814
481.573	865
481.924	928
482.274	998
482.624	1073
482.974	1148
483.324	1213
483.674	1264
484.024	1299
484.374	1323
484.724	1339
485.073	1351
485.423	1361
485.773	1372
486.123	1381
486.472	1391
486.822	1399
487.172	1408
487.521	1414
487.871	1418
488.220	1416
488.570	1401
488.919	1370
489.268	1326
489.618	1273
489.967	1217
490.316	1160
490.666	1111
491.015	1076
491.364	1056
491.713	1047
492.062	1046
492.411	1050
492.760	1055
493.109	1061
493.458	1067
493.807	1072
494.156	1077
494.505	1083
494.853	1088
495.202	1094
495.551	1102
495.900	1110
496.248	1119
496.597	1127
496.945	1135
497.294	1143
497.642	1152
497.991	1162
498.339	1173
498.688	1185
499.036	1196
499.384	1207
499.732	1216
500.081	1224
500.429	1233
500.777	1240
501.125	1246
501.473	1253
501.821	1261
502.169	1268
502.517	1274
502.865	1279
503.213	1282
503.561	1286
503.908	1289
504.256	1291
504.604	1293
504.952	1294
505.299	1295
505.647	1293
505.994	1292
506.342	1290
506.689	1288
507.037	1286
507.384	1286
507.732	1286
508.079	1287
508.426	1287
508.774	1289
509.121	1288
509.468	1288
509.815	1287
510.162	1287
510.509	1287
510.856	1286
511.203	1285
511.550	1284
511.897	1283
512.244	1281
512.591	1281
512.938	1280
513.284	1279
513.631	1278
513.978	1277
514.324	1275
514.671	1273
515.018	1270
515.364	1269
515.711	1267
516.057	1265
516.403	1264
516.750	1261
517.096	1259
517.443	1255
517.789	1252
518.135	1249
518.481	1247
518.827	1244
519.173	1241
519.519	1239
519.865	1237
520.211	1235
520.557	1234
520.903	1233
521.249	1232
521.595	1231
521.941	1230
522.287	1230
522.632	1230
522.978	1230
523.324	1231
523.669	1232
524.015	1234
524.360	1238
524.706	1243
525.051	1250
525.397	1258
525.742	1266
526.087	1274
526.433	1283
526.778	1290
527.123	1296
527.468	1302
527.813	1307
528.158	1312
528.504	1319
528.849	1327
529.193	1337
529.538	1349
529.883	1364
530.228	1381
530.573	1399
530.918	1418
531.263	1438
531.607	1456
531.952	1473
532.296	1487
532.641	1499
532.986	1508
533.330	1518
533.675	1528
534.019	1541
534.363	1556
534.708	1574
535.052	1595
535.396	1616
535.741	1637
536.085	1657
536.429	1675
536.773	1690
537.117	1702
537.461	1714
537.805	1725
538.149	1737
538.493	1749
538.837	1763
539.181	1778
539.524	1797
539.868	1818
540.212	1841
540.556	1866
540.899	1891
541.243	1915
541.586	1936
541.930	1953
542.273	1966
542.617	1978
542.960	1989
543.304	2004
543.647	2022
543.990	2045
544.333	2070
544.677	2096
545.020	2121
545.363	2143
545.706	2160
546.049	2175
546.392	2185
546.735	2191
547.078	2196
547.421	2202
547.764	2209
548.106	2217
548.449	2228
548.792	2243
549.135	2262
549.477	2285
549.820	2308
550.162	2329
550.505	2346
550.847	2360
551.190	2371
551.532	2381
551.875	2392
552.217	2404
552.559	2417
552.901	2436
553.244	2456
553.586	2478
553.928	2501
554.270	2522
554.612	2540
554.954	2556
555.296	2570
555.638	2584
555.980	2600
556.322	2618
556.663	2641
557.005	2670
557.347	2706
557.689	2743
558.030	2781
558.372	2816
558.713	2849
559.055	2880
559.396	2911
559.738	2945
560.079	2980
560.421	3019
560.762	3064
561.103	3112
561.444	3165
561.786	3219
562.127	3278
562.468	3340
562.809	3409
563.150	3484
563.491	3566
563.832	3655
564.173	3756
564.514	3873
564.855	4013
565.195	4182
565.536	4384
565.877	4618
566.218	4883
566.558	5182
566.899	5510
567.239	5864
567.580	6236
567.920	6619
568.261	7006
568.601	7403
568.941	7815
569.282	8239
569.622	8680
569.962	9139
570.302	9629
570.643	10136
570.983	10649
571.323	11146
571.663	11626
572.003	12084
572.343	12515
572.683	12922
573.022	13337
573.362	13775
573.702	14228
574.042	14682
574.381	15120
574.721	15537
575.061	15939
575.400	16306
575.740	16635
576.079	16929
576.419	17221
576.758	17552
577.097	17939
577.437	18363
577.776	18814
578.115	19287
578.454	19766
578.794	20207
579.133	20553
579.472	20796
579.811	20945
580.150	21005
580.489	20998
580.828	20961
581.167	20928
581.505	20913
581.844	20906
582.183	20900
582.522	20907
582.860	20925
583.199	20942
583.538	20929
583.876	20851
584.215	20688
584.553	20426
584.891	20075
585.230	19639
585.568	19155
585.906	18661
586.245	18215
586.583	17833
586.921	17516
587.259	17229
587.597	16939
587.935	16639
588.273	16330
588.611	16043
588.949	15791
589.287	15581
589.625	15418
589.963	15292
590.300	15193
590.638	15103
590.976	15000
591.313	14878
591.651	14761
591.989	14660
592.326	14581
592.664	14512
593.001	14458
593.338	14426
593.676	14413
594.013	14427
594.350	14487
594.687	14584
595.025	14692
595.362	14791
595.699	14863
596.036	14912
596.373	14929
596.710	14906
597.047	14859
597.384	14800
597.720	14732
598.057	14678
598.394	14640
598.731	14622
599.067	14628
599.404	14658
599.741	14724
600.077	14814
600.414	14914
600.750	15019
601.087	15100
601.423	15143
601.759	15150
602.096	15130
602.432	15091
602.768	15030
603.104	14942
603.440	14833
603.776	14715
604.112	14587
604.448	14456
604.784	14318
605.120	14170
605.456	14027
605.792	13875
606.128	13716
606.463	13554
606.799	13389
607.135	13240
607.470	13091
607.806	12944
608.142	12801
608.477	12662
608.812	12529
609.148	12395
609.483	12253
609.819	12109
610.154	11971
610.489	11844
610.824	11733
611.159	11640
611.494	11545
611.830	11462
612.165	11380
612.500	11289
612.834	11183
613.169	11062
613.504	10929
613.839	10780
614.174	10611
614.509	10441
614.843	10271
615.178	10109
615.512	9949
615.847	9793
616.182	9636
616.516	9478
616.850	9311
617.185	9138
617.519	8962
617.853	8773
618.188	8575
618.522	8396
618.856	8244
619.190	8111
619.524	7996
619.858	7903
620.192	7830
620.526	7765
620.860	7701
621.194	7639
621.528	7579
621.862	7518
622.195	7445
622.529	7367
622.863	7285
623.196	7205
623.530	7122
623.864	7039
624.197	6956
624.530	6875
624.864	6801
625.197	6725
625.531	6639
625.864	6535
626.197	6424
626.530	6304
626.863	6168
627.196	6021
627.529	5872
627.862	5725
628.195	5579
628.528	5435
628.861	5297
629.194	5172
629.527	5054
629.860	4937
630.192	4822
630.525	4714
630.858	4614
631.190	4519
631.523	4427
631.855	4341
632.188	4266
632.520	4196
632.852	4130
633.185	4062
633.517	3996
633.849	3937
634.182	3883
634.514	3831
634.846	3785
635.178	3744
635.510	3708
635.842	3675
636.174	3644
636.506	3611
636.837	3580
637.169	3549
637.501	3516
637.833	3480
638.164	3439
638.496	3394
638.828	3344
639.159	3286
639.491	3224
639.822	3160
640.154	3095
640.485	3031
640.816	2968
641.147	2905
641.479	2845
641.810	2787
642.141	2730
642.472	2674
642.803	2618
643.134	2565
643.465	2520
643.796	2484
644.127	2458
644.458	2445
644.789	2444
645.119	2458
645.450	2481
645.781	2506
646.111	2531
646.442	2553
646.773	2571
647.103	2585
647.433	2597
647.764	2609
648.094	2626
648.425	2647
648.755	2673
649.085	2702
649.415	2733
649.745	2766
650.075	2799
650.405	2836
650.735	2917
651.065	3495
651.395	5296
651.725	8270
652.055	11910
652.385	15544
652.715	19177
653.044	22812
653.374	26452
653.704	30098
654.033	32940
654.363	34794
654.692	36031
655.022	36839
655.351	37370
655.680	37702
656.010	37884
656.339	37966
656.668	37990
656.997	37981
657.326	37949
657.655	37862
657.984	37265
658.313	35435
658.642	32423
658.971	28735
659.300	25048
659.629	21361
659.958	17674
660.286	13988
660.615	10303
660.944	7430
661.272	5548
661.601	4286
661.929	3449
662.258	2884
662.586	2513
662.915	2287
663.243	2155
663.571	2081
663.899	2036
664.228	2008
664.556	1989
664.884	1977
665.212	1967
665.540	1961
665.868	1957
666.196	1955
666.524	1954
666.852	1955
667.179	1963
667.507	1978
667.835	2000
668.162	2029
668.490	2065
668.818	2108
669.145	2152
669.473	2197
669.800	2238
670.127	2275
670.455	2305
670.782	2330
671.109	2352
671.436	2371
671.764	2387
672.091	2399
672.418	2411
672.745	2419
673.072	2428
673.399	2439
673.726	2450
674.053	2459
674.379	2462
674.706	2461
675.033	2460
675.359	2456
675.686	2451
676.013	2449
676.339	2451
676.666	2458
676.992	2476
677.318	2501
677.645	2530
677.971	2557
678.297	2581
678.624	2606
678.950	2629
679.276	2650
679.602	2671
679.928	2693
680.254	2720
680.580	2754
680.906	2798
681.232	2852
681.558	2908
681.883	2963
682.209	3015
682.535	3063
682.860	3106
683.186	3143
683.511	3173
683.837	3192
684.162	3207
684.488	3219
684.813	3231
685.138	3242
685.464	3252
685.789	3260
686.114	3268
686.439	3279
686.764	3291
687.089	3299
687.414	3300
687.739	3289
688.064	3270
688.389	3245
688.714	3215
689.039	3184
689.363	3150
689.688	3113
690.013	3076
690.337	3044
690.662	3017
690.986	2994
691.311	2970
691.635	2945
691.959	2923
692.284	2908
692.608	2904
692.932	2909
693.256	2918
693.580	2931
693.904	2947
694.228	2965
694.552	2983
694.876	2991
695.200	2989
695.524	2976
695.848	2957
696.172	2934
696.495	2909
696.819	2883
697.143	2856
697.466	2829
697.790	2805
698.113	2789
698.437	2782
698.760	2780
699.083	2778
699.407	2770
699.730	2756
700.053	2734
700.376	2703
700.699	2659
701.022	2605
701.345	2546
701.668	2490
701.991	2443
702.314	2412
702.637	2397
702.960	2402
703.283	2427
703.605	2471
703.928	2530
704.251	2597
704.573	2665
704.896	2725
705.218	2775
705.540	2815
705.863	2847
706.185	2873
706.507	2896
706.830	2917
707.152	2940
707.474	2964
707.796	2991
708.118	3019
708.440	3046
708.762	3070
709.084	3089
709.406	3100
709.728	3102
710.049	3096
710.371	3083
710.693	3063
711.014	3040
711.336	3019
711.658	3000
711.979	2982
712.301	2966
712.622	2949
712.943	2928
713.265	2903
713.586	2877
713.907	2852
714.228	2830
714.549	2813
714.870	2800
715.191	2795
715.512	2794
715.833	2789
716.154	2782
716.475	2770
716.796	2752
717.117	2726
717.437	2696
717.758	2662
718.078	2627
718.399	2593
718.719	2563
719.040	2537
719.360	2516
719.681	2502
720.001	2493
720.321	2487
720.642	2485
720.962	2488
721.282	2494
721.602	2502
721.922	2511
722.242	2523
722.562	2539
722.882	2560
723.202	2577
723.521	2594
723.841	2611
724.161	2629
724.481	2646
724.800	2665
725.120	2688
725.439	2717
725.759	2749
726.078	2785
726.398	2829
726.717	2883
727.036	2945
727.355	3009
727.675	3072
727.994	3133
728.313	3191
728.632	3241
728.951	3283
729.270	3319
729.589	3352
729.908	3394
730.226	3440
730.545	3492
730.864	3548
731.182	3607
731.501	3668
731.820	3725
732.138	3775
732.457	3820
732.775	3861
733.093	3894
733.412	3913
733.730	3919
734.048	3911
734.367	3893
734.685	3870
735.003	3843
735.321	3820
735.639	3800
735.957	3784
736.275	3770
736.593	3749
736.910	3717
737.228	3673
737.546	3616
737.863	3550
738.181	3477
738.499	3400
738.816	3324
739.134	3249
739.451	3174
739.768	3098
740.086	3024
740.403	2956
740.720	2893
741.038	2834
741.355	2777
741.672	2720
741.989	2662
742.306	2602
742.623	2541
742.940	2481
743.257	2425
743.573	2376
743.890	2336
744.207	2306
744.523	2285
744.840	2271
745.157	2263
745.473	2262
745.790	2270
746.106	2287
746.422	2313
746.739	2346
747.055	2386
747.371	2431
747.687	2478
748.004	2523
748.320	2562
748.636	2598
748.952	2633
749.268	2668
749.584	2701
749.899	2731
750.215	2763
750.531	2799
750.847	2838
751.162	2878
751.478	2917
751.793	2957
752.109	3000
752.424	3045
752.740	3092
753.055	3145
753.370	3210
753.686	3283
754.001	3363
754.316	3447
754.631	3535
754.946	3631
755.261	3730
755.576	3826
755.891	3919
756.206	4012
756.521	4109
756.836	4208
757.150	4304
757.465	4387
757.780	4459
758.094	4520
758.409	4566
758.723	4596
759.038	4609
759.352	4609
759.667	4597
759.981	4574
760.295	4551
760.609	4533
760.923	4522
761.238	4515
761.552	4510
761.866	4504
762.180	4494
762.493	4469
762.807	4422
763.121	4351
763.435	4261
763.749	4162
764.062	4070
764.376	3993
764.689	3939
765.003	3910
765.316	3905
765.630	3917
765.943	3939
766.257	3965
766.570	3987
766.883	3992
767.196	3982
767.509	3956
767.822	3919
768.135	3870
768.448	3817
768.761	3761
769.074	3713
769.387	3676
769.700	3653
770.013	3639
770.325	3628
770.638	3611
770.950	3581
771.263	3533
771.575	3466
771.888	3381
772.200	3282
772.513	3175
772.825	3061
773.137	2946
773.449	2832
773.761	2721
774.074	2618
774.386	2526
774.698	2450
775.010	2387
775.321	2342
775.633	2311
775.945	2294
776.257	2283
776.568	2280
776.880	2287
777.192	2302
777.503	2327
777.815	2357
778.126	2396
778.438	2445
778.749	2497
779.060	2547
779.372	2594
779.683	2640
779.994	2681
780.305	2714
780.616	2736
780.927	2750
781.238	2755
781.549	2749
781.860	2730
782.171	2706
782.481	2678
782.792	2650
783.103	2621
783.413	2590
783.724	2558
784.034	2527
784.345	2499
784.655	2473
784.966	2446
785.276	2418
785.586	2391
785.896	2363
786.207	2334
786.517	2304
786.827	2274
787.137	2246
787.447	2218
787.757	2192
788.066	2167
788.376	2143
788.686	2119
788.996	2094
789.305	2070
789.615	2051
789.925	2040
790.234	2037
790.544	2042
790.853	2052
791.162	2062
791.472	2071
791.781	2074
792.090	2070
792.399	2057
792.708	2038
793.017	2016
793.326	1994
793.635	1975
793.944	1957
794.253	1941
794.562	1929
794.871	1922
795.179	1917
795.488	1910
795.797	1899
796.105	1882
796.414	1854
796.722	1815
797.031	1766
797.339	1708
797.647	1642
797.956	1573
798.264	1509
798.572	1456
798.880	1415
799.188	1384
799.496	1362
799.804	1346
800.112	1333
800.420	1322
800.728	1311
801.035	1298
801.343	1282
801.651	1270
801.958	1266
802.266	1272
802.573	1282
802.881	1295
803.188	1312
803.496	1331
803.803	1350
804.110	1366
804.417	1381
804.724	1395
805.032	1408
805.339	1418
805.646	1425
805.953	1429
806.259	1430
806.566	1427
806.873	1422
807.180	1414
807.486	1407
807.793	1397
808.100	1383
808.406	1360
808.713	1328
809.019	1292
809.326	1256
809.632	1221
809.938	1188
810.244	1158
810.551	1133
810.857	1112
811.163	1094
811.469	1074
811.775	1053
812.081	1031
812.387	1012
812.692	996
812.998	983
813.304	974
813.610	966
813.915	960
814.221	955
814.526	951
814.832	947
815.137	942
815.443	936
815.748	927
816.053	915
816.358	902
816.664	890
816.969	880
817.274	870
817.579	863
817.884	858
818.189	857
818.493	857
818.798	854
819.103	848
819.408	840
819.712	831
820.017	820
820.321	808
820.626	797
820.930	787
821.235	780
821.539	777
821.843	777
822.148	779
822.452	780
822.756	779
823.060	776
823.364	772
823.668	765
823.972	757
824.276	749
824.580	742
824.883	738
825.187	737
825.491	737
825.795	737
826.098	737
826.402	736
826.705	733
827.008	728
827.312	720
827.615	708
827.918	694
828.222	677
828.525	660
828.828	644
829.131	628
829.434	612
829.737	597
830.040	585
830.343	575
830.645	567
830.948	558
831.251	549
831.553	542
831.856	536
832.159	530
832.461	523
832.764	515
833.066	508
833.368	502
833.671	498
833.973	495
834.275	491
834.577	488
834.879	484
835.181	479
835.483	473
835.785	467
836.087	459
836.389	449
836.690	437
836.992	425
837.294	413
837.595	399
837.897	386
838.198	372
838.500	359
838.801	347
839.103	337
839.404	329
839.705	321
840.006	315
840.307	310
840.608	306
840.910	303
841.210	302
841.511	299
841.812	297
842.113	293
842.414	289
842.715	284
843.015	278
843.316	272
843.616	266
843.917	261
844.217	256
844.518	253
844.818	250
845.118	248
845.419	246
845.719	245
846.019	244
846.319	242
846.619	242
846.919	241
847.219	240
847.519	238
847.819	237
848.118	237
848.418	240
848.718	247
849.017	259
849.317	275
849.616	296
849.916	319
850.215	345
850.515	374
850.814	401
851.113	427
851.412	449
851.712	470
852.011	489
852.310	507
852.609	523
852.908	536
853.206	549
853.505	560
853.804	570
854.103	579
854.401	585
854.700	587
854.999	585
855.297	578
855.595	566
855.894	550
856.192	530
856.491	507
856.789	482
857.087	456
857.385	432
857.683	410
857.981	390
858.279	373
858.577	355
858.875	340
859.173	328
859.471	319
859.768	310
860.066	303
860.363	297
860.661	292
860.959	288
861.256	284
861.553	280
861.851	274
862.148	269
862.445	263
862.742	258
863.039	254
863.337	251
863.634	248
863.931	246
864.227	245
864.524	244
864.821	244
865.118	242
865.415	241
865.711	237
866.008	234
866.304	229
866.601	225
866.897	221
867.194	218
867.490	215
867.786	215
868.082	214
868.379	215
868.675	216
868.971	216
869.267	216
869.563	216
869.859	215
870.154	215
870.450	213
870.746	212
871.042	212
871.337	212
871.633	212
871.928	213
872.224	214
872.519	216
872.815	218
873.110	219
873.405	218
873.700	218
873.995	217
874.291	217
874.586	218
874.881	219
875.175	221
875.470	224
875.765	228
876.060	233
876.355	237
876.649	242
876.944	246
877.238	250
877.533	254
877.827	257
878.122	259
878.416	260
878.710	260
879.005	259
879.299	258
879.593	257
879.887	256
880.181	255
880.475	253
880.769	251
881.063	249
881.356	246
881.650	243
881.944	240
882.238	200
882.531	190
882.825	187
883.118	194
883.412	190
883.705	189
883.998	193
884.291	199
884.585	207
884.878	212
>>>>>>>>>> END of Data <<<<<<<<<<