Date	2022年07月22日金曜日 03時22分08秒
Spectrometers	USB2+H05879
ダーク	使用
リファレンス	使用
積分時間[msec]	17
平均回数	10000
ｽﾑｰｼﾞﾝｸﾞ	0
Electrical Dark	USE
ピクセル数	2048
計測モード	吸光度
保存開始波長[nm]	190.664
保存終了波長[nm]	884.878
保存ﾋﾟｯﾁ波長[nm]	全波長

>>>>>>>>>> Data Start <<<<<<<<<<<<
190.664	0.000000
191.040	0.000000
191.415	0.000000
191.791	0.000000
192.166	0.000000
192.542	-0.155413
192.917	0.386558
193.293	0.000000
193.668	0.000000
194.044	0.000000
194.419	0.000000
194.794	0.000000
195.170	0.000000
195.545	0.000000
195.920	0.000000
196.296	0.000000
196.671	0.000000
197.046	0.000000
197.421	0.185807
197.796	0.000000
198.171	0.888685
198.546	0.000000
198.922	-0.001406
199.297	0.000000
199.672	0.000000
200.047	0.000000
200.422	0.000000
200.796	0.000000
201.171	0.000000
201.546	1.939622
201.921	0.000000
202.296	0.000000
202.671	0.000000
203.045	0.000000
203.420	0.606769
203.795	0.000000
204.170	0.000000
204.544	0.000000
204.919	0.000000
205.294	0.000000
205.668	0.000000
206.043	0.000000
206.417	0.833801
206.792	0.000000
207.166	0.000000
207.541	0.000000
207.915	0.000000
208.289	0.626386
208.664	0.000000
209.038	0.325639
209.412	0.000000
209.787	0.000000
210.161	0.023251
210.535	0.000000
210.909	0.714091
211.284	0.153204
211.658	0.000000
212.032	1.618515
212.406	0.489998
212.780	0.000000
213.154	0.055394
213.528	0.000000
213.902	0.263989
214.276	0.000000
214.650	0.000000
215.024	0.000000
215.398	0.180058
215.772	0.000000
216.145	0.000000
216.519	1.148909
216.893	0.000000
217.267	0.210418
217.640	0.000000
218.014	0.000000
218.388	0.154572
218.761	0.792941
219.135	0.339630
219.508	0.181280
219.882	0.000000
220.256	0.000000
220.629	0.000000
221.003	0.000000
221.376	0.000000
221.749	0.000000
222.123	0.000000
222.496	0.000000
222.869	0.000000
223.243	0.000000
223.616	0.076730
223.989	0.000000
224.362	0.000000
224.736	0.664569
225.109	1.126663
225.482	0.000000
225.855	0.090235
226.228	0.693397
226.601	0.000000
226.974	0.000000
227.347	0.000000
227.720	0.000000
228.093	0.000000
228.466	0.000000
228.839	-0.149641
229.212	0.788835
229.585	0.823234
229.957	0.940046
230.330	0.000000
230.703	0.000000
231.076	0.372038
231.448	0.840532
231.821	0.000000
232.194	-0.683239
232.566	0.000000
232.939	0.000000
233.311	0.000000
233.684	0.000000
234.056	0.000000
234.429	0.000000
234.801	0.000000
235.174	0.000000
235.546	0.000000
235.918	0.000000
236.291	0.452783
236.663	0.000000
237.035	0.474633
237.408	0.423586
237.780	0.125368
238.152	0.708031
238.524	0.000000
238.896	0.000000
239.268	0.000000
239.641	0.000000
240.013	0.090570
240.385	0.000000
240.757	0.000000
241.129	0.000000
241.500	0.000000
241.872	0.000000
242.244	0.715066
242.616	0.000000
242.988	0.000000
243.360	0.000000
243.731	0.000000
244.103	0.061267
244.475	0.000000
244.847	0.000000
245.218	0.000000
245.590	0.000000
245.961	0.226163
246.333	1.161091
246.705	0.000000
247.076	0.206235
247.448	0.000000
247.819	0.000000
248.190	0.620442
248.562	0.000000
248.933	0.000000
249.305	0.000000
249.676	-0.529337
250.047	0.198686
250.418	0.000000
250.790	0.000000
251.161	0.000000
251.532	0.000000
251.903	0.000000
252.274	0.000000
252.645	0.000000
253.016	1.136296
253.387	0.671085
253.758	0.000000
254.129	0.000000
254.500	1.926047
254.871	0.295455
255.242	0.983075
255.613	0.000000
255.984	0.193576
256.355	0.000000
256.725	0.000000
257.096	0.000000
257.467	0.965473
257.838	0.430457
258.208	0.000000
258.579	0.284484
258.949	0.000000
259.320	0.000000
259.690	0.000000
260.061	-0.039376
260.431	0.401185
260.802	0.793400
261.172	0.000000
261.543	0.000000
261.913	1.099539
262.283	-0.050860
262.654	0.000000
263.024	-0.289513
263.394	0.000000
263.764	0.673975
264.135	0.000000
264.505	0.026088
264.875	-0.080282
265.245	0.222614
265.615	0.249441
265.985	0.000000
266.355	0.000000
266.725	-1.182705
267.095	0.000000
267.465	0.321522
267.835	0.000000
268.205	1.346955
268.575	0.000000
268.944	0.000000
269.314	0.000000
269.684	0.000000
270.054	0.000000
270.423	0.000000
270.793	-0.197183
271.163	0.998079
271.532	0.000000
271.902	0.000000
272.271	-0.348257
272.641	0.000000
273.010	0.000000
273.380	0.000000
273.749	0.121829
274.119	0.000000
274.488	0.000000
274.857	0.000000
275.227	0.000000
275.596	0.000000
275.965	0.000000
276.335	0.000000
276.704	0.000000
277.073	0.000000
277.442	0.667574
277.811	0.675704
278.180	0.000000
278.549	0.000000
278.918	0.000000
279.287	0.000000
279.656	0.279792
280.025	0.180289
280.394	0.000000
280.763	1.014647
281.132	0.000000
281.501	0.000000
281.869	0.000000
282.238	0.000000
282.607	0.000000
282.976	0.650273
283.344	0.000000
283.713	0.000000
284.081	0.000000
284.450	0.000000
284.819	0.000000
285.187	0.000000
285.556	0.000000
285.924	0.650194
286.292	-1.276083
286.661	0.321654
287.029	0.814267
287.398	0.539263
287.766	0.000000
288.134	0.000000
288.502	0.000000
288.871	0.174037
289.239	0.000000
289.607	0.299271
289.975	0.433730
290.343	0.000000
290.711	0.000000
291.079	1.600219
291.447	1.370344
291.815	0.238209
292.183	-0.328374
292.551	0.000000
292.919	-0.867688
293.287	0.410246
293.655	0.778489
294.022	0.000000
294.390	0.000000
294.758	0.000000
295.126	0.486814
295.493	0.000000
295.861	0.190520
296.229	0.691179
296.596	0.593453
296.964	0.000000
297.331	0.000000
297.699	1.422023
298.066	0.000000
298.434	0.329382
298.801	1.066342
299.168	0.959050
299.536	0.000000
299.903	0.542252
300.270	0.000000
300.638	0.000000
301.005	1.201413
301.372	-0.355409
301.739	0.013810
302.106	0.000000
302.473	0.000000
302.840	0.000000
303.207	0.616733
303.574	-0.031499
303.941	0.000000
304.308	0.724181
304.675	0.152561
305.042	0.623523
305.409	0.000000
305.776	-0.192060
306.143	0.340826
306.509	0.000000
306.876	0.475642
307.243	0.856772
307.610	0.652003
307.976	2.616880
308.343	0.450063
308.709	0.987090
309.076	1.037350
309.442	0.512768
309.809	0.950850
310.175	1.213218
310.542	1.508500
310.908	1.054548
311.275	1.305439
311.641	0.827658
312.007	1.465808
312.373	1.250798
312.740	1.238504
313.106	1.194914
313.472	1.220362
313.838	1.437396
314.204	1.420607
314.570	1.197001
314.936	1.186520
315.302	0.000000
315.668	1.376920
316.034	1.678343
316.400	1.410888
316.766	1.348645
317.132	0.000000
317.498	1.421038
317.864	1.694874
318.230	2.047482
318.595	2.239949
318.961	2.476857
319.327	1.315117
319.692	1.805248
320.058	1.756285
320.424	1.690952
320.789	1.572488
321.155	1.587664
321.520	2.050404
321.886	1.666996
322.251	1.928773
322.616	1.852090
322.982	2.416286
323.347	1.832678
323.712	1.650971
324.078	2.768786
324.443	1.854165
324.808	2.565145
325.173	2.043230
325.539	1.794076
325.904	1.921442
326.269	2.100893
326.634	2.018902
326.999	2.359508
327.364	1.851247
327.729	2.080822
328.094	1.895770
328.459	2.189165
328.823	1.926081
329.188	1.704639
329.553	1.976269
329.918	2.280181
330.283	2.248906
330.647	2.012524
331.012	1.926559
331.377	2.274958
331.741	2.332367
332.106	2.165971
332.470	1.919304
332.835	2.054006
333.199	2.047489
333.564	2.106966
333.928	1.843501
334.293	1.860551
334.657	2.149994
335.021	2.001068
335.386	1.934062
335.750	2.073210
336.114	2.271229
336.478	2.219965
336.843	2.010907
337.207	2.152367
337.571	2.128145
337.935	2.308504
338.299	2.117372
338.663	2.215899
339.027	2.183389
339.391	2.195149
339.755	1.932487
340.119	2.078294
340.483	2.164927
340.846	2.223256
341.210	1.999816
341.574	2.095496
341.938	1.912324
342.301	2.069019
342.665	2.308544
343.029	2.287141
343.392	1.968005
343.756	2.176402
344.119	2.126305
344.483	2.335218
344.846	2.206098
345.210	2.081872
345.573	2.019422
345.937	2.260952
346.300	2.368178
346.663	2.140392
347.027	2.137484
347.390	2.095142
347.753	2.197718
348.116	2.097490
348.479	2.196543
348.843	2.113981
349.206	2.157966
349.569	1.942926
349.932	2.258198
350.295	2.230435
350.658	2.154728
351.021	1.977860
351.383	2.012633
351.746	2.227201
352.109	2.211092
352.472	2.017877
352.835	2.088506
353.197	2.242633
353.560	2.142392
353.923	2.178525
354.285	2.249082
354.648	2.046479
355.011	2.273524
355.373	2.134168
355.736	2.093538
356.098	2.125154
356.461	2.089422
356.823	2.472873
357.185	2.269334
357.548	2.070938
357.910	2.167675
358.272	2.201789
358.635	2.196657
358.997	2.195514
359.359	2.065065
359.721	2.244225
360.083	2.170921
360.445	2.276340
360.807	2.139625
361.169	2.083164
361.531	2.171021
361.893	2.132996
362.255	2.069874
362.617	2.116065
362.979	2.218296
363.341	2.264510
363.703	2.055104
364.064	2.094184
364.426	2.147430
364.788	2.023913
365.149	1.996167
365.511	2.146112
365.873	2.221335
366.234	2.185980
366.596	2.193988
366.957	2.254043
367.319	2.082191
367.680	2.082516
368.042	2.057650
368.403	2.098480
368.764	2.128628
369.126	2.147535
369.487	2.122605
369.848	2.148107
370.209	2.161099
370.570	2.071365
370.931	2.127369
371.293	2.284303
371.654	2.140285
372.015	2.206542
372.376	2.103406
372.737	2.054370
373.098	2.225129
373.458	2.204173
373.819	2.122645
374.180	2.110340
374.541	2.346831
374.902	2.275403
375.263	2.079455
375.623	1.977368
375.984	2.090597
376.345	2.162332
376.705	2.187161
377.066	2.186781
377.426	2.312752
377.787	2.290088
378.147	2.095332
378.508	2.092079
378.868	2.311600
379.228	2.239545
379.589	2.251814
379.949	2.150781
380.309	2.343962
380.670	2.270766
381.030	2.109094
381.390	2.405800
381.750	2.261663
382.110	2.254627
382.470	2.262974
382.830	2.241424
383.190	2.126033
383.550	2.238263
383.910	2.128474
384.270	2.223323
384.630	2.199502
384.990	2.113153
385.350	2.117753
385.709	2.219845
386.069	2.277501
386.429	2.203477
386.788	2.221621
387.148	2.213398
387.508	2.226223
387.867	2.214226
388.227	2.242247
388.586	2.144954
388.946	1.990823
389.305	2.178957
389.665	2.243605
390.024	2.455460
390.383	2.376927
390.743	2.102513
391.102	2.321619
391.461	2.074842
391.820	2.240521
392.179	2.107617
392.539	2.203713
392.898	2.164565
393.257	2.219995
393.616	2.128412
393.975	2.049723
394.334	2.091172
394.693	2.104550
395.051	2.267651
395.410	2.438121
395.769	2.200190
396.128	2.233657
396.487	2.095753
396.845	2.205558
397.204	2.182176
397.563	2.348632
397.921	2.157247
398.280	2.124352
398.638	2.234124
398.997	2.102339
399.355	2.217234
399.714	2.165537
400.072	2.311310
400.431	2.121064
400.789	2.372656
401.147	2.103488
401.506	2.097914
401.864	2.082926
402.222	2.323120
402.580	2.251942
402.938	2.035640
403.297	2.077409
403.655	2.302945
404.013	2.112796
404.371	2.138510
404.729	2.380612
405.087	2.152788
405.444	2.296564
405.802	2.218554
406.160	2.225880
406.518	2.167051
406.876	2.122315
407.233	2.215432
407.591	2.336479
407.949	2.412638
408.306	2.058793
408.664	2.189334
409.022	2.248730
409.379	2.232023
409.737	2.155043
410.094	2.186569
410.451	2.214473
410.809	2.201873
411.166	2.044626
411.523	2.095732
411.881	2.093697
412.238	2.175794
412.595	2.201470
412.952	2.223162
413.310	2.061084
413.667	2.329429
414.024	2.213252
414.381	2.146949
414.738	2.157855
415.095	2.250979
415.452	2.102689
415.809	2.168711
416.165	2.096682
416.522	2.127074
416.879	2.223137
417.236	2.343855
417.593	2.241666
417.949	2.365770
418.306	2.349805
418.663	2.164594
419.019	2.113809
419.376	2.106732
419.732	2.246509
420.089	2.172249
420.445	2.171575
420.802	2.172307
421.158	2.306394
421.514	2.179470
421.871	2.123397
422.227	2.157627
422.583	2.102400
422.939	2.099334
423.295	2.071975
423.652	2.324468
424.008	2.203457
424.364	2.055274
424.720	2.078601
425.076	2.136912
425.432	2.215214
425.788	2.187551
426.143	2.158414
426.499	2.053333
426.855	2.110164
427.211	2.158313
427.567	2.204302
427.922	2.107693
428.278	2.318015
428.634	2.158368
428.989	2.301045
429.345	2.139792
429.700	2.281147
430.056	2.078485
430.411	2.099323
430.767	2.219468
431.122	2.199330
431.478	2.147677
431.833	2.207450
432.188	2.167751
432.543	2.121266
432.899	2.293413
433.254	2.074232
433.609	2.142974
433.964	2.210230
434.319	2.293830
434.674	2.236381
435.029	2.221492
435.384	2.100831
435.739	2.145846
436.094	2.211314
436.449	2.145092
436.804	2.264339
437.158	2.086115
437.513	2.238626
437.868	2.198127
438.223	2.098804
438.577	2.096749
438.932	2.022552
439.287	2.131669
439.641	2.129931
439.996	2.157252
440.350	2.087812
440.704	2.131616
441.059	2.209089
441.413	2.222363
441.768	1.961325
442.122	2.228821
442.476	2.125961
442.830	2.055268
443.185	2.093948
443.539	2.099143
443.893	2.085232
444.247	2.189162
444.601	2.069978
444.955	2.081572
445.309	2.132515
445.663	2.006121
446.017	2.025858
446.371	2.074064
446.724	2.101575
447.078	1.994655
447.432	1.983812
447.786	2.140712
448.139	2.057830
448.493	2.159932
448.847	2.024370
449.200	1.969695
449.554	1.979244
449.907	2.080204
450.261	2.067614
450.614	2.133363
450.968	1.987779
451.321	2.099278
451.674	2.003569
452.027	2.028740
452.381	2.024094
452.734	2.060347
453.087	2.133310
453.440	2.031979
453.793	2.074430
454.146	2.205143
454.499	2.055437
454.852	2.043354
455.205	1.992940
455.558	1.938326
455.911	2.084505
456.264	2.066071
456.617	2.007913
456.970	2.030275
457.322	1.963638
457.675	2.009049
458.028	1.990201
458.380	2.023677
458.733	2.129850
459.086	2.050457
459.438	2.101047
459.791	2.011933
460.143	1.998474
460.496	1.953265
460.848	1.970054
461.200	2.008658
461.553	1.991540
461.905	2.031994
462.257	2.121713
462.609	2.032837
462.961	1.952378
463.314	1.902702
463.666	1.933242
464.018	1.986081
464.370	2.003880
464.722	1.973331
465.074	1.906158
465.426	1.929653
465.777	1.894635
466.129	1.912700
466.481	1.868917
466.833	1.897231
467.184	2.020205
467.536	1.926967
467.888	2.010229
468.239	1.943038
468.591	1.940550
468.943	2.031673
469.294	1.853291
469.646	1.972630
469.997	1.885498
470.348	1.938286
470.700	1.779877
471.051	1.845198
471.402	1.970394
471.754	1.960812
472.105	1.925255
472.456	1.952349
472.807	1.949239
473.158	1.883178
473.509	1.848963
473.860	1.951050
474.211	1.903029
474.562	1.949663
474.913	1.936623
475.264	1.914606
475.615	1.908131
475.966	1.911447
476.316	1.920792
476.667	1.830561
477.018	1.899603
477.368	1.841056
477.719	1.879675
478.070	1.903396
478.420	1.829356
478.771	1.914852
479.121	1.853750
479.472	1.864017
479.822	1.867172
480.172	1.819560
480.523	1.829948
480.873	1.801683
481.223	1.827104
481.573	1.847770
481.924	1.814476
482.274	1.848169
482.624	1.861339
482.974	1.824300
483.324	1.863439
483.674	1.772117
484.024	1.806781
484.374	1.907888
484.724	1.829972
485.073	1.806198
485.423	1.812561
485.773	1.808321
486.123	1.794471
486.472	1.799173
486.822	1.801976
487.172	1.820540
487.521	1.799624
487.871	1.764358
488.220	1.776169
488.570	1.850918
488.919	1.812678
489.268	1.824447
489.618	1.791357
489.967	1.812273
490.316	1.803971
490.666	1.725532
491.015	1.806959
491.364	1.712760
491.713	1.771130
492.062	1.763214
492.411	1.790037
492.760	1.805608
493.109	1.815000
493.458	1.765312
493.807	1.775142
494.156	1.796936
494.505	1.725550
494.853	1.727850
495.202	1.757150
495.551	1.770858
495.900	1.750230
496.248	1.725105
496.597	1.725670
496.945	1.751697
497.294	1.725979
497.642	1.735931
497.991	1.698154
498.339	1.721510
498.688	1.715662
499.036	1.725872
499.384	1.729610
499.732	1.707425
500.081	1.724802
500.429	1.697064
500.777	1.756531
501.125	1.707881
501.473	1.722386
501.821	1.722042
502.169	1.692252
502.517	1.696420
502.865	1.684679
503.213	1.689341
503.561	1.701880
503.908	1.705657
504.256	1.673072
504.604	1.650179
504.952	1.654973
505.299	1.654473
505.647	1.667104
505.994	1.725402
506.342	1.681564
506.689	1.685211
507.037	1.641107
507.384	1.664462
507.732	1.641129
508.079	1.649723
508.426	1.656089
508.774	1.617578
509.121	1.638781
509.468	1.647006
509.815	1.637311
510.162	1.642951
510.509	1.641660
510.856	1.657952
511.203	1.632851
511.550	1.644825
511.897	1.642398
512.244	1.614485
512.591	1.635116
512.938	1.599444
513.284	1.621338
513.631	1.625398
513.978	1.677191
514.324	1.613113
514.671	1.631785
515.018	1.588240
515.364	1.593781
515.711	1.636037
516.057	1.653913
516.403	1.609417
516.750	1.586082
517.096	1.616300
517.443	1.592656
517.789	1.631557
518.135	1.587526
518.481	1.637495
518.827	1.649418
519.173	1.597874
519.519	1.644071
519.865	1.612622
520.211	1.593920
520.557	1.574726
520.903	1.564023
521.249	1.602095
521.595	1.593094
521.941	1.611727
522.287	1.626341
522.632	1.567081
522.978	1.594112
523.324	1.594982
523.669	1.574733
524.015	1.571616
524.360	1.581370
524.706	1.583242
525.051	1.577993
525.397	1.557372
525.742	1.562224
526.087	1.581571
526.433	1.552413
526.778	1.550839
527.123	1.564854
527.468	1.530634
527.813	1.542256
528.158	1.571067
528.504	1.563510
528.849	1.579876
529.193	1.548132
529.538	1.530953
529.883	1.527541
530.228	1.518363
530.573	1.557062
530.918	1.549525
531.263	1.515386
531.607	1.506668
531.952	1.534619
532.296	1.500434
532.641	1.526287
532.986	1.511088
533.330	1.531681
533.675	1.544274
534.019	1.505480
534.363	1.494301
534.708	1.488110
535.052	1.497524
535.396	1.504928
535.741	1.513646
536.085	1.479858
536.429	1.508432
536.773	1.473708
537.117	1.517935
537.461	1.472403
537.805	1.501082
538.149	1.481663
538.493	1.498865
538.837	1.460079
539.181	1.457149
539.524	1.459470
539.868	1.451334
540.212	1.469954
540.556	1.459154
540.899	1.446840
541.243	1.449971
541.586	1.424112
541.930	1.465355
542.273	1.479366
542.617	1.437383
542.960	1.425559
543.304	1.441404
543.647	1.413720
543.990	1.411646
544.333	1.424381
544.677	1.398214
545.020	1.439550
545.363	1.417255
545.706	1.413440
546.049	1.421470
546.392	1.389537
546.735	1.382375
547.078	1.387893
547.421	1.378625
547.764	1.393349
548.106	1.358990
548.449	1.399017
548.792	1.368465
549.135	1.358979
549.477	1.377630
549.820	1.363454
550.162	1.326759
550.505	1.355321
550.847	1.341715
551.190	1.336628
551.532	1.328590
551.875	1.306326
552.217	1.311564
552.559	1.319452
552.901	1.325107
553.244	1.311822
553.586	1.314133
553.928	1.307744
554.270	1.298884
554.612	1.290110
554.954	1.297294
555.296	1.285492
555.638	1.283395
555.980	1.259394
556.322	1.265799
556.663	1.265026
557.005	1.260877
557.347	1.238066
557.689	1.252588
558.030	1.224570
558.372	1.226543
558.713	1.222061
559.055	1.220290
559.396	1.209812
559.738	1.212886
560.079	1.206324
560.421	1.211807
560.762	1.187839
561.103	1.198487
561.444	1.192152
561.786	1.187239
562.127	1.176675
562.468	1.174514
562.809	1.159305
563.150	1.165012
563.491	1.149937
563.832	1.143798
564.173	1.126004
564.514	1.127595
564.855	1.121322
565.195	1.123542
565.536	1.117194
565.877	1.104566
566.218	1.105658
566.558	1.101594
566.899	1.098925
567.239	1.082955
567.580	1.079829
567.920	1.082029
568.261	1.067587
568.601	1.063933
568.941	1.066862
569.282	1.059368
569.622	1.051223
569.962	1.041858
570.302	1.040971
570.643	1.030554
570.983	1.028077
571.323	1.019497
571.663	1.015961
572.003	1.003532
572.343	0.990853
572.683	0.978642
573.022	0.959668
573.362	0.938456
573.702	0.907583
574.042	0.890168
574.381	0.876117
574.721	0.871864
575.061	0.868262
575.400	0.865532
575.740	0.865062
576.079	0.855399
576.419	0.830843
576.758	0.801786
577.097	0.774084
577.437	0.759137
577.776	0.753173
578.115	0.749306
578.454	0.748320
578.794	0.762981
579.133	0.772157
579.472	0.777053
579.811	0.766169
580.150	0.732138
580.489	0.694610
580.828	0.662724
581.167	0.640606
581.505	0.625362
581.844	0.625644
582.183	0.640150
582.522	0.675588
582.860	0.719568
583.199	0.756616
583.538	0.771648
583.876	0.772278
584.215	0.755384
584.553	0.735409
584.891	0.719381
585.230	0.715536
585.568	0.718231
585.906	0.724116
586.245	0.731876
586.583	0.739324
586.921	0.744434
587.259	0.745032
587.597	0.746243
587.935	0.753342
588.273	0.771099
588.611	0.791201
588.949	0.807958
589.287	0.811911
589.625	0.808944
589.963	0.809590
590.300	0.801950
590.638	0.802993
590.976	0.800444
591.313	0.795286
591.651	0.790924
591.989	0.785055
592.326	0.778709
592.664	0.776933
593.001	0.770369
593.338	0.762583
593.676	0.760511
594.013	0.765554
594.350	0.769520
594.687	0.764114
595.025	0.760475
595.362	0.757414
595.699	0.757548
596.036	0.759496
596.373	0.757494
596.710	0.756861
597.047	0.751345
597.384	0.746948
597.720	0.744812
598.057	0.741234
598.394	0.740370
598.731	0.733997
599.067	0.731411
599.404	0.728021
599.741	0.730026
600.077	0.730454
600.414	0.725481
600.750	0.729282
601.087	0.723276
601.423	0.723047
601.759	0.720844
602.096	0.721168
602.432	0.716898
602.768	0.713282
603.104	0.707841
603.440	0.709456
603.776	0.710666
604.112	0.707281
604.448	0.705324
604.784	0.704856
605.120	0.702365
605.456	0.700410
605.792	0.704233
606.128	0.694108
606.463	0.695925
606.799	0.690682
607.135	0.689445
607.470	0.688146
607.806	0.689779
608.142	0.684636
608.477	0.683834
608.812	0.682790
609.148	0.680573
609.483	0.680587
609.819	0.679394
610.154	0.678058
610.489	0.672958
610.824	0.668502
611.159	0.673782
611.494	0.667706
611.830	0.669417
612.165	0.663519
612.500	0.662676
612.834	0.664997
613.169	0.663301
613.504	0.660974
613.839	0.658245
614.174	0.651646
614.509	0.659557
614.843	0.658117
615.178	0.651440
615.512	0.652479
615.847	0.647441
616.182	0.655589
616.516	0.648068
616.850	0.648989
617.185	0.643374
617.519	0.646222
617.853	0.644266
618.188	0.638660
618.522	0.635351
618.856	0.632868
619.190	0.631345
619.524	0.638364
619.858	0.631866
620.192	0.627658
620.526	0.634191
620.860	0.630250
621.194	0.628211
621.528	0.618974
621.862	0.623733
622.195	0.618509
622.529	0.623328
622.863	0.617275
623.196	0.620125
623.530	0.618426
623.864	0.618480
624.197	0.616706
624.530	0.614969
624.864	0.616297
625.197	0.621198
625.531	0.606408
625.864	0.603094
626.197	0.607769
626.530	0.612636
626.863	0.604858
627.196	0.598885
627.529	0.604821
627.862	0.607001
628.195	0.607281
628.528	0.600373
628.861	0.599077
629.194	0.594408
629.527	0.605837
629.860	0.599543
630.192	0.593418
630.525	0.587703
630.858	0.585996
631.190	0.590744
631.523	0.586149
631.855	0.586718
632.188	0.582098
632.520	0.590367
632.852	0.582368
633.185	0.593093
633.517	0.588815
633.849	0.585794
634.182	0.586985
634.514	0.582998
634.846	0.585034
635.178	0.585107
635.510	0.575248
635.842	0.573764
636.174	0.568168
636.506	0.571667
636.837	0.573801
637.169	0.574234
637.501	0.572832
637.833	0.571042
638.164	0.570147
638.496	0.564004
638.828	0.565812
639.159	0.576652
639.491	0.567434
639.822	0.573560
640.154	0.562848
640.485	0.570473
640.816	0.555591
641.147	0.553882
641.479	0.553168
641.810	0.553033
642.141	0.559041
642.472	0.554519
642.803	0.555926
643.134	0.546770
643.465	0.546048
643.796	0.546772
644.127	0.554037
644.458	0.555176
644.789	0.555112
645.119	0.550448
645.450	0.557316
645.781	0.558151
646.111	0.545320
646.442	0.549459
646.773	0.534996
647.103	0.545074
647.433	0.524114
647.764	0.535948
648.094	0.531361
648.425	0.547773
648.755	0.539044
649.085	0.541625
649.415	0.544667
649.745	0.528531
650.075	0.526314
650.405	0.541275
650.735	0.539889
651.065	0.534837
651.395	0.530684
651.725	0.529603
652.055	0.523991
652.385	0.536465
652.715	0.535193
653.044	0.527424
653.374	0.528431
653.704	0.537000
654.033	0.504197
654.363	0.486484
654.692	0.245728
655.022	0.150658
655.351	0.150945
655.680	0.150827
656.010	0.151417
656.339	0.151535
656.668	0.151501
656.997	0.151080
657.326	0.151417
657.655	0.279085
657.984	0.444294
658.313	0.497030
658.642	0.486331
658.971	0.478942
659.300	0.476664
659.629	0.484042
659.958	0.481159
660.286	0.478569
660.615	0.489864
660.944	0.505740
661.272	0.522421
661.601	0.503139
661.929	0.508184
662.258	0.510056
662.586	0.504224
662.915	0.505579
663.243	0.501390
663.571	0.517908
663.899	0.510114
664.228	0.497856
664.556	0.494556
664.884	0.501945
665.212	0.506229
665.540	0.498067
665.868	0.491814
666.196	0.493193
666.524	0.497176
666.852	0.506139
667.179	0.499682
667.507	0.503251
667.835	0.494705
668.162	0.488716
668.490	0.495211
668.818	0.473425
669.145	0.486725
669.473	0.478075
669.800	0.501326
670.127	0.487232
670.455	0.486702
670.782	0.490934
671.109	0.474962
671.436	0.485348
671.764	0.490129
672.091	0.472639
672.418	0.486903
672.745	0.466674
673.072	0.490161
673.399	0.471410
673.726	0.476443
674.053	0.466102
674.379	0.469944
674.706	0.461220
675.033	0.466849
675.359	0.458226
675.686	0.461200
676.013	0.476081
676.339	0.476361
676.666	0.485874
676.992	0.462593
677.318	0.449911
677.645	0.466452
677.971	0.460798
678.297	0.466091
678.624	0.460433
678.950	0.460184
679.276	0.451542
679.602	0.456744
679.928	0.465069
680.254	0.468419
680.580	0.454987
680.906	0.464604
681.232	0.468218
681.558	0.465345
681.883	0.457465
682.209	0.451012
682.535	0.456269
682.860	0.456114
683.186	0.449360
683.511	0.440357
683.837	0.462376
684.162	0.463662
684.488	0.453940
684.813	0.448354
685.138	0.450970
685.464	0.453115
685.789	0.454359
686.114	0.446208
686.439	0.452516
686.764	0.445321
687.089	0.450282
687.414	0.441072
687.739	0.434216
688.064	0.440358
688.389	0.448072
688.714	0.445214
689.039	0.434652
689.363	0.450164
689.688	0.443218
690.013	0.435731
690.337	0.430743
690.662	0.432978
690.986	0.435464
691.311	0.445014
691.635	0.447247
691.959	0.434434
692.284	0.436581
692.608	0.431059
692.932	0.449193
693.256	0.428695
693.580	0.440514
693.904	0.429144
694.228	0.437705
694.552	0.441212
694.876	0.416532
695.200	0.415073
695.524	0.437852
695.848	0.445138
696.172	0.439229
696.495	0.438968
696.819	0.428436
697.143	0.419892
697.466	0.421138
697.790	0.425824
698.113	0.420478
698.437	0.425282
698.760	0.430760
699.083	0.418504
699.407	0.419899
699.730	0.425550
700.053	0.420545
700.376	0.421201
700.699	0.413014
701.022	0.413467
701.345	0.407873
701.668	0.418389
701.991	0.422506
702.314	0.429928
702.637	0.402398
702.960	0.419623
703.283	0.413930
703.605	0.419894
703.928	0.422645
704.251	0.424147
704.573	0.409913
704.896	0.413276
705.218	0.402898
705.540	0.427732
705.863	0.393960
706.185	0.403229
706.507	0.414260
706.830	0.410844
707.152	0.407329
707.474	0.410093
707.796	0.415245
708.118	0.396322
708.440	0.403882
708.762	0.407496
709.084	0.406563
709.406	0.405855
709.728	0.413856
710.049	0.410925
710.371	0.405831
710.693	0.422720
711.014	0.404759
711.336	0.409480
711.658	0.411318
711.979	0.403993
712.301	0.397226
712.622	0.388542
712.943	0.396173
713.265	0.410125
713.586	0.409985
713.907	0.394835
714.228	0.394129
714.549	0.400583
714.870	0.397392
715.191	0.399056
715.512	0.404414
715.833	0.398251
716.154	0.400297
716.475	0.401246
716.796	0.403392
717.117	0.372807
717.437	0.389692
717.758	0.387662
718.078	0.401080
718.399	0.386035
718.719	0.386829
719.040	0.394535
719.360	0.408082
719.681	0.382607
720.001	0.392102
720.321	0.398022
720.642	0.387080
720.962	0.389093
721.282	0.380449
721.602	0.395911
721.922	0.377306
722.242	0.380221
722.562	0.385844
722.882	0.379619
723.202	0.368456
723.521	0.368632
723.841	0.392268
724.161	0.384704
724.481	0.376964
724.800	0.384619
725.120	0.388416
725.439	0.387995
725.759	0.377242
726.078	0.376873
726.398	0.374458
726.717	0.391322
727.036	0.387445
727.355	0.384482
727.675	0.364431
727.994	0.371472
728.313	0.376017
728.632	0.380539
728.951	0.388089
729.270	0.380888
729.589	0.372383
729.908	0.382016
730.226	0.378079
730.545	0.368216
730.864	0.367760
731.182	0.374230
731.501	0.363910
731.820	0.375843
732.138	0.375309
732.457	0.367899
732.775	0.370503
733.093	0.367499
733.412	0.374820
733.730	0.364419
734.048	0.368022
734.367	0.362510
734.685	0.363284
735.003	0.360153
735.321	0.361362
735.639	0.358792
735.957	0.359566
736.275	0.363138
736.593	0.354782
736.910	0.354057
737.228	0.366108
737.546	0.356600
737.863	0.357266
738.181	0.358306
738.499	0.373430
738.816	0.356535
739.134	0.362906
739.451	0.353278
739.768	0.354196
740.086	0.368787
740.403	0.351141
740.720	0.354307
741.038	0.366432
741.355	0.356681
741.672	0.348232
741.989	0.354241
742.306	0.358610
742.623	0.341084
742.940	0.363789
743.257	0.348691
743.573	0.352657
743.890	0.362396
744.207	0.369119
744.523	0.361284
744.840	0.363969
745.157	0.348961
745.473	0.351388
745.790	0.348659
746.106	0.358410
746.422	0.351039
746.739	0.357177
747.055	0.348421
747.371	0.349675
747.687	0.355288
748.004	0.347740
748.320	0.357848
748.636	0.351884
748.952	0.366484
749.268	0.358378
749.584	0.349143
749.899	0.335599
750.215	0.351898
750.531	0.357151
750.847	0.348997
751.162	0.348728
751.478	0.345119
751.793	0.345356
752.109	0.352920
752.424	0.350535
752.740	0.335123
753.055	0.331965
753.370	0.337966
753.686	0.330948
754.001	0.336534
754.316	0.339139
754.631	0.336489
754.946	0.331162
755.261	0.334725
755.576	0.341800
755.891	0.338831
756.206	0.342797
756.521	0.336228
756.836	0.339708
757.150	0.333410
757.465	0.335789
757.780	0.333298
758.094	0.332753
758.409	0.336410
758.723	0.332678
759.038	0.335345
759.352	0.335869
759.667	0.333730
759.981	0.333007
760.295	0.331223
760.609	0.327836
760.923	0.341705
761.238	0.333699
761.552	0.336226
761.866	0.337673
762.180	0.332684
762.493	0.325933
762.807	0.332676
763.121	0.321943
763.435	0.332995
763.749	0.336946
764.062	0.326457
764.376	0.326461
764.689	0.341917
765.003	0.330508
765.316	0.334136
765.630	0.331189
765.943	0.322237
766.257	0.333360
766.570	0.320739
766.883	0.324546
767.196	0.320415
767.509	0.325597
767.822	0.314568
768.135	0.332530
768.448	0.322611
768.761	0.326926
769.074	0.316060
769.387	0.325893
769.700	0.321501
770.013	0.319204
770.325	0.320910
770.638	0.324154
770.950	0.324927
771.263	0.325083
771.575	0.334527
771.888	0.318881
772.200	0.321802
772.513	0.325662
772.825	0.321700
773.137	0.328455
773.449	0.327244
773.761	0.311409
774.074	0.325383
774.386	0.315972
774.698	0.300732
775.010	0.313833
775.321	0.318495
775.633	0.329688
775.945	0.319745
776.257	0.315668
776.568	0.284559
776.880	0.314444
777.192	0.312161
777.503	0.300913
777.815	0.317959
778.126	0.316958
778.438	0.322504
778.749	0.319279
779.060	0.315830
779.372	0.311572
779.683	0.301731
779.994	0.327307
780.305	0.309282
780.616	0.305997
780.927	0.311250
781.238	0.303357
781.549	0.316657
781.860	0.317670
782.171	0.317549
782.481	0.308911
782.792	0.293262
783.103	0.316089
783.413	0.326828
783.724	0.313191
784.034	0.311457
784.345	0.311345
784.655	0.301451
784.966	0.304885
785.276	0.316534
785.586	0.321939
785.896	0.308328
786.207	0.275978
786.517	0.317478
786.827	0.299262
787.137	0.296931
787.447	0.308634
787.757	0.311673
788.066	0.297623
788.376	0.300804
788.686	0.300251
788.996	0.281122
789.305	0.324268
789.615	0.294286
789.925	0.312573
790.234	0.308162
790.544	0.297216
790.853	0.298249
791.162	0.286804
791.472	0.297206
791.781	0.314661
792.090	0.328862
792.399	0.298940
792.708	0.301379
793.017	0.296255
793.326	0.300452
793.635	0.296434
793.944	0.296225
794.253	0.310905
794.562	0.301732
794.871	0.301427
795.179	0.296422
795.488	0.305726
795.797	0.302921
796.105	0.303563
796.414	0.295480
796.722	0.294970
797.031	0.313892
797.339	0.291074
797.647	0.317101
797.956	0.309543
798.264	0.307386
798.572	0.283871
798.880	0.297755
799.188	0.285449
799.496	0.270450
799.804	0.285103
800.112	0.301086
800.420	0.299110
800.728	0.304875
801.035	0.301795
801.343	0.270361
801.651	0.296716
801.958	0.270071
802.266	0.292243
802.573	0.308973
802.881	0.305842
803.188	0.276556
803.496	0.297276
803.803	0.281308
804.110	0.271454
804.417	0.287097
804.724	0.294751
805.032	0.274777
805.339	0.290616
805.646	0.305234
805.953	0.301828
806.259	0.312975
806.566	0.281218
806.873	0.293270
807.180	0.291458
807.486	0.307047
807.793	0.295583
808.100	0.265708
808.406	0.289822
808.713	0.286970
809.019	0.268095
809.326	0.269664
809.632	0.277851
809.938	0.289491
810.244	0.315552
810.551	0.275417
810.857	0.252925
811.163	0.308040
811.469	0.262711
811.775	0.297238
812.081	0.288229
812.387	0.263301
812.692	0.270629
812.998	0.295285
813.304	0.280107
813.610	0.294409
813.915	0.305006
814.221	0.288474
814.526	0.300003
814.832	0.305816
815.137	0.272999
815.443	0.234526
815.748	0.255308
816.053	0.299354
816.358	0.319702
816.664	0.294926
816.969	0.287287
817.274	0.270469
817.579	0.316944
817.884	0.323931
818.189	0.289456
818.493	0.255319
818.798	0.240165
819.103	0.284775
819.408	0.284327
819.712	0.296259
820.017	0.235385
820.321	0.264410
820.626	0.298333
820.930	0.249354
821.235	0.298992
821.539	0.270084
821.843	0.293011
822.148	0.276803
822.452	0.301765
822.756	0.255568
823.060	0.271862
823.364	0.267441
823.668	0.259813
823.972	0.238348
824.276	0.250393
824.580	0.262269
824.883	0.302673
825.187	0.264827
825.491	0.252331
825.795	0.306675
826.098	0.241740
826.402	0.261481
826.705	0.261577
827.008	0.273318
827.312	0.293931
827.615	0.304631
827.918	0.269526
828.222	0.272437
828.525	0.261332
828.828	0.273498
829.131	0.258232
829.434	0.285472
829.737	0.306389
830.040	0.272423
830.343	0.306662
830.645	0.316216
830.948	0.255389
831.251	0.180955
831.553	0.153472
831.856	0.241241
832.159	0.303668
832.461	0.279053
832.764	0.274910
833.066	0.264660
833.368	0.263877
833.671	0.285128
833.973	0.271228
834.275	0.228067
834.577	0.225474
834.879	0.256534
835.181	0.267338
835.483	0.232448
835.785	0.305425
836.087	0.215182
836.389	0.338407
836.690	0.312101
836.992	0.197294
837.294	0.286284
837.595	0.289594
837.897	0.309786
838.198	0.222397
838.500	0.320317
838.801	0.285102
839.103	0.254453
839.404	0.325256
839.705	0.274086
840.006	0.317007
840.307	0.186458
840.608	0.263302
840.910	0.265866
841.210	0.278788
841.511	0.186584
841.812	0.226780
842.113	0.221140
842.414	0.311309
842.715	0.342361
843.015	0.180316
843.316	0.336359
843.616	0.291502
843.917	0.341045
844.217	0.263082
844.518	0.284909
844.818	0.269501
845.118	0.215744
845.419	0.277582
845.719	0.378149
846.019	0.293538
846.319	0.202833
846.619	0.183904
846.919	0.263541
847.219	0.286570
847.519	0.218208
847.819	0.350235
848.118	0.235448
848.418	0.282604
848.718	0.138809
849.017	0.237585
849.317	0.163945
849.616	0.191321
849.916	0.118067
850.215	0.264531
850.515	0.355585
850.814	0.288072
851.113	0.242051
851.412	0.246578
851.712	0.310164
852.011	0.253220
852.310	0.284192
852.609	0.250661
852.908	0.256033
853.206	0.252482
853.505	0.248189
853.804	0.278151
854.103	0.324424
854.401	0.235388
854.700	0.229254
854.999	0.277377
855.297	0.263207
855.595	0.250509
855.894	0.266380
856.192	0.300999
856.491	0.244299
856.789	0.274247
857.087	0.249949
857.385	0.254370
857.683	0.261933
857.981	0.236560
858.279	0.290641
858.577	0.232472
858.875	0.138775
859.173	0.166393
859.471	0.298384
859.768	0.246917
860.066	0.220517
860.363	0.262453
860.661	0.258808
860.959	0.286735
861.256	0.252111
861.553	0.261329
861.851	0.287009
862.148	0.215587
862.445	0.172190
862.742	0.206849
863.039	0.199430
863.337	0.283302
863.634	0.332066
863.931	0.331025
864.227	0.323351
864.524	0.354564
864.821	0.298413
865.118	0.131614
865.415	0.236706
865.711	0.172691
866.008	-0.027262
866.304	0.290954
866.601	0.336780
866.897	0.301349
867.194	0.147196
867.490	0.319266
867.786	0.240327
868.082	0.225150
868.379	0.283272
868.675	0.196005
868.971	0.287109
869.267	0.299733
869.563	0.342833
869.859	0.212299
870.154	0.240734
870.450	0.247118
870.746	0.261725
871.042	0.088761
871.337	0.261532
871.633	0.119723
871.928	0.120702
872.224	0.253667
872.519	0.199899
872.815	0.187819
873.110	0.008939
873.405	0.201796
873.700	0.224169
873.995	0.215664
874.291	0.350562
874.586	0.203143
874.881	0.314595
875.175	0.348135
875.470	0.138307
875.765	0.206852
876.060	0.165201
876.355	0.104389
876.649	0.390261
876.944	0.282185
877.238	0.159323
877.533	0.131877
877.827	0.190991
878.122	0.283054
878.416	0.365920
878.710	0.333186
879.005	0.274504
879.299	0.318369
879.593	0.242914
879.887	0.228223
880.181	0.210437
880.475	0.256734
880.769	0.209972
881.063	0.360149
881.356	0.179002
881.650	0.252728
881.944	0.260237
882.238	0.309613
882.531	0.330952
882.825	0.241295
883.118	0.284889
883.412	0.275230
883.705	0.258630
883.998	0.181601
884.291	0.204484
884.585	0.196540
884.878	0.321899
>>>>>>>>>> END of Data <<<<<<<<<<
