Date	2022年12月21日水曜日 09時26分15秒
Spectrometers	USB2+H05879
ダーク	使用
リファレンス	使用
積分時間[msec]	2
平均回数	10000
ｽﾑｰｼﾞﾝｸﾞ	0
Electrical Dark	USE
ピクセル数	2048
計測モード	吸光度
保存開始波長[nm]	190.664
保存終了波長[nm]	884.878
保存ﾋﾟｯﾁ波長[nm]	全波長

>>>>>>>>>> Data Start <<<<<<<<<<<<
190.664	0.000000
191.040	0.000000
191.415	0.000000
191.791	0.000000
192.166	0.000000
192.542	0.000000
192.917	0.000000
193.293	0.372161
193.668	0.000000
194.044	0.000000
194.419	0.000000
194.794	0.000000
195.170	0.000000
195.545	0.000000
195.920	1.076512
196.296	0.000000
196.671	0.269030
197.046	0.000000
197.421	0.000000
197.796	0.000000
198.171	0.000000
198.546	0.000000
198.922	0.579306
199.297	0.000000
199.672	0.000000
200.047	0.000000
200.422	0.000000
200.796	0.000000
201.171	0.000000
201.546	0.663581
201.921	0.154493
202.296	0.658277
202.671	0.000000
203.045	0.319947
203.420	0.000000
203.795	0.000000
204.170	0.000000
204.544	0.000000
204.919	0.651569
205.294	0.764827
205.668	0.000000
206.043	1.252686
206.417	0.000000
206.792	0.000000
207.166	0.000000
207.541	0.000000
207.915	0.000000
208.289	1.521691
208.664	0.000000
209.038	0.000000
209.412	0.000000
209.787	0.000000
210.161	0.000000
210.535	0.000000
210.909	0.000000
211.284	0.000000
211.658	0.000000
212.032	0.000000
212.406	0.888863
212.780	0.000000
213.154	0.000000
213.528	0.000000
213.902	0.000000
214.276	0.000000
214.650	2.666971
215.024	0.000000
215.398	0.000000
215.772	0.000000
216.145	0.688017
216.519	0.000000
216.893	0.000000
217.267	0.000000
217.640	0.000000
218.014	0.000000
218.388	0.000000
218.761	1.478698
219.135	0.000000
219.508	0.000000
219.882	0.000000
220.256	0.000000
220.629	0.000000
221.003	0.000000
221.376	0.000000
221.749	0.800026
222.123	0.000000
222.496	0.000000
222.869	0.930968
223.243	0.000000
223.616	0.000000
223.989	0.000000
224.362	0.000000
224.736	0.000000
225.109	0.000000
225.482	0.000000
225.855	0.000000
226.228	0.000000
226.601	0.000000
226.974	0.000000
227.347	0.600923
227.720	0.000000
228.093	0.000000
228.466	0.929536
228.839	0.000000
229.212	0.000000
229.585	0.000000
229.957	0.000000
230.330	2.347810
230.703	0.000000
231.076	0.000000
231.448	0.000000
231.821	0.000000
232.194	1.306516
232.566	0.514190
232.939	1.507448
233.311	0.000000
233.684	0.000000
234.056	0.000000
234.429	0.000000
234.801	0.000000
235.174	0.000000
235.546	0.541846
235.918	0.000000
236.291	0.000000
236.663	0.000000
237.035	0.000000
237.408	1.238998
237.780	0.000000
238.152	0.000000
238.524	0.590918
238.896	0.000000
239.268	0.000000
239.641	0.000000
240.013	0.000000
240.385	0.000000
240.757	0.000000
241.129	0.000000
241.500	0.683781
241.872	0.000000
242.244	0.000000
242.616	0.000000
242.988	0.000000
243.360	0.000000
243.731	0.000000
244.103	0.000000
244.475	0.000000
244.847	0.000000
245.218	0.000000
245.590	0.000000
245.961	0.590667
246.333	0.000000
246.705	2.903570
247.076	0.000000
247.448	0.000000
247.819	0.000000
248.190	0.000000
248.562	0.000000
248.933	0.000000
249.305	0.000000
249.676	0.000000
250.047	0.000000
250.418	0.000000
250.790	0.000000
251.161	0.000000
251.532	0.664536
251.903	0.000000
252.274	0.517094
252.645	0.811412
253.016	0.000000
253.387	0.000000
253.758	1.243165
254.129	0.000000
254.500	0.000000
254.871	0.000000
255.242	0.000000
255.613	0.000000
255.984	0.000000
256.355	0.000000
256.725	0.000000
257.096	0.000000
257.467	0.685283
257.838	0.000000
258.208	0.000000
258.579	0.000000
258.949	0.000000
259.320	0.000000
259.690	0.000000
260.061	0.000000
260.431	0.000000
260.802	0.803255
261.172	0.619242
261.543	0.000000
261.913	0.000000
262.283	0.945582
262.654	0.000000
263.024	0.615411
263.394	0.000000
263.764	0.000000
264.135	1.001935
264.505	0.000000
264.875	1.012538
265.245	0.000000
265.615	0.901448
265.985	1.040874
266.355	0.000000
266.725	0.000000
267.095	0.000000
267.465	0.000000
267.835	0.945438
268.205	0.000000
268.575	0.627571
268.944	0.000000
269.314	0.000000
269.684	0.000000
270.054	0.000000
270.423	0.000000
270.793	0.000000
271.163	1.075108
271.532	0.000000
271.902	0.000000
272.271	0.000000
272.641	0.000000
273.010	0.000000
273.380	0.000000
273.749	0.000000
274.119	0.000000
274.488	0.862861
274.857	0.000000
275.227	1.078142
275.596	0.000000
275.965	0.000000
276.335	0.625596
276.704	0.442909
277.073	0.000000
277.442	0.000000
277.811	0.000000
278.180	1.307664
278.549	1.139621
278.918	0.000000
279.287	0.000000
279.656	0.000000
280.025	0.000000
280.394	0.000000
280.763	0.000000
281.132	1.053579
281.501	0.000000
281.869	0.818663
282.238	0.000000
282.607	0.000000
282.976	0.716869
283.344	1.048346
283.713	0.000000
284.081	0.000000
284.450	0.000000
284.819	0.000000
285.187	1.197780
285.556	0.000000
285.924	1.477709
286.292	0.000000
286.661	0.000000
287.029	0.839455
287.398	0.000000
287.766	0.000000
288.134	0.000000
288.502	0.000000
288.871	0.794245
289.239	2.161000
289.607	0.000000
289.975	0.000000
290.343	0.000000
290.711	0.000000
291.079	0.000000
291.447	0.000000
291.815	1.090069
292.183	0.000000
292.551	0.000000
292.919	0.000000
293.287	0.000000
293.655	0.000000
294.022	0.000000
294.390	0.000000
294.758	0.000000
295.126	0.000000
295.493	0.000000
295.861	0.000000
296.229	0.000000
296.596	0.000000
296.964	0.783449
297.331	1.081571
297.699	0.000000
298.066	0.000000
298.434	0.792641
298.801	0.000000
299.168	0.000000
299.536	1.245328
299.903	0.000000
300.270	0.871070
300.638	0.832109
301.005	0.000000
301.372	0.000000
301.739	0.000000
302.106	1.901467
302.473	1.053980
302.840	0.000000
303.207	0.000000
303.574	1.107982
303.941	0.000000
304.308	0.000000
304.675	0.000000
305.042	0.000000
305.409	0.000000
305.776	0.000000
306.143	0.000000
306.509	1.360699
306.876	1.967671
307.243	0.000000
307.610	0.000000
307.976	0.000000
308.343	0.000000
308.709	0.000000
309.076	1.155417
309.442	1.338842
309.809	3.138780
310.175	1.427510
310.542	2.571208
310.908	1.425350
311.275	1.390763
311.641	1.316780
312.007	1.578534
312.373	0.000000
312.740	1.813791
313.106	1.302487
313.472	1.584149
313.838	1.743857
314.204	1.287483
314.570	1.441787
314.936	1.589906
315.302	1.847794
315.668	1.416976
316.034	1.659695
316.400	2.146096
316.766	1.640557
317.132	1.495995
317.498	1.535919
317.864	1.591540
318.230	1.606946
318.595	1.504427
318.961	1.683905
319.327	1.643473
319.692	1.639611
320.058	1.662171
320.424	1.725129
320.789	1.611580
321.155	1.616971
321.520	1.515559
321.886	1.693878
322.251	1.628792
322.616	1.775060
322.982	1.513622
323.347	1.737139
323.712	1.650493
324.078	1.685285
324.443	1.771214
324.808	1.593544
325.173	1.672409
325.539	1.686250
325.904	1.677669
326.269	1.661231
326.634	1.745432
326.999	1.712329
327.364	1.655131
327.729	1.693576
328.094	1.659272
328.459	1.683363
328.823	1.755955
329.188	1.661749
329.553	1.709186
329.918	1.677910
330.283	1.651248
330.647	1.631319
331.012	1.672720
331.377	1.712496
331.741	1.712207
332.106	1.717319
332.470	1.717495
332.835	1.735183
333.199	1.698771
333.564	1.671080
333.928	1.706532
334.293	1.728577
334.657	1.699037
335.021	1.705511
335.386	1.672801
335.750	1.727894
336.114	1.719149
336.478	1.692064
336.843	1.699342
337.207	1.715739
337.571	1.705023
337.935	1.668857
338.299	1.672699
338.663	1.733230
339.027	1.686165
339.391	1.685143
339.755	1.669859
340.119	1.671072
340.483	1.679298
340.846	1.645191
341.210	1.661644
341.574	1.690195
341.938	1.684016
342.301	1.662936
342.665	1.663824
343.029	1.645005
343.392	1.697922
343.756	1.637827
344.119	1.655121
344.483	1.667131
344.846	1.646935
345.210	1.654800
345.573	1.653796
345.937	1.651657
346.300	1.664678
346.663	1.651685
347.027	1.644673
347.390	1.687416
347.753	1.692721
348.116	1.655466
348.479	1.662718
348.843	1.661975
349.206	1.625330
349.569	1.703174
349.932	1.676814
350.295	1.674237
350.658	1.670766
351.021	1.676572
351.383	1.661679
351.746	1.652424
352.109	1.638028
352.472	1.660760
352.835	1.695766
353.197	1.626725
353.560	1.697134
353.923	1.687576
354.285	1.673101
354.648	1.698446
355.011	1.689508
355.373	1.649794
355.736	1.644392
356.098	1.653373
356.461	1.669494
356.823	1.633527
357.185	1.664875
357.548	1.668442
357.910	1.656334
358.272	1.676509
358.635	1.672661
358.997	1.664031
359.359	1.676104
359.721	1.677270
360.083	1.677184
360.445	1.674842
360.807	1.698811
361.169	1.683976
361.531	1.651644
361.893	1.669579
362.255	1.701431
362.617	1.674312
362.979	1.656908
363.341	1.652808
363.703	1.667280
364.064	1.667384
364.426	1.669086
364.788	1.668662
365.149	1.671500
365.511	1.673015
365.873	1.692252
366.234	1.684685
366.596	1.661990
366.957	1.682178
367.319	1.678132
367.680	1.694351
368.042	1.684807
368.403	1.677981
368.764	1.677718
369.126	1.698798
369.487	1.659388
369.848	1.676968
370.209	1.660030
370.570	1.680535
370.931	1.677352
371.293	1.678589
371.654	1.676405
372.015	1.685183
372.376	1.668390
372.737	1.662871
373.098	1.664629
373.458	1.695629
373.819	1.683130
374.180	1.645974
374.541	1.689270
374.902	1.661860
375.263	1.669722
375.623	1.684859
375.984	1.676765
376.345	1.661536
376.705	1.690818
377.066	1.670023
377.426	1.702302
377.787	1.689956
378.147	1.687507
378.508	1.673095
378.868	1.672154
379.228	1.674446
379.589	1.668560
379.949	1.683383
380.309	1.665182
380.670	1.658392
381.030	1.658843
381.390	1.677228
381.750	1.670855
382.110	1.676642
382.470	1.678946
382.830	1.684862
383.190	1.670991
383.550	1.681296
383.910	1.693748
384.270	1.680433
384.630	1.695834
384.990	1.705812
385.350	1.700253
385.709	1.715625
386.069	1.699974
386.429	1.679960
386.788	1.680626
387.148	1.676286
387.508	1.694000
387.867	1.676089
388.227	1.685354
388.586	1.671689
388.946	1.671246
389.305	1.684631
389.665	1.689666
390.024	1.690053
390.383	1.674833
390.743	1.704494
391.102	1.703161
391.461	1.651989
391.820	1.688989
392.179	1.695693
392.539	1.698447
392.898	1.682711
393.257	1.691075
393.616	1.693814
393.975	1.708307
394.334	1.711902
394.693	1.687508
395.051	1.707675
395.410	1.678555
395.769	1.680717
396.128	1.692488
396.487	1.694160
396.845	1.694628
397.204	1.677286
397.563	1.698478
397.921	1.712400
398.280	1.684181
398.638	1.684335
398.997	1.702119
399.355	1.699915
399.714	1.717421
400.072	1.698368
400.431	1.660369
400.789	1.688128
401.147	1.681532
401.506	1.674319
401.864	1.684626
402.222	1.675390
402.580	1.711462
402.938	1.717693
403.297	1.700871
403.655	1.668093
404.013	1.684014
404.371	1.698081
404.729	1.692226
405.087	1.674916
405.444	1.688086
405.802	1.709293
406.160	1.672121
406.518	1.678713
406.876	1.677095
407.233	1.677387
407.591	1.686377
407.949	1.687159
408.306	1.702468
408.664	1.679694
409.022	1.665643
409.379	1.682578
409.737	1.679519
410.094	1.652222
410.451	1.687668
410.809	1.664917
411.166	1.665808
411.523	1.654965
411.881	1.683027
412.238	1.673965
412.595	1.672829
412.952	1.672079
413.310	1.679730
413.667	1.659546
414.024	1.669629
414.381	1.686125
414.738	1.683031
415.095	1.654078
415.452	1.672889
415.809	1.675312
416.165	1.660711
416.522	1.667003
416.879	1.656167
417.236	1.646785
417.593	1.653676
417.949	1.664397
418.306	1.664003
418.663	1.656736
419.019	1.617629
419.376	1.650075
419.732	1.646754
420.089	1.642164
420.445	1.654702
420.802	1.629974
421.158	1.639891
421.514	1.633823
421.871	1.633625
422.227	1.625036
422.583	1.639133
422.939	1.655527
423.295	1.604424
423.652	1.632826
424.008	1.626606
424.364	1.625246
424.720	1.628827
425.076	1.652658
425.432	1.634112
425.788	1.625552
426.143	1.639607
426.499	1.611709
426.855	1.612463
427.211	1.625114
427.567	1.628427
427.922	1.598287
428.278	1.597378
428.634	1.598641
428.989	1.605518
429.345	1.611481
429.700	1.601262
430.056	1.617620
430.411	1.601101
430.767	1.581001
431.122	1.601605
431.478	1.588015
431.833	1.598154
432.188	1.588864
432.543	1.608492
432.899	1.604614
433.254	1.593790
433.609	1.590497
433.964	1.598308
434.319	1.597824
434.674	1.573784
435.029	1.573527
435.384	1.573861
435.739	1.596698
436.094	1.549837
436.449	1.605799
436.804	1.565839
437.158	1.563649
437.513	1.554015
437.868	1.554309
438.223	1.555259
438.577	1.574913
438.932	1.549443
439.287	1.544869
439.641	1.552427
439.996	1.557711
440.350	1.544811
440.704	1.534224
441.059	1.547895
441.413	1.541009
441.768	1.539881
442.122	1.533986
442.476	1.526033
442.830	1.516586
443.185	1.526714
443.539	1.516461
443.893	1.519889
444.247	1.516443
444.601	1.520238
444.955	1.513209
445.309	1.500335
445.663	1.497956
446.017	1.506494
446.371	1.503749
446.724	1.499536
447.078	1.497862
447.432	1.491691
447.786	1.489203
448.139	1.496031
448.493	1.485081
448.847	1.479608
449.200	1.479733
449.554	1.475412
449.907	1.472296
450.261	1.460711
450.614	1.465505
450.968	1.461573
451.321	1.454548
451.674	1.452708
452.027	1.443134
452.381	1.448753
452.734	1.443443
453.087	1.426384
453.440	1.448350
453.793	1.436041
454.146	1.431984
454.499	1.432380
454.852	1.435329
455.205	1.407823
455.558	1.416711
455.911	1.417880
456.264	1.423446
456.617	1.407380
456.970	1.411157
457.322	1.411191
457.675	1.392231
458.028	1.406868
458.380	1.402616
458.733	1.380535
459.086	1.384019
459.438	1.386192
459.791	1.386178
460.143	1.388638
460.496	1.388712
460.848	1.367169
461.200	1.386825
461.553	1.365690
461.905	1.355612
462.257	1.368489
462.609	1.357690
462.961	1.358471
463.314	1.365174
463.666	1.356068
464.018	1.343781
464.370	1.337336
464.722	1.345190
465.074	1.331468
465.426	1.337934
465.777	1.327795
466.129	1.330461
466.481	1.326004
466.833	1.331474
467.184	1.314814
467.536	1.330337
467.888	1.325868
468.239	1.316884
468.591	1.309638
468.943	1.300665
469.294	1.315867
469.646	1.308635
469.997	1.315372
470.348	1.292342
470.700	1.294052
471.051	1.295037
471.402	1.277950
471.754	1.283973
472.105	1.273217
472.456	1.285609
472.807	1.289046
473.158	1.283113
473.509	1.267256
473.860	1.266814
474.211	1.263568
474.562	1.270476
474.913	1.270909
475.264	1.259036
475.615	1.263480
475.966	1.256486
476.316	1.243583
476.667	1.250923
477.018	1.256424
477.368	1.252401
477.719	1.248222
478.070	1.247666
478.420	1.242713
478.771	1.236766
479.121	1.235119
479.472	1.237776
479.822	1.231558
480.172	1.232507
480.523	1.220994
480.873	1.219797
481.223	1.216401
481.573	1.221089
481.924	1.221468
482.274	1.213215
482.624	1.205654
482.974	1.208053
483.324	1.210130
483.674	1.208329
484.024	1.211426
484.374	1.203276
484.724	1.200112
485.073	1.194319
485.423	1.189849
485.773	1.188851
486.123	1.184407
486.472	1.184202
486.822	1.181056
487.172	1.180594
487.521	1.177914
487.871	1.179223
488.220	1.177546
488.570	1.174220
488.919	1.170347
489.268	1.168410
489.618	1.161184
489.967	1.163989
490.316	1.161921
490.666	1.159787
491.015	1.156002
491.364	1.160652
491.713	1.151968
492.062	1.152497
492.411	1.148403
492.760	1.145169
493.109	1.143024
493.458	1.142371
493.807	1.140797
494.156	1.139496
494.505	1.127705
494.853	1.132613
495.202	1.135781
495.551	1.130243
495.900	1.125521
496.248	1.123348
496.597	1.121758
496.945	1.117172
497.294	1.124128
497.642	1.115065
497.991	1.111728
498.339	1.119317
498.688	1.105452
499.036	1.106047
499.384	1.107010
499.732	1.103467
500.081	1.104573
500.429	1.097027
500.777	1.096925
501.125	1.091509
501.473	1.095325
501.821	1.085787
502.169	1.088805
502.517	1.082557
502.865	1.081580
503.213	1.077318
503.561	1.077310
503.908	1.071310
504.256	1.069340
504.604	1.068087
504.952	1.066657
505.299	1.062081
505.647	1.067251
505.994	1.066879
506.342	1.057835
506.689	1.060808
507.037	1.057706
507.384	1.050700
507.732	1.053014
508.079	1.047696
508.426	1.044643
508.774	1.048719
509.121	1.048484
509.468	1.045261
509.815	1.036810
510.162	1.038767
510.509	1.039757
510.856	1.034307
511.203	1.036232
511.550	1.030533
511.897	1.030846
512.244	1.023194
512.591	1.022205
512.938	1.023830
513.284	1.020761
513.631	1.019141
513.978	1.020957
514.324	1.015628
514.671	1.016002
515.018	1.018404
515.364	1.010403
515.711	1.008423
516.057	1.006800
516.403	1.005725
516.750	1.003757
517.096	1.007582
517.443	1.001866
517.789	0.996332
518.135	0.997488
518.481	0.998733
518.827	0.997558
519.173	0.998050
519.519	0.991615
519.865	0.989697
520.211	0.996317
520.557	0.986257
520.903	0.989678
521.249	0.984182
521.595	0.981751
521.941	0.982702
522.287	0.983998
522.632	0.981049
522.978	0.978630
523.324	0.978636
523.669	0.974345
524.015	0.968948
524.360	0.972538
524.706	0.969011
525.051	0.971196
525.397	0.967917
525.742	0.968807
526.087	0.960445
526.433	0.963233
526.778	0.961399
527.123	0.962300
527.468	0.957808
527.813	0.951879
528.158	0.950735
528.504	0.951422
528.849	0.948964
529.193	0.945657
529.538	0.947344
529.883	0.946149
530.228	0.943124
530.573	0.944494
530.918	0.942856
531.263	0.936864
531.607	0.940916
531.952	0.935539
532.296	0.931857
532.641	0.936166
532.986	0.931240
533.330	0.926863
533.675	0.928416
534.019	0.921969
534.363	0.920583
534.708	0.920432
535.052	0.920949
535.396	0.916493
535.741	0.916379
536.085	0.912172
536.429	0.911630
536.773	0.908057
537.117	0.908463
537.461	0.906375
537.805	0.906596
538.149	0.902460
538.493	0.900370
538.837	0.895170
539.181	0.896370
539.524	0.894395
539.868	0.891013
540.212	0.890678
540.556	0.885487
540.899	0.885970
541.243	0.883559
541.586	0.881625
541.930	0.879405
542.273	0.874572
542.617	0.873166
542.960	0.870062
543.304	0.867299
543.647	0.865284
543.990	0.866196
544.333	0.862139
544.677	0.855785
545.020	0.855059
545.363	0.856085
545.706	0.851027
546.049	0.846625
546.392	0.845559
546.735	0.845874
547.078	0.840680
547.421	0.837331
547.764	0.834583
548.106	0.831310
548.449	0.828455
548.792	0.825635
549.135	0.822655
549.477	0.820971
549.820	0.815187
550.162	0.816533
550.505	0.816095
550.847	0.808504
551.190	0.803650
551.532	0.807251
551.875	0.796011
552.217	0.796806
552.559	0.793197
552.901	0.791198
553.244	0.788047
553.586	0.785636
553.928	0.782675
554.270	0.778222
554.612	0.772154
554.954	0.770677
555.296	0.768278
555.638	0.765910
555.980	0.762400
556.322	0.758516
556.663	0.750428
557.005	0.752926
557.347	0.746952
557.689	0.743933
558.030	0.741960
558.372	0.739375
558.713	0.737684
559.055	0.731650
559.396	0.727349
559.738	0.722627
560.079	0.718852
560.421	0.717984
560.762	0.712407
561.103	0.711624
561.444	0.704147
561.786	0.701000
562.127	0.696923
562.468	0.695640
562.809	0.689997
563.150	0.687165
563.491	0.686972
563.832	0.681538
564.173	0.678133
564.514	0.676569
564.855	0.670434
565.195	0.667744
565.536	0.664257
565.877	0.659457
566.218	0.657597
566.558	0.656391
566.899	0.651229
567.239	0.647997
567.580	0.645733
567.920	0.641748
568.261	0.637606
568.601	0.635376
568.941	0.630524
569.282	0.628393
569.622	0.624880
569.962	0.620884
570.302	0.618080
570.643	0.613539
570.983	0.611032
571.323	0.607402
571.663	0.604355
572.003	0.600178
572.343	0.596690
572.683	0.594210
573.022	0.588507
573.362	0.583394
573.702	0.561175
574.042	0.551275
574.381	0.542676
574.721	0.541231
575.061	0.537764
575.400	0.536496
575.740	0.531592
576.079	0.517327
576.419	0.490057
576.758	0.467197
577.097	0.450677
577.437	0.442860
577.776	0.436581
578.115	0.439267
578.454	0.443808
578.794	0.457503
579.133	0.467372
579.472	0.464543
579.811	0.438092
580.150	0.407133
580.489	0.375642
580.828	0.355026
581.167	0.341308
581.505	0.332983
581.844	0.346355
582.183	0.373061
582.522	0.412672
582.860	0.449739
583.199	0.475012
583.538	0.481298
583.876	0.474825
584.215	0.458262
584.553	0.446085
584.891	0.440163
585.230	0.441062
585.568	0.448275
585.906	0.456928
586.245	0.466789
586.583	0.475432
586.921	0.477422
587.259	0.478626
587.597	0.486179
587.935	0.489995
588.273	0.490888
588.611	0.490330
588.949	0.490463
589.287	0.488581
589.625	0.488376
589.963	0.488690
590.300	0.485066
590.638	0.482795
590.976	0.480796
591.313	0.480954
591.651	0.479135
591.989	0.476391
592.326	0.473964
592.664	0.471210
593.001	0.469914
593.338	0.468157
593.676	0.466586
594.013	0.467543
594.350	0.466376
594.687	0.466032
595.025	0.464243
595.362	0.463082
595.699	0.461313
596.036	0.460117
596.373	0.458617
596.710	0.457567
597.047	0.457124
597.384	0.455174
597.720	0.454240
598.057	0.452146
598.394	0.450861
598.731	0.450062
599.067	0.448375
599.404	0.446644
599.741	0.444810
600.077	0.444946
600.414	0.443456
600.750	0.443130
601.087	0.442655
601.423	0.441219
601.759	0.439258
602.096	0.438074
602.432	0.438127
602.768	0.436130
603.104	0.434942
603.440	0.433202
603.776	0.433517
604.112	0.432316
604.448	0.431727
604.784	0.429754
605.120	0.429723
605.456	0.427703
605.792	0.428227
606.128	0.425713
606.463	0.425824
606.799	0.424907
607.135	0.423407
607.470	0.422919
607.806	0.424158
608.142	0.421834
608.477	0.421690
608.812	0.420175
609.148	0.418894
609.483	0.418166
609.819	0.416810
610.154	0.415310
610.489	0.414331
610.824	0.413308
611.159	0.413793
611.494	0.412265
611.830	0.411042
612.165	0.411401
612.500	0.410081
612.834	0.409301
613.169	0.409831
613.504	0.407080
613.839	0.405634
614.174	0.408393
614.509	0.404741
614.843	0.404094
615.178	0.404712
615.512	0.402432
615.847	0.401059
616.182	0.400216
616.516	0.400892
616.850	0.399093
617.185	0.399400
617.519	0.399257
617.853	0.396456
618.188	0.398187
618.522	0.394906
618.856	0.396958
619.190	0.394209
619.524	0.396339
619.858	0.393946
620.192	0.394445
620.526	0.391765
620.860	0.394051
621.194	0.391831
621.528	0.390489
621.862	0.388343
622.195	0.389392
622.529	0.389469
622.863	0.387454
623.196	0.388593
623.530	0.385310
623.864	0.386505
624.197	0.383182
624.530	0.382761
624.864	0.384942
625.197	0.385098
625.531	0.383035
625.864	0.383260
626.197	0.383203
626.530	0.382286
626.863	0.381364
627.196	0.380432
627.529	0.378230
627.862	0.379315
628.195	0.378490
628.528	0.377525
628.861	0.376385
629.194	0.377035
629.527	0.376500
629.860	0.377092
630.192	0.378344
630.525	0.375562
630.858	0.375501
631.190	0.371476
631.523	0.373532
631.855	0.371424
632.188	0.371176
632.520	0.373755
632.852	0.370069
633.185	0.369311
633.517	0.368303
633.849	0.369976
634.182	0.366964
634.514	0.367515
634.846	0.366090
635.178	0.369401
635.510	0.364736
635.842	0.365914
636.174	0.363153
636.506	0.364821
636.837	0.366605
637.169	0.367481
637.501	0.365434
637.833	0.360580
638.164	0.362344
638.496	0.361044
638.828	0.363704
639.159	0.361995
639.491	0.361009
639.822	0.362200
640.154	0.359491
640.485	0.358092
640.816	0.360593
641.147	0.358408
641.479	0.357912
641.810	0.359930
642.141	0.356594
642.472	0.359383
642.803	0.353491
643.134	0.359354
643.465	0.356793
643.796	0.355235
644.127	0.353347
644.458	0.359769
644.789	0.358938
645.119	0.352811
645.450	0.352879
645.781	0.355096
646.111	0.349887
646.442	0.354831
646.773	0.351987
647.103	0.352638
647.433	0.347692
647.764	0.351997
648.094	0.351466
648.425	0.348380
648.755	0.348245
649.085	0.350964
649.415	0.344537
649.745	0.344134
650.075	0.344152
650.405	0.346598
650.735	0.344160
651.065	0.347681
651.395	0.345595
651.725	0.343063
652.055	0.342811
652.385	0.344274
652.715	0.339569
653.044	0.340228
653.374	0.345559
653.704	0.340009
654.033	0.350398
654.363	0.268603
654.692	0.020716
655.022	-0.000000
655.351	-0.000000
655.680	-0.000000
656.010	-0.000000
656.339	-0.000000
656.668	-0.000000
656.997	-0.000000
657.326	0.084558
657.655	0.235213
657.984	0.349587
658.313	0.332467
658.642	0.334089
658.971	0.331492
659.300	0.329723
659.629	0.328732
659.958	0.328969
660.286	0.331687
660.615	0.329030
660.944	0.333707
661.272	0.333177
661.601	0.336206
661.929	0.333510
662.258	0.336778
662.586	0.334381
662.915	0.331248
663.243	0.333726
663.571	0.334648
663.899	0.330265
664.228	0.329921
664.556	0.332038
664.884	0.329093
665.212	0.327707
665.540	0.334502
665.868	0.334258
666.196	0.324714
666.524	0.329235
666.852	0.329435
667.179	0.326381
667.507	0.331342
667.835	0.327458
668.162	0.334362
668.490	0.329823
668.818	0.332850
669.145	0.325495
669.473	0.328657
669.800	0.328948
670.127	0.325844
670.455	0.326847
670.782	0.323452
671.109	0.323001
671.436	0.322358
671.764	0.324324
672.091	0.319844
672.418	0.320907
672.745	0.321761
673.072	0.321148
673.399	0.322503
673.726	0.320299
674.053	0.322571
674.379	0.320739
674.706	0.320868
675.033	0.323323
675.359	0.318236
675.686	0.318714
676.013	0.316805
676.339	0.315446
676.666	0.323665
676.992	0.319901
677.318	0.319128
677.645	0.318404
677.971	0.318617
678.297	0.314983
678.624	0.313279
678.950	0.316104
679.276	0.315770
679.602	0.315744
679.928	0.314577
680.254	0.314341
680.580	0.308956
680.906	0.313235
681.232	0.316254
681.558	0.312904
681.883	0.312176
682.209	0.313845
682.535	0.313153
682.860	0.310615
683.186	0.311175
683.511	0.312555
683.837	0.310860
684.162	0.310676
684.488	0.307277
684.813	0.307868
685.138	0.309010
685.464	0.306386
685.789	0.312128
686.114	0.309001
686.439	0.307127
686.764	0.307254
687.089	0.308680
687.414	0.310781
687.739	0.305559
688.064	0.305735
688.389	0.306222
688.714	0.306968
689.039	0.308171
689.363	0.304835
689.688	0.307930
690.013	0.305240
690.337	0.302800
690.662	0.304698
690.986	0.307229
691.311	0.302797
691.635	0.303393
691.959	0.304402
692.284	0.304452
692.608	0.304954
692.932	0.305002
693.256	0.307085
693.580	0.299857
693.904	0.300840
694.228	0.304858
694.552	0.299333
694.876	0.299153
695.200	0.305538
695.524	0.299453
695.848	0.300028
696.172	0.298592
696.495	0.302097
696.819	0.299847
697.143	0.300904
697.466	0.296757
697.790	0.301444
698.113	0.301588
698.437	0.295858
698.760	0.296290
699.083	0.302623
699.407	0.297283
699.730	0.297780
700.053	0.299505
700.376	0.296295
700.699	0.295770
701.022	0.299630
701.345	0.295885
701.668	0.297089
701.991	0.297109
702.314	0.300554
702.637	0.296811
702.960	0.296327
703.283	0.293953
703.605	0.295592
703.928	0.288769
704.251	0.289982
704.573	0.293988
704.896	0.289525
705.218	0.291137
705.540	0.290817
705.863	0.290274
706.185	0.291145
706.507	0.288507
706.830	0.288094
707.152	0.289113
707.474	0.289526
707.796	0.287359
708.118	0.287781
708.440	0.285901
708.762	0.284998
709.084	0.283765
709.406	0.278317
709.728	0.283021
710.049	0.281524
710.371	0.286702
710.693	0.281444
711.014	0.277744
711.336	0.277524
711.658	0.282141
711.979	0.280804
712.301	0.282987
712.622	0.282745
712.943	0.285691
713.265	0.284892
713.586	0.281753
713.907	0.280948
714.228	0.279770
714.549	0.284006
714.870	0.280652
715.191	0.279443
715.512	0.281133
715.833	0.282895
716.154	0.282785
716.475	0.278822
716.796	0.277687
717.117	0.279247
717.437	0.280668
717.758	0.278358
718.078	0.278495
718.399	0.278959
718.719	0.279548
719.040	0.282181
719.360	0.279692
719.681	0.278401
720.001	0.278527
720.321	0.277597
720.642	0.280982
720.962	0.280022
721.282	0.276539
721.602	0.278445
721.922	0.273477
722.242	0.276990
722.562	0.277405
722.882	0.281257
723.202	0.271752
723.521	0.275043
723.841	0.278281
724.161	0.273119
724.481	0.276095
724.800	0.273527
725.120	0.273509
725.439	0.276210
725.759	0.274182
726.078	0.274869
726.398	0.275857
726.717	0.274855
727.036	0.273680
727.355	0.274577
727.675	0.271113
727.994	0.272457
728.313	0.273417
728.632	0.273905
728.951	0.272358
729.270	0.273102
729.589	0.271945
729.908	0.270062
730.226	0.269455
730.545	0.268697
730.864	0.271344
731.182	0.271242
731.501	0.271316
731.820	0.268914
732.138	0.268643
732.457	0.267658
732.775	0.269673
733.093	0.269778
733.412	0.267356
733.730	0.271357
734.048	0.267860
734.367	0.269662
734.685	0.268082
735.003	0.266734
735.321	0.269739
735.639	0.268881
735.957	0.267722
736.275	0.268824
736.593	0.264831
736.910	0.266393
737.228	0.263314
737.546	0.265092
737.863	0.267057
738.181	0.269915
738.499	0.264241
738.816	0.264225
739.134	0.262459
739.451	0.265994
739.768	0.262598
740.086	0.263442
740.403	0.266758
740.720	0.266650
741.038	0.263737
741.355	0.265878
741.672	0.265472
741.989	0.265496
742.306	0.264082
742.623	0.267113
742.940	0.264503
743.257	0.258751
743.573	0.262117
743.890	0.264345
744.207	0.262178
744.523	0.260888
744.840	0.267436
745.157	0.265943
745.473	0.263847
745.790	0.264602
746.106	0.262152
746.422	0.262723
746.739	0.261280
747.055	0.262218
747.371	0.264049
747.687	0.257003
748.004	0.259157
748.320	0.263251
748.636	0.257805
748.952	0.255711
749.268	0.258084
749.584	0.260923
749.899	0.258325
750.215	0.257857
750.531	0.260765
750.847	0.257174
751.162	0.255733
751.478	0.259810
751.793	0.258054
752.109	0.259896
752.424	0.257826
752.740	0.258450
753.055	0.256803
753.370	0.256852
753.686	0.252508
754.001	0.254537
754.316	0.255188
754.631	0.253195
754.946	0.255121
755.261	0.259543
755.576	0.255404
755.891	0.253791
756.206	0.252358
756.521	0.253981
756.836	0.252803
757.150	0.251547
757.465	0.254028
757.780	0.252321
758.094	0.253224
758.409	0.253668
758.723	0.253744
759.038	0.249316
759.352	0.253203
759.667	0.251233
759.981	0.256676
760.295	0.253075
760.609	0.251845
760.923	0.252148
761.238	0.250340
761.552	0.249093
761.866	0.251713
762.180	0.251783
762.493	0.248930
762.807	0.247483
763.121	0.249460
763.435	0.249845
763.749	0.248070
764.062	0.247794
764.376	0.247170
764.689	0.248789
765.003	0.247368
765.316	0.248106
765.630	0.247720
765.943	0.248472
766.257	0.244106
766.570	0.246478
766.883	0.252117
767.196	0.249222
767.509	0.243153
767.822	0.244177
768.135	0.247860
768.448	0.245390
768.761	0.246376
769.074	0.246046
769.387	0.248277
769.700	0.244413
770.013	0.245866
770.325	0.242035
770.638	0.246653
770.950	0.241430
771.263	0.241194
771.575	0.239140
771.888	0.243744
772.200	0.241988
772.513	0.241172
772.825	0.248270
773.137	0.245715
773.449	0.242653
773.761	0.239306
774.074	0.241770
774.386	0.244017
774.698	0.242751
775.010	0.239092
775.321	0.243616
775.633	0.235149
775.945	0.239015
776.257	0.243058
776.568	0.241953
776.880	0.244091
777.192	0.243236
777.503	0.240915
777.815	0.239067
778.126	0.239268
778.438	0.240879
778.749	0.237704
779.060	0.233591
779.372	0.238785
779.683	0.239340
779.994	0.242397
780.305	0.236903
780.616	0.239469
780.927	0.240487
781.238	0.237617
781.549	0.236539
781.860	0.238893
782.171	0.239370
782.481	0.236965
782.792	0.236268
783.103	0.238500
783.413	0.237268
783.724	0.236043
784.034	0.236952
784.345	0.235316
784.655	0.237689
784.966	0.239108
785.276	0.238867
785.586	0.234899
785.896	0.235992
786.207	0.243516
786.517	0.237631
786.827	0.233215
787.137	0.234755
787.447	0.235642
787.757	0.235447
788.066	0.231633
788.376	0.232185
788.686	0.235637
788.996	0.235023
789.305	0.236208
789.615	0.229111
789.925	0.229790
790.234	0.238165
790.544	0.234756
790.853	0.232401
791.162	0.225343
791.472	0.231951
791.781	0.230201
792.090	0.224044
792.399	0.231462
792.708	0.228801
793.017	0.231022
793.326	0.232168
793.635	0.227051
793.944	0.225046
794.253	0.232050
794.562	0.229543
794.871	0.227923
795.179	0.226222
795.488	0.230441
795.797	0.226407
796.105	0.226216
796.414	0.231169
796.722	0.234919
797.031	0.226925
797.339	0.228601
797.647	0.228024
797.956	0.232750
798.264	0.227435
798.572	0.223625
798.880	0.229915
799.188	0.224950
799.496	0.229571
799.804	0.228159
800.112	0.226293
800.420	0.229875
800.728	0.225489
801.035	0.219539
801.343	0.219945
801.651	0.228384
801.958	0.227031
802.266	0.230867
802.573	0.224512
802.881	0.224844
803.188	0.229920
803.496	0.223493
803.803	0.230584
804.110	0.231269
804.417	0.226147
804.724	0.224913
805.032	0.229854
805.339	0.228236
805.646	0.227167
805.953	0.221724
806.259	0.223070
806.566	0.223320
806.873	0.215871
807.180	0.219873
807.486	0.215714
807.793	0.215750
808.100	0.227118
808.406	0.219484
808.713	0.224925
809.019	0.217719
809.326	0.223622
809.632	0.220765
809.938	0.231228
810.244	0.221300
810.551	0.224187
810.857	0.220011
811.163	0.226199
811.469	0.212868
811.775	0.231871
812.081	0.216312
812.387	0.226787
812.692	0.217364
812.998	0.212986
813.304	0.220255
813.610	0.226034
813.915	0.213446
814.221	0.218115
814.526	0.230256
814.832	0.220528
815.137	0.214574
815.443	0.214974
815.748	0.227884
816.053	0.230726
816.358	0.234430
816.664	0.215745
816.969	0.221046
817.274	0.217449
817.579	0.220778
817.884	0.217388
818.189	0.220703
818.493	0.217097
818.798	0.216260
819.103	0.219155
819.408	0.228899
819.712	0.212730
820.017	0.212738
820.321	0.213598
820.626	0.221701
820.930	0.230147
821.235	0.214217
821.539	0.219060
821.843	0.209870
822.148	0.226007
822.452	0.217747
822.756	0.218441
823.060	0.218954
823.364	0.221419
823.668	0.217584
823.972	0.223129
824.276	0.208037
824.580	0.207987
824.883	0.202591
825.187	0.218372
825.491	0.210511
825.795	0.219909
826.098	0.203492
826.402	0.202083
826.705	0.208721
827.008	0.211908
827.312	0.217442
827.615	0.210332
827.918	0.221856
828.222	0.209149
828.525	0.218448
828.828	0.207050
829.131	0.211512
829.434	0.198076
829.737	0.211072
830.040	0.227089
830.343	0.221686
830.645	0.222142
830.948	0.247910
831.251	0.206879
831.553	0.218938
831.856	0.216429
832.159	0.215476
832.461	0.221871
832.764	0.219922
833.066	0.217076
833.368	0.215999
833.671	0.216741
833.973	0.202669
834.275	0.191377
834.577	0.213508
834.879	0.195733
835.181	0.209884
835.483	0.202909
835.785	0.220255
836.087	0.221086
836.389	0.207525
836.690	0.214957
836.992	0.223802
837.294	0.219273
837.595	0.228139
837.897	0.216106
838.198	0.215196
838.500	0.219153
838.801	0.212145
839.103	0.225153
839.404	0.198915
839.705	0.223139
840.006	0.223743
840.307	0.214981
840.608	0.245068
840.910	0.196183
841.210	0.210618
841.511	0.211903
841.812	0.249651
842.113	0.189303
842.414	0.236107
842.715	0.202440
843.015	0.212257
843.316	0.226736
843.616	0.208205
843.917	0.199773
844.217	0.173741
844.518	0.200289
844.818	0.197339
845.118	0.218794
845.419	0.225745
845.719	0.222822
846.019	0.226272
846.319	0.217454
846.619	0.218608
846.919	0.236575
847.219	0.175920
847.519	0.209484
847.819	0.225128
848.118	0.228506
848.418	0.206862
848.718	0.215111
849.017	0.240371
849.317	0.224853
849.616	0.219250
849.916	0.225580
850.215	0.205951
850.515	0.233125
850.814	0.215938
851.113	0.209447
851.412	0.200970
851.712	0.190581
852.011	0.213937
852.310	0.195722
852.609	0.194006
852.908	0.190725
853.206	0.201442
853.505	0.198351
853.804	0.192763
854.103	0.201127
854.401	0.211712
854.700	0.205242
854.999	0.193355
855.297	0.197097
855.595	0.190361
855.894	0.192232
856.192	0.181738
856.491	0.185045
856.789	0.213727
857.087	0.208503
857.385	0.216525
857.683	0.211997
857.981	0.198557
858.279	0.213438
858.577	0.205588
858.875	0.201683
859.173	0.194166
859.471	0.202734
859.768	0.230360
860.066	0.190835
860.363	0.202910
860.661	0.199144
860.959	0.198166
861.256	0.188387
861.553	0.205872
861.851	0.222455
862.148	0.232839
862.445	0.192653
862.742	0.226601
863.039	0.218101
863.337	0.184731
863.634	0.213788
863.931	0.188480
864.227	0.172139
864.524	0.213415
864.821	0.188328
865.118	0.220592
865.415	0.223352
865.711	0.210957
866.008	0.184551
866.304	0.210951
866.601	0.196504
866.897	0.175666
867.194	0.213695
867.490	0.206402
867.786	0.231640
868.082	0.220926
868.379	0.206110
868.675	0.234662
868.971	0.224736
869.267	0.191200
869.563	0.235678
869.859	0.200531
870.154	0.221993
870.450	0.207223
870.746	0.217603
871.042	0.193400
871.337	0.220980
871.633	0.197772
871.928	0.220351
872.224	0.240914
872.519	0.238987
872.815	0.207220
873.110	0.189678
873.405	0.249394
873.700	0.211673
873.995	0.241529
874.291	0.209778
874.586	0.201010
874.881	0.214863
875.175	0.253440
875.470	0.176739
875.765	0.231572
876.060	0.222297
876.355	0.217764
876.649	0.216716
876.944	0.228761
877.238	0.158041
877.533	0.187392
877.827	0.198734
878.122	0.222570
878.416	0.215151
878.710	0.195489
879.005	0.193673
879.299	0.212247
879.593	0.183858
879.887	0.206271
880.181	0.207142
880.475	0.201541
880.769	0.213652
881.063	0.217533
881.356	0.180732
881.650	0.192158
881.944	0.185638
882.238	0.194467
882.531	0.234538
882.825	0.209716
883.118	0.231702
883.412	0.209587
883.705	0.234289
883.998	0.211502
884.291	0.218627
884.585	0.177190
884.878	0.224409
>>>>>>>>>> END of Data <<<<<<<<<<
