Date	2021年06月15日火曜日 05時54分53秒
Spectrometers	USB2+H05879
ダーク	使用
リファレンス	使用
積分時間[msec]	10
平均回数	280
ｽﾑｰｼﾞﾝｸﾞ	10
Electrical Dark	USE
ピクセル数	2048
計測モード	吸光度
保存開始波長[nm]	190.664
保存終了波長[nm]	884.878
保存ﾋﾟｯﾁ波長[nm]	全波長

>>>>>>>>>> Data Start <<<<<<<<<<<<
190.664	0.000000
191.040	0.000000
191.415	0.000000
191.791	-2.610799
192.166	-0.828154
192.542	-1.012137
192.917	0.000000
193.293	-0.567947
193.668	-0.525097
194.044	-1.011332
194.419	0.000000
194.794	-1.469715
195.170	-1.386358
195.545	-1.294668
195.920	-1.157631
196.296	-1.032955
196.671	-0.867060
197.046	-0.717960
197.421	-0.660417
197.796	-0.649085
198.171	-0.610803
198.546	-0.569585
198.922	-0.516580
199.297	-0.486425
199.672	-0.461495
200.047	-0.435485
200.422	-0.403519
200.796	-0.387821
201.171	-0.377234
201.546	-0.371989
201.921	-0.368331
202.296	-0.350984
202.671	-0.315026
203.045	-0.289292
203.420	-0.279870
203.795	-0.269638
204.170	-0.259502
204.544	-0.255288
204.919	-0.253363
205.294	-0.252930
205.668	-0.239358
206.043	-0.231861
206.417	-0.228993
206.792	-0.220973
207.166	-0.219083
207.541	-0.220093
207.915	-0.224180
208.289	-0.211891
208.664	-0.215171
209.038	-0.212248
209.412	-0.198005
209.787	-0.179834
210.161	-0.167940
210.535	-0.173918
210.909	-0.166131
211.284	-0.155977
211.658	-0.152175
212.032	-0.154292
212.406	-0.164518
212.780	-0.163140
213.154	-0.162503
213.528	-0.167832
213.902	-0.165843
214.276	-0.160361
214.650	-0.164568
215.024	-0.161332
215.398	-0.152538
215.772	-0.144679
216.145	-0.147723
216.519	-0.130289
216.893	-0.125734
217.267	-0.121593
217.640	-0.126074
218.014	-0.120127
218.388	-0.113004
218.761	-0.117221
219.135	-0.106288
219.508	-0.112758
219.882	-0.119420
220.256	-0.111391
220.629	-0.104622
221.003	-0.103102
221.376	-0.098913
221.749	-0.100518
222.123	-0.100548
222.496	-0.098681
222.869	-0.094674
223.243	-0.090036
223.616	-0.089974
223.989	-0.095480
224.362	-0.103279
224.736	-0.107107
225.109	-0.108507
225.482	-0.106118
225.855	-0.109656
226.228	-0.115447
226.601	-0.117740
226.974	-0.117301
227.347	-0.109399
227.720	-0.099143
228.093	-0.097709
228.466	-0.101271
228.839	-0.103858
229.212	-0.109520
229.585	-0.116903
229.957	-0.123569
230.330	-0.120782
230.703	-0.119437
231.076	-0.126850
231.448	-0.128608
231.821	-0.124132
232.194	-0.122229
232.566	-0.117965
232.939	-0.127925
233.311	-0.130960
233.684	-0.124957
234.056	-0.121498
234.429	-0.114078
234.801	-0.120893
235.174	-0.114386
235.546	-0.116907
235.918	-0.118942
236.291	-0.116701
236.663	-0.107230
237.035	-0.106852
237.408	-0.095021
237.780	-0.083407
238.152	-0.083286
238.524	-0.088397
238.896	-0.084730
239.268	-0.085427
239.641	-0.086652
240.013	-0.075678
240.385	-0.072703
240.757	-0.072069
241.129	-0.064764
241.500	-0.070266
241.872	-0.065313
242.244	-0.063895
242.616	-0.069035
242.988	-0.071087
243.360	-0.059073
243.731	-0.047727
244.103	-0.049329
244.475	-0.050519
244.847	-0.041917
245.218	-0.039895
245.590	-0.037653
245.961	-0.034315
246.333	-0.030758
246.705	-0.033796
247.076	-0.027908
247.448	-0.017304
247.819	-0.017808
248.190	-0.008904
248.562	-0.007947
248.933	-0.005252
249.305	-0.000776
249.676	0.003200
250.047	-0.000023
250.418	0.010006
250.790	0.012456
251.161	0.002329
251.532	-0.005021
251.903	-0.001893
252.274	0.002029
252.645	0.006362
253.016	0.004331
253.387	0.005043
253.758	0.000808
254.129	-0.003030
254.500	0.007013
254.871	0.007871
255.242	0.004005
255.613	-0.004389
255.984	-0.014416
256.355	-0.005631
256.725	-0.001835
257.096	0.000231
257.467	0.001262
257.838	0.001653
258.208	0.001080
258.579	-0.002201
258.949	-0.000513
259.320	0.010105
259.690	0.009851
260.061	0.015024
260.431	0.012775
260.802	0.014602
261.172	0.011945
261.543	0.017211
261.913	0.023486
262.283	0.016686
262.654	0.014787
263.024	0.011695
263.394	0.020363
263.764	0.026348
264.135	0.029214
264.505	0.022169
264.875	0.021195
265.245	0.015971
265.615	0.015665
265.985	0.020463
266.355	0.027451
266.725	0.031309
267.095	0.025652
267.465	0.033897
267.835	0.023976
268.205	0.019101
268.575	0.023295
268.944	0.027380
269.314	0.025493
269.684	0.021073
270.054	0.017724
270.423	0.019862
270.793	0.024205
271.163	0.022192
271.532	0.019387
271.902	0.017316
272.271	0.019027
272.641	0.025378
273.010	0.024862
273.380	0.024783
273.749	0.018829
274.119	0.014914
274.488	0.014729
274.857	0.017569
275.227	0.010871
275.596	0.009574
275.965	0.017934
276.335	0.015649
276.704	0.011587
277.073	0.011309
277.442	0.015155
277.811	0.025196
278.180	0.030910
278.549	0.031293
278.918	0.028391
279.287	0.028055
279.656	0.036390
280.025	0.038096
280.394	0.030655
280.763	0.035089
281.132	0.038808
281.501	0.039869
281.869	0.036785
282.238	0.037314
282.607	0.031257
282.976	0.031896
283.344	0.038535
283.713	0.033877
284.081	0.033135
284.450	0.038666
284.819	0.045695
285.187	0.053712
285.556	0.049009
285.924	0.036543
286.292	0.032387
286.661	0.033884
287.029	0.039707
287.398	0.031961
287.766	0.027854
288.134	0.026761
288.502	0.025240
288.871	0.029506
289.239	0.034949
289.607	0.041787
289.975	0.038757
290.343	0.042844
290.711	0.043152
291.079	0.042849
291.447	0.048359
291.815	0.054946
292.183	0.054133
292.551	0.051475
292.919	0.049790
293.287	0.056865
293.655	0.064572
294.022	0.065862
294.390	0.072805
294.758	0.073955
295.126	0.077451
295.493	0.079429
295.861	0.087477
296.229	0.084750
296.596	0.088110
296.964	0.085998
297.331	0.085025
297.699	0.093361
298.066	0.097746
298.434	0.099588
298.801	0.108189
299.168	0.103791
299.536	0.102499
299.903	0.099925
300.270	0.105804
300.638	0.111762
301.005	0.119831
301.372	0.126497
301.739	0.129527
302.106	0.128595
302.473	0.131945
302.840	0.136319
303.207	0.159350
303.574	0.171777
303.941	0.192232
304.308	0.200474
304.675	0.215526
305.042	0.229908
305.409	0.246227
305.776	0.259677
306.143	0.280655
306.509	0.297849
306.876	0.329752
307.243	0.350550
307.610	0.380446
307.976	0.401698
308.343	0.427800
308.709	0.451083
309.076	0.482188
309.442	0.515675
309.809	0.543723
310.175	0.575799
310.542	0.603947
310.908	0.618745
311.275	0.645202
311.641	0.669900
312.007	0.696538
312.373	0.722983
312.740	0.748149
313.106	0.773033
313.472	0.805789
313.838	0.834322
314.204	0.856673
314.570	0.874186
314.936	0.897681
315.302	0.914124
315.668	0.932348
316.034	0.952678
316.400	0.975955
316.766	0.994395
317.132	1.016902
317.498	1.036636
317.864	1.052563
318.230	1.069459
318.595	1.089521
318.961	1.105465
319.327	1.123333
319.692	1.135807
320.058	1.144758
320.424	1.158068
320.789	1.168634
321.155	1.180199
321.520	1.192531
321.886	1.207503
322.251	1.217724
322.616	1.228470
322.982	1.239671
323.347	1.247668
323.712	1.258306
324.078	1.263286
324.443	1.270813
324.808	1.276285
325.173	1.283804
325.539	1.289932
325.904	1.295569
326.269	1.300453
326.634	1.304834
326.999	1.308362
327.364	1.312900
327.729	1.319196
328.094	1.325975
328.459	1.332179
328.823	1.334717
329.188	1.338355
329.553	1.339052
329.918	1.343076
330.283	1.345241
330.647	1.349383
331.012	1.354012
331.377	1.354841
331.741	1.355792
332.106	1.358330
332.470	1.360080
332.835	1.361467
333.199	1.362661
333.564	1.366474
333.928	1.368316
334.293	1.369460
334.657	1.369484
335.021	1.371607
335.386	1.372446
335.750	1.371953
336.114	1.372567
336.478	1.373480
336.843	1.373949
337.207	1.374960
337.571	1.377657
337.935	1.378257
338.299	1.377323
338.663	1.376584
339.027	1.378823
339.391	1.380294
339.755	1.380691
340.119	1.380142
340.483	1.379850
340.846	1.380940
341.210	1.380082
341.574	1.380450
341.938	1.381156
342.301	1.382102
342.665	1.382095
343.029	1.382603
343.392	1.383822
343.756	1.383390
344.119	1.383710
344.483	1.383906
344.846	1.384535
345.210	1.384006
345.573	1.384257
345.937	1.384560
346.300	1.385569
346.663	1.384465
347.027	1.384810
347.390	1.384812
347.753	1.385774
348.116	1.386249
348.479	1.386039
348.843	1.385726
349.206	1.385032
349.569	1.384978
349.932	1.385514
350.295	1.385526
350.658	1.385319
351.021	1.385612
351.383	1.386362
351.746	1.386381
352.109	1.385502
352.472	1.385370
352.835	1.385078
353.197	1.385585
353.560	1.386879
353.923	1.386387
354.285	1.386516
354.648	1.386334
355.011	1.386326
355.373	1.386431
355.736	1.386859
356.098	1.386982
356.461	1.387471
356.823	1.387493
357.185	1.388326
357.548	1.388434
357.910	1.389594
358.272	1.390023
358.635	1.388984
358.997	1.388525
359.359	1.389560
359.721	1.389748
360.083	1.390251
360.445	1.389987
360.807	1.389718
361.169	1.389278
361.531	1.390479
361.893	1.390754
362.255	1.391447
362.617	1.392018
362.979	1.392138
363.341	1.391556
363.703	1.391782
364.064	1.392085
364.426	1.393267
364.788	1.393115
365.149	1.393165
365.511	1.393055
365.873	1.393685
366.234	1.394844
366.596	1.395166
366.957	1.395291
367.319	1.395929
367.680	1.395807
368.042	1.396236
368.403	1.397267
368.764	1.398174
369.126	1.398089
369.487	1.398995
369.848	1.399459
370.209	1.399841
370.570	1.399480
370.931	1.400781
371.293	1.401598
371.654	1.402148
372.015	1.402878
372.376	1.403706
372.737	1.404414
373.098	1.405335
373.458	1.405843
373.819	1.406486
374.180	1.408518
374.541	1.408732
374.902	1.409936
375.263	1.411243
375.623	1.411936
375.984	1.413257
376.345	1.413849
376.705	1.415059
377.066	1.415640
377.426	1.415416
377.787	1.416270
378.147	1.417702
378.508	1.418278
378.868	1.418841
379.228	1.419516
379.589	1.420052
379.949	1.420907
380.309	1.421990
380.670	1.422545
381.030	1.422867
381.390	1.423718
381.750	1.423345
382.110	1.423822
382.470	1.424404
382.830	1.424693
383.190	1.425797
383.550	1.426046
383.910	1.427055
384.270	1.427520
384.630	1.428247
384.990	1.430013
385.350	1.430654
385.709	1.431441
386.069	1.432781
386.429	1.433596
386.788	1.434887
387.148	1.435927
387.508	1.436848
387.867	1.437334
388.227	1.437699
388.586	1.438805
388.946	1.439619
389.305	1.440263
389.665	1.441713
390.024	1.443167
390.383	1.444358
390.743	1.445343
391.102	1.446267
391.461	1.446650
391.820	1.447765
392.179	1.448109
392.539	1.448909
392.898	1.449998
393.257	1.450885
393.616	1.451685
393.975	1.452444
394.334	1.453548
394.693	1.454612
395.051	1.455340
395.410	1.456354
395.769	1.457763
396.128	1.458936
396.487	1.459504
396.845	1.460606
397.204	1.461304
397.563	1.461195
397.921	1.462008
398.280	1.462196
398.638	1.461967
398.997	1.462832
399.355	1.462743
399.714	1.463733
400.072	1.463308
400.431	1.463110
400.789	1.463228
401.147	1.463444
401.506	1.464107
401.864	1.464318
402.222	1.463986
402.580	1.463821
402.938	1.464580
403.297	1.464626
403.655	1.464699
404.013	1.465380
404.371	1.465815
404.729	1.465736
405.087	1.465478
405.444	1.465690
405.802	1.465938
406.160	1.467002
406.518	1.467003
406.876	1.466859
407.233	1.466783
407.591	1.467814
407.949	1.468672
408.306	1.469245
408.664	1.469459
409.022	1.469820
409.379	1.469962
409.737	1.469908
410.094	1.470047
410.451	1.469457
410.809	1.469681
411.166	1.469585
411.523	1.469506
411.881	1.469383
412.238	1.469179
412.595	1.469115
412.952	1.469048
413.310	1.469264
413.667	1.469319
414.024	1.470524
414.381	1.471861
414.738	1.471993
415.095	1.471774
415.452	1.471705
415.809	1.471824
416.165	1.471807
416.522	1.472088
416.879	1.472113
417.236	1.472563
417.593	1.473062
417.949	1.473691
418.306	1.473779
418.663	1.475026
419.019	1.475673
419.376	1.476085
419.732	1.476286
420.089	1.477722
420.445	1.477959
420.802	1.479054
421.158	1.478565
421.514	1.477611
421.871	1.477415
422.227	1.477051
422.583	1.477400
422.939	1.476470
423.295	1.476381
423.652	1.476420
424.008	1.475938
424.364	1.475748
424.720	1.476177
425.076	1.476075
425.432	1.475525
425.788	1.476099
426.143	1.475311
426.499	1.474604
426.855	1.474513
427.211	1.474725
427.567	1.474722
427.922	1.474809
428.278	1.473010
428.634	1.473140
428.989	1.472895
429.345	1.472213
429.700	1.472208
430.056	1.472759
430.411	1.473905
430.767	1.474104
431.122	1.473911
431.478	1.473939
431.833	1.473783
432.188	1.473162
432.543	1.472985
432.899	1.472822
433.254	1.471594
433.609	1.471227
433.964	1.470834
434.319	1.470365
434.674	1.469942
435.029	1.469438
435.384	1.469028
435.739	1.469459
436.094	1.469297
436.449	1.469351
436.804	1.469136
437.158	1.468860
437.513	1.468322
437.868	1.467392
438.223	1.467182
438.577	1.466419
438.932	1.466279
439.287	1.466048
439.641	1.465197
439.996	1.464333
440.350	1.464063
440.704	1.463996
441.059	1.463222
441.413	1.462164
441.768	1.461369
442.122	1.460976
442.476	1.460007
442.830	1.458785
443.185	1.457656
443.539	1.456574
443.893	1.455129
444.247	1.454120
444.601	1.453477
444.955	1.451500
445.309	1.450145
445.663	1.448601
446.017	1.447352
446.371	1.445573
446.724	1.443815
447.078	1.442088
447.432	1.440982
447.786	1.439145
448.139	1.436717
448.493	1.434994
448.847	1.433428
449.200	1.431594
449.554	1.429878
449.907	1.427901
450.261	1.425717
450.614	1.423895
450.968	1.421273
451.321	1.419015
451.674	1.416473
452.027	1.413922
452.381	1.411901
452.734	1.409817
453.087	1.407257
453.440	1.404722
453.793	1.402182
454.146	1.399708
454.499	1.397932
454.852	1.394886
455.205	1.392359
455.558	1.390544
455.911	1.387933
456.264	1.385750
456.617	1.383787
456.970	1.380940
457.322	1.378246
457.675	1.376135
458.028	1.374112
458.380	1.372320
458.733	1.370087
459.086	1.368229
459.438	1.366091
459.791	1.363703
460.143	1.361009
460.496	1.358887
460.848	1.356738
461.200	1.354317
461.553	1.351676
461.905	1.349311
462.257	1.347076
462.609	1.344712
462.961	1.342219
463.314	1.340113
463.666	1.337467
464.018	1.334683
464.370	1.332706
464.722	1.330437
465.074	1.327947
465.426	1.325574
465.777	1.322997
466.129	1.320662
466.481	1.318239
466.833	1.316126
467.184	1.313716
467.536	1.311473
467.888	1.308934
468.239	1.306621
468.591	1.304111
468.943	1.301341
469.294	1.298431
469.646	1.295531
469.997	1.292421
470.348	1.289498
470.700	1.286549
471.051	1.284135
471.402	1.281975
471.754	1.279357
472.105	1.277100
472.456	1.274882
472.807	1.272435
473.158	1.270453
473.509	1.268641
473.860	1.266537
474.211	1.263961
474.562	1.262235
474.913	1.259939
475.264	1.257591
475.615	1.255129
475.966	1.253030
476.316	1.251096
476.667	1.248936
477.018	1.246819
477.368	1.244880
477.719	1.242744
478.070	1.240752
478.420	1.238670
478.771	1.236308
479.121	1.234050
479.472	1.231934
479.822	1.229781
480.172	1.227546
480.523	1.225369
480.873	1.223059
481.223	1.220113
481.573	1.217192
481.924	1.214132
482.274	1.211381
482.624	1.209065
482.974	1.207240
483.324	1.205846
483.674	1.204733
484.024	1.203679
484.374	1.202732
484.724	1.201454
485.073	1.200079
485.423	1.198673
485.773	1.197261
486.123	1.195871
486.472	1.194332
486.822	1.192966
487.172	1.191682
487.521	1.190292
487.871	1.188791
488.220	1.187363
488.570	1.185910
488.919	1.184249
489.268	1.182264
489.618	1.180228
489.967	1.177583
490.316	1.174287
490.666	1.170775
491.015	1.167110
491.364	1.163594
491.713	1.160054
492.062	1.157235
492.411	1.154733
492.760	1.152208
493.109	1.149729
493.458	1.147281
493.807	1.144988
494.156	1.142563
494.505	1.139868
494.853	1.137347
495.202	1.134856
495.551	1.132137
495.900	1.129733
496.248	1.127244
496.597	1.124749
496.945	1.122296
497.294	1.120058
497.642	1.117747
497.991	1.115141
498.339	1.112641
498.688	1.110245
499.036	1.108159
499.384	1.105974
499.732	1.103558
500.081	1.101477
500.429	1.099153
500.777	1.096999
501.125	1.095029
501.473	1.092684
501.821	1.090555
502.169	1.088445
502.517	1.086313
502.865	1.084278
503.213	1.082171
503.561	1.080080
503.908	1.078187
504.256	1.075955
504.604	1.073688
504.952	1.071577
505.299	1.069381
505.647	1.067234
505.994	1.065039
506.342	1.062744
506.689	1.060563
507.037	1.058600
507.384	1.056125
507.732	1.054074
508.079	1.051867
508.426	1.049574
508.774	1.047455
509.121	1.045419
509.468	1.043364
509.815	1.041385
510.162	1.039268
510.509	1.037268
510.856	1.035334
511.203	1.033349
511.550	1.031399
511.897	1.029354
512.244	1.027369
512.591	1.025336
512.938	1.023406
513.284	1.021498
513.631	1.019751
513.978	1.017789
514.324	1.015930
514.671	1.014152
515.018	1.012067
515.364	1.010246
515.711	1.008392
516.057	1.006577
516.403	1.004695
516.750	1.002957
517.096	1.001166
517.443	0.999411
517.789	0.997809
518.135	0.996062
518.481	0.994179
518.827	0.992553
519.173	0.990873
519.519	0.989167
519.865	0.987568
520.211	0.986084
520.557	0.984396
520.903	0.982424
521.249	0.980697
521.595	0.978796
521.941	0.976848
522.287	0.975136
522.632	0.973148
522.978	0.971469
523.324	0.969752
523.669	0.968065
524.015	0.966168
524.360	0.964336
524.706	0.962643
525.051	0.960727
525.397	0.958910
525.742	0.957073
526.087	0.955401
526.433	0.953746
526.778	0.952310
527.123	0.950896
527.468	0.949249
527.813	0.947888
528.158	0.946442
528.504	0.944689
528.849	0.942990
529.193	0.941545
529.538	0.939981
529.883	0.938144
530.228	0.936086
530.573	0.934389
530.918	0.932666
531.263	0.931094
531.607	0.929530
531.952	0.927921
532.296	0.926297
532.641	0.924746
532.986	0.923102
533.330	0.921301
533.675	0.919819
534.019	0.917897
534.363	0.915816
534.708	0.913879
535.052	0.911747
535.396	0.909892
535.741	0.908268
536.085	0.906487
536.429	0.904596
536.773	0.902677
537.117	0.900990
537.461	0.899232
537.805	0.896990
538.149	0.894750
538.493	0.892549
538.837	0.890363
539.181	0.888083
539.524	0.885714
539.868	0.883412
540.212	0.881186
540.556	0.878921
540.899	0.876531
541.243	0.874349
541.586	0.872140
541.930	0.869870
542.273	0.867745
542.617	0.865394
542.960	0.862855
543.304	0.860146
543.647	0.857361
543.990	0.854579
544.333	0.851683
544.677	0.848995
545.020	0.846472
545.363	0.843849
545.706	0.841204
546.049	0.838527
546.392	0.835970
546.735	0.833313
547.078	0.830423
547.421	0.827503
547.764	0.824508
548.106	0.821227
548.449	0.817814
548.792	0.814579
549.135	0.811195
549.477	0.807837
549.820	0.804639
550.162	0.801458
550.505	0.798320
550.847	0.795190
551.190	0.791746
551.532	0.788193
551.875	0.784201
552.217	0.780296
552.559	0.776481
552.901	0.772703
553.244	0.768911
553.586	0.765104
553.928	0.761491
554.270	0.758065
554.612	0.754564
554.954	0.751099
555.296	0.747668
555.638	0.744117
555.980	0.740218
556.322	0.736142
556.663	0.731792
557.005	0.727377
557.347	0.723050
557.689	0.718891
558.030	0.714725
558.372	0.710649
558.713	0.706611
559.055	0.702681
559.396	0.698614
559.738	0.694444
560.079	0.690054
560.421	0.685715
560.762	0.681468
561.103	0.677213
561.444	0.673055
561.786	0.669014
562.127	0.664922
562.468	0.660777
562.809	0.656564
563.150	0.652174
563.491	0.647714
563.832	0.643035
564.173	0.638209
564.514	0.633209
564.855	0.627937
565.195	0.622512
565.536	0.617133
565.877	0.611813
566.218	0.606654
566.558	0.601618
566.899	0.596849
567.239	0.592306
567.580	0.588063
567.920	0.584123
568.261	0.580559
568.601	0.577110
568.941	0.573809
569.282	0.570679
569.622	0.567530
569.962	0.564335
570.302	0.561151
570.643	0.558099
570.983	0.555169
571.323	0.552441
571.663	0.549774
572.003	0.547197
572.343	0.544592
572.683	0.541830
573.022	0.538900
573.362	0.535767
573.702	0.532544
574.042	0.529304
574.381	0.526237
574.721	0.523258
575.061	0.520444
575.400	0.517807
575.740	0.515208
576.079	0.512655
576.419	0.509935
576.758	0.507058
577.097	0.503976
577.437	0.500764
577.776	0.497451
578.115	0.494222
578.454	0.491157
578.794	0.488459
579.133	0.486122
579.472	0.484064
579.811	0.482199
580.150	0.480353
580.489	0.478404
580.828	0.476266
581.167	0.473971
581.505	0.471548
581.844	0.469129
582.183	0.466694
582.522	0.464309
582.860	0.462039
583.199	0.459868
583.538	0.457834
583.876	0.455860
584.215	0.453984
584.553	0.452158
584.891	0.450385
585.230	0.448587
585.568	0.446705
585.906	0.444645
586.245	0.442470
586.583	0.440277
586.921	0.438176
587.259	0.436269
587.597	0.434477
587.935	0.432734
588.273	0.430902
588.611	0.428901
588.949	0.426667
589.287	0.424254
589.625	0.421773
589.963	0.419367
590.300	0.417060
590.638	0.414918
590.976	0.412916
591.313	0.410934
591.651	0.408903
591.989	0.406909
592.326	0.404992
592.664	0.403169
593.001	0.401418
593.338	0.399815
593.676	0.398318
594.013	0.396829
594.350	0.395305
594.687	0.393857
595.025	0.392486
595.362	0.391152
595.699	0.389780
596.036	0.388462
596.373	0.387209
596.710	0.385908
597.047	0.384572
597.384	0.383212
597.720	0.381778
598.057	0.380338
598.394	0.378886
598.731	0.377439
599.067	0.375966
599.404	0.374424
599.741	0.372946
600.077	0.371534
600.414	0.370260
600.750	0.369104
601.087	0.368072
601.423	0.367086
601.759	0.366119
602.096	0.365092
602.432	0.364129
602.768	0.363105
603.104	0.362092
603.440	0.361047
603.776	0.360076
604.112	0.359041
604.448	0.358046
604.784	0.357094
605.120	0.356134
605.456	0.355144
605.792	0.354203
606.128	0.353246
606.463	0.352367
606.799	0.351402
607.135	0.350435
607.470	0.349446
607.806	0.348474
608.142	0.347471
608.477	0.346516
608.812	0.345595
609.148	0.344724
609.483	0.343813
609.819	0.342946
610.154	0.342023
610.489	0.341108
610.824	0.340128
611.159	0.339230
611.494	0.338268
611.830	0.337401
612.165	0.336654
612.500	0.336006
612.834	0.335389
613.169	0.334796
613.504	0.334169
613.839	0.333564
614.174	0.332945
614.509	0.332266
614.843	0.331554
615.178	0.330885
615.512	0.330222
615.847	0.329557
616.182	0.328925
616.516	0.328360
616.850	0.327830
617.185	0.327344
617.519	0.326803
617.853	0.326317
618.188	0.325693
618.522	0.325051
618.856	0.324247
619.190	0.323319
619.524	0.322388
619.858	0.321469
620.192	0.320644
620.526	0.319891
620.860	0.319230
621.194	0.318602
621.528	0.317991
621.862	0.317430
622.195	0.316890
622.529	0.316301
622.863	0.315753
623.196	0.315190
623.530	0.314621
623.864	0.314084
624.197	0.313549
624.530	0.312970
624.864	0.312397
625.197	0.311973
625.531	0.311517
625.864	0.311146
626.197	0.310735
626.530	0.310369
626.863	0.309940
627.196	0.309490
627.529	0.308965
627.862	0.308403
628.195	0.307872
628.528	0.307252
628.861	0.306616
629.194	0.306039
629.527	0.305460
629.860	0.304866
630.192	0.304259
630.525	0.303713
630.858	0.303083
631.190	0.302464
631.523	0.301860
631.855	0.301099
632.188	0.300341
632.520	0.299649
632.852	0.298971
633.185	0.298356
633.517	0.297714
633.849	0.297161
634.182	0.296649
634.514	0.296200
634.846	0.295721
635.178	0.295236
635.510	0.294781
635.842	0.294361
636.174	0.293928
636.506	0.293548
636.837	0.293175
637.169	0.292835
637.501	0.292296
637.833	0.292032
638.164	0.291714
638.496	0.291402
638.828	0.291082
639.159	0.290739
639.491	0.290375
639.822	0.289972
640.154	0.289475
640.485	0.289000
640.816	0.288443
641.147	0.287868
641.479	0.287216
641.810	0.286638
642.141	0.285978
642.472	0.285451
642.803	0.284858
643.134	0.284160
643.465	0.283538
643.796	0.282891
644.127	0.282230
644.458	0.281661
644.789	0.280977
645.119	0.280421
645.450	0.279981
645.781	0.279812
646.111	0.279709
646.442	0.279706
646.773	0.279686
647.103	0.279732
647.433	0.279695
647.764	0.279562
648.094	0.279431
648.425	0.279262
648.755	0.279028
649.085	0.278873
649.415	0.278716
649.745	0.278750
650.075	0.278939
650.405	0.278955
650.735	0.276979
651.065	0.264649
651.395	0.250634
651.725	0.231628
652.055	0.191006
652.385	0.152520
652.715	0.119756
653.044	0.096984
653.374	0.085287
653.704	0.090350
654.033	0.107221
654.363	0.117890
654.692	0.124541
655.022	0.128704
655.351	0.131360
655.680	0.132993
656.010	0.133912
656.339	0.134356
656.668	0.134503
656.997	0.134487
657.326	0.134377
657.655	0.134200
657.984	0.133076
658.313	0.128195
658.642	0.121559
658.971	0.124973
659.300	0.138760
659.629	0.165843
659.958	0.206682
660.286	0.260930
660.615	0.302304
660.944	0.304534
661.272	0.302822
661.601	0.298425
661.929	0.292584
662.258	0.286408
662.586	0.280679
662.915	0.275980
663.243	0.272403
663.571	0.270082
663.899	0.268612
664.228	0.267547
664.556	0.266689
664.884	0.266013
665.212	0.265479
665.540	0.264969
665.868	0.264575
666.196	0.264368
666.524	0.264141
666.852	0.263787
667.179	0.263448
667.507	0.263109
667.835	0.262766
668.162	0.262295
668.490	0.261975
668.818	0.261649
669.145	0.261485
669.473	0.261381
669.800	0.261418
670.127	0.261698
670.455	0.261776
670.782	0.261851
671.109	0.261847
671.436	0.261987
671.764	0.262108
672.091	0.262170
672.418	0.262301
672.745	0.262267
673.072	0.262204
673.399	0.262156
673.726	0.262041
674.053	0.261971
674.379	0.261915
674.706	0.261809
675.033	0.261608
675.359	0.261463
675.686	0.261305
676.013	0.261152
676.339	0.260860
676.666	0.260475
676.992	0.259984
677.318	0.259720
677.645	0.259463
677.971	0.259367
678.297	0.259235
678.624	0.259132
678.950	0.259028
679.276	0.258910
679.602	0.258783
679.928	0.258558
680.254	0.258180
680.580	0.257857
680.906	0.257535
681.232	0.257186
681.558	0.257016
681.883	0.257098
682.209	0.257185
682.535	0.257225
682.860	0.257278
683.186	0.257453
683.511	0.257516
683.837	0.257586
684.162	0.257526
684.488	0.257476
684.813	0.257376
685.138	0.257240
685.464	0.257080
685.789	0.256928
686.114	0.256771
686.439	0.256633
686.764	0.256579
687.089	0.256575
687.414	0.256605
687.739	0.256678
688.064	0.256776
688.389	0.256834
688.714	0.256785
689.039	0.256620
689.363	0.256553
689.688	0.256414
690.013	0.256071
690.337	0.255827
690.662	0.255627
690.986	0.255530
691.311	0.255280
691.635	0.255096
691.959	0.254885
692.284	0.254615
692.608	0.254299
692.932	0.254037
693.256	0.253903
693.580	0.253748
693.904	0.253640
694.228	0.253632
694.552	0.253584
694.876	0.253716
695.200	0.253721
695.524	0.253706
695.848	0.253682
696.172	0.253575
696.495	0.253410
696.819	0.253431
697.143	0.253236
697.466	0.252969
697.790	0.252607
698.113	0.252407
698.437	0.252017
698.760	0.251666
699.083	0.251556
699.407	0.251459
699.730	0.251380
700.053	0.251421
700.376	0.251417
700.699	0.251410
701.022	0.251273
701.345	0.251094
701.668	0.250579
701.991	0.250104
702.314	0.249267
702.637	0.248374
702.960	0.247465
703.283	0.246559
703.605	0.245551
703.928	0.244941
704.251	0.244587
704.573	0.244425
704.896	0.244307
705.218	0.244482
705.540	0.244514
705.863	0.244346
706.185	0.244253
706.507	0.243951
706.830	0.243471
707.152	0.242948
707.474	0.242484
707.796	0.242059
708.118	0.241633
708.440	0.241358
708.762	0.241118
709.084	0.241086
709.406	0.241099
709.728	0.241028
710.049	0.241018
710.371	0.241052
710.693	0.240953
711.014	0.240681
711.336	0.240428
711.658	0.240201
711.979	0.239867
712.301	0.239636
712.622	0.239553
712.943	0.239394
713.265	0.239374
713.586	0.239337
713.907	0.239393
714.228	0.239440
714.549	0.239343
714.870	0.239253
715.191	0.239064
715.512	0.239034
715.833	0.238934
716.154	0.238804
716.475	0.238744
716.796	0.238677
717.117	0.238632
717.437	0.238491
717.758	0.238287
718.078	0.237903
718.399	0.237557
718.719	0.237171
719.040	0.236763
719.360	0.236313
719.681	0.235915
720.001	0.235566
720.321	0.235274
720.642	0.234909
720.962	0.234487
721.282	0.234296
721.602	0.234139
721.922	0.234023
722.242	0.233703
722.562	0.233474
722.882	0.233243
723.202	0.233299
723.521	0.233291
723.841	0.233182
724.161	0.233102
724.481	0.233055
724.800	0.233028
725.120	0.232899
725.439	0.232777
725.759	0.232598
726.078	0.232544
726.398	0.232387
726.717	0.232239
727.036	0.232074
727.355	0.232119
727.675	0.232245
727.994	0.232357
728.313	0.232474
728.632	0.232613
728.951	0.232824
729.270	0.232961
729.589	0.232995
729.908	0.232752
730.226	0.232481
730.545	0.232195
730.864	0.231885
731.182	0.231675
731.501	0.231542
731.820	0.231519
732.138	0.231523
732.457	0.231522
732.775	0.231398
733.093	0.231512
733.412	0.231588
733.730	0.231646
734.048	0.231625
734.367	0.231502
734.685	0.231295
735.003	0.231061
735.321	0.230741
735.639	0.230359
735.957	0.230020
736.275	0.229782
736.593	0.229704
736.910	0.229627
737.228	0.229751
737.546	0.229888
737.863	0.229956
738.181	0.229866
738.499	0.229659
738.816	0.229433
739.134	0.229179
739.451	0.228987
739.768	0.228663
740.086	0.228325
740.403	0.228059
740.720	0.227755
741.038	0.227437
741.355	0.227087
741.672	0.226765
741.989	0.226503
742.306	0.226206
742.623	0.225855
742.940	0.225420
743.257	0.224798
743.573	0.224222
743.890	0.223483
744.207	0.222772
744.523	0.222187
744.840	0.221697
745.157	0.221207
745.473	0.220636
745.790	0.220263
746.106	0.219835
746.422	0.219379
746.739	0.219043
747.055	0.218757
747.371	0.218428
747.687	0.218369
748.004	0.218420
748.320	0.218416
748.636	0.218518
748.952	0.218506
749.268	0.218570
749.584	0.218646
749.899	0.218656
750.215	0.218663
750.531	0.218612
750.847	0.218655
751.162	0.218654
751.478	0.218728
751.793	0.218718
752.109	0.218679
752.424	0.218515
752.740	0.218411
753.055	0.218329
753.370	0.218223
753.686	0.218188
754.001	0.218315
754.316	0.218486
754.631	0.218630
754.946	0.218689
755.261	0.218707
755.576	0.218823
755.891	0.218875
756.206	0.218880
756.521	0.218788
756.836	0.218748
757.150	0.218762
757.465	0.218732
757.780	0.218785
758.094	0.218845
758.409	0.219038
758.723	0.219233
759.038	0.219440
759.352	0.219556
759.667	0.219641
759.981	0.219622
760.295	0.219425
760.609	0.219166
760.923	0.218870
761.238	0.218427
761.552	0.218216
761.866	0.217978
762.180	0.217882
762.493	0.217903
762.807	0.217926
763.121	0.218029
763.435	0.218034
763.749	0.217918
764.062	0.217764
764.376	0.217448
764.689	0.216916
765.003	0.216364
765.316	0.215941
765.630	0.215702
765.943	0.215453
766.257	0.215254
766.570	0.215104
766.883	0.215061
767.196	0.214944
767.509	0.214730
767.822	0.214652
768.135	0.214382
768.448	0.214113
768.761	0.213742
769.074	0.213282
769.387	0.212829
769.700	0.212452
770.013	0.212124
770.325	0.211875
770.638	0.211761
770.950	0.211629
771.263	0.211672
771.575	0.211626
771.888	0.211457
772.200	0.211183
772.513	0.210864
772.825	0.210511
773.137	0.210216
773.449	0.209889
773.761	0.209523
774.074	0.209096
774.386	0.208717
774.698	0.208319
775.010	0.207887
775.321	0.207342
775.633	0.206812
775.945	0.206477
776.257	0.206091
776.568	0.205886
776.880	0.205748
777.192	0.205499
777.503	0.205324
777.815	0.205150
778.126	0.205021
778.438	0.204925
778.749	0.205022
779.060	0.205183
779.372	0.205300
779.683	0.205385
779.994	0.205449
780.305	0.205585
780.616	0.205754
780.927	0.205807
781.238	0.205866
781.549	0.205949
781.860	0.205988
782.171	0.206075
782.481	0.206066
782.792	0.206121
783.103	0.206045
783.413	0.205939
783.724	0.205658
784.034	0.205562
784.345	0.205420
784.655	0.205210
784.966	0.204999
785.276	0.204725
785.586	0.204543
785.896	0.204334
786.207	0.204117
786.517	0.204020
786.827	0.203998
787.137	0.203878
787.447	0.203778
787.757	0.203782
788.066	0.203744
788.376	0.203743
788.686	0.203649
788.996	0.203608
789.305	0.203491
789.615	0.203397
789.925	0.203229
790.234	0.203257
790.544	0.203120
790.853	0.203040
791.162	0.203062
791.472	0.203195
791.781	0.203290
792.090	0.203393
792.399	0.203468
792.708	0.203523
793.017	0.203466
793.326	0.203268
793.635	0.203127
793.944	0.202922
794.253	0.202593
794.562	0.202294
794.871	0.202085
795.179	0.201922
795.488	0.201759
795.797	0.201626
796.105	0.201550
796.414	0.201528
796.722	0.201552
797.031	0.201514
797.339	0.201350
797.647	0.201045
797.956	0.200640
798.264	0.200025
798.572	0.199324
798.880	0.198796
799.188	0.198232
799.496	0.197718
799.804	0.197319
800.112	0.196990
800.420	0.196755
800.728	0.196580
801.035	0.196451
801.343	0.196089
801.651	0.195521
801.958	0.194968
802.266	0.194606
802.573	0.194540
802.881	0.194568
803.188	0.194154
803.496	0.194042
803.803	0.194281
804.110	0.194465
804.417	0.194427
804.724	0.194433
805.032	0.194521
805.339	0.194394
805.646	0.194280
805.953	0.194126
806.259	0.193982
806.566	0.193746
806.873	0.193726
807.180	0.193659
807.486	0.193698
807.793	0.193725
808.100	0.193861
808.406	0.193945
808.713	0.194018
809.019	0.193561
809.326	0.193085
809.632	0.192817
809.938	0.192156
810.244	0.191356
810.551	0.190721
810.857	0.190170
811.163	0.189797
811.469	0.189363
811.775	0.189106
812.081	0.189009
812.387	0.188904
812.692	0.188790
812.998	0.188628
813.304	0.188242
813.610	0.188253
813.915	0.188008
814.221	0.187848
814.526	0.187772
814.832	0.187719
815.137	0.187515
815.443	0.187525
815.748	0.187482
816.053	0.187438
816.358	0.187322
816.664	0.187264
816.969	0.187039
817.274	0.187173
817.579	0.186939
817.884	0.186673
818.189	0.186443
818.493	0.186314
818.798	0.186434
819.103	0.186317
819.408	0.186132
819.712	0.186177
820.017	0.185784
820.321	0.185355
820.626	0.185230
820.930	0.184739
821.235	0.184379
821.539	0.183813
821.843	0.183513
822.148	0.183191
822.452	0.183118
822.756	0.183147
823.060	0.183079
823.364	0.183275
823.668	0.183103
823.972	0.183071
824.276	0.183007
824.580	0.182808
824.883	0.182643
825.187	0.182265
825.491	0.182116
825.795	0.181947
826.098	0.181718
826.402	0.181547
826.705	0.181618
827.008	0.181313
827.312	0.181365
827.615	0.181247
827.918	0.181009
828.222	0.180772
828.525	0.180420
828.828	0.180084
829.131	0.179995
829.434	0.179498
829.737	0.178659
830.040	0.177634
830.343	0.176913
830.645	0.176303
830.948	0.175853
831.251	0.174948
831.553	0.174081
831.856	0.173355
832.159	0.173429
832.461	0.173392
832.764	0.173343
833.066	0.172930
833.368	0.172819
833.671	0.172455
833.973	0.172225
834.275	0.172370
834.577	0.172201
834.879	0.172126
835.181	0.171744
835.483	0.171448
835.785	0.171223
836.087	0.170950
836.389	0.170891
836.690	0.169871
836.992	0.168900
837.294	0.168021
837.595	0.167259
837.897	0.166556
838.198	0.165646
838.500	0.164072
838.801	0.162549
839.103	0.161194
839.404	0.160329
839.705	0.159164
840.006	0.158136
840.307	0.157801
840.608	0.157560
840.910	0.157025
841.210	0.156448
841.511	0.156315
841.812	0.155958
842.113	0.155809
842.414	0.155042
842.715	0.153975
843.015	0.153613
843.316	0.153156
843.616	0.152291
843.917	0.151394
844.217	0.151050
844.518	0.150836
844.818	0.150914
845.118	0.151009
845.419	0.151138
845.719	0.151090
846.019	0.150365
846.319	0.150976
846.619	0.149950
846.919	0.149814
847.219	0.149556
847.519	0.149582
847.819	0.149810
848.118	0.149043
848.418	0.148608
848.718	0.148200
849.017	0.148354
849.317	0.148451
849.616	0.148512
849.916	0.149669
850.215	0.150602
850.515	0.151183
850.814	0.151748
851.113	0.152479
851.412	0.153433
851.712	0.154132
852.011	0.154444
852.310	0.155640
852.609	0.155934
852.908	0.156550
853.206	0.156654
853.505	0.157222
853.804	0.157458
854.103	0.157694
854.401	0.157877
854.700	0.157993
854.999	0.158183
855.297	0.158492
855.595	0.158990
855.894	0.159708
856.192	0.159833
856.491	0.159644
856.789	0.159762
857.087	0.159508
857.385	0.158906
857.683	0.157958
857.981	0.156953
858.279	0.156191
858.577	0.154396
858.875	0.153283
859.173	0.151958
859.471	0.150955
859.768	0.149927
860.066	0.148794
860.363	0.147277
860.661	0.146799
860.959	0.146444
861.256	0.146388
861.553	0.146160
861.851	0.145323
862.148	0.143413
862.445	0.142253
862.742	0.141968
863.039	0.140209
863.337	0.139509
863.634	0.138397
863.931	0.137442
864.227	0.136719
864.524	0.136132
864.821	0.137248
865.118	0.136553
865.415	0.136406
865.711	0.136073
866.008	0.134934
866.304	0.135144
866.601	0.135520
866.897	0.134529
867.194	0.134371
867.490	0.133461
867.786	0.132463
868.082	0.132082
868.379	0.132903
868.675	0.133556
868.971	0.133286
869.267	0.133522
869.563	0.134162
869.859	0.134555
870.154	0.134304
870.450	0.135110
870.746	0.134889
871.042	0.134244
871.337	0.134503
871.633	0.134192
871.928	0.134333
872.224	0.133986
872.519	0.132970
872.815	0.132696
873.110	0.132655
873.405	0.131723
873.700	0.131787
873.995	0.131226
874.291	0.131350
874.586	0.130783
874.881	0.129974
875.175	0.129834
875.470	0.129960
875.765	0.129323
876.060	0.129229
876.355	0.130132
876.649	0.129366
876.944	0.129736
877.238	0.129867
877.533	0.130217
877.827	0.131547
878.122	0.132246
878.416	0.133216
878.710	0.134163
879.005	0.134244
879.299	0.134177
879.593	0.134452
879.887	0.134163
880.181	0.134309
880.475	0.134055
880.769	0.134099
881.063	0.133703
881.356	0.133913
881.650	0.133340
881.944	0.132987
882.238	0.124401
882.531	0.138986
882.825	0.119260
883.118	0.114322
883.412	0.125767
883.705	0.126535
883.998	0.119697
884.291	0.133311
884.585	0.111628
884.878	0.119110
>>>>>>>>>> END of Data <<<<<<<<<<
>>>>>>>>>> Raw Data Start <<<<<<<<
190.664	-394
191.040	9
191.415	9
191.791	8
192.166	14
192.542	12
192.917	6
193.293	10
193.668	7
194.044	8
194.419	-8
194.794	12
195.170	12
195.545	12
195.920	12
196.296	12
196.671	13
197.046	14
197.421	14
197.796	14
198.171	15
198.546	15
198.922	16
199.297	16
199.672	16
200.047	16
200.422	17
200.796	16
201.171	17
201.546	17
201.921	17
202.296	17
202.671	17
203.045	17
203.420	17
203.795	17
204.170	17
204.544	17
204.919	17
205.294	17
205.668	17
206.043	17
206.417	16
206.792	16
207.166	16
207.541	16
207.915	16
208.289	16
208.664	16
209.038	16
209.412	16
209.787	16
210.161	16
210.535	16
210.909	17
211.284	16
211.658	16
212.032	16
212.406	16
212.780	16
213.154	15
213.528	16
213.902	16
214.276	16
214.650	16
215.024	16
215.398	16
215.772	16
216.145	16
216.519	15
216.893	15
217.267	15
217.640	15
218.014	16
218.388	16
218.761	16
219.135	16
219.508	16
219.882	16
220.256	16
220.629	16
221.003	16
221.376	16
221.749	16
222.123	16
222.496	16
222.869	16
223.243	16
223.616	16
223.989	16
224.362	17
224.736	17
225.109	17
225.482	17
225.855	17
226.228	17
226.601	17
226.974	17
227.347	17
227.720	17
228.093	16
228.466	16
228.839	16
229.212	17
229.585	16
229.957	17
230.330	17
230.703	17
231.076	17
231.448	17
231.821	17
232.194	17
232.566	17
232.939	17
233.311	16
233.684	17
234.056	16
234.429	16
234.801	16
235.174	16
235.546	17
235.918	17
236.291	17
236.663	17
237.035	17
237.408	17
237.780	17
238.152	17
238.524	17
238.896	17
239.268	17
239.641	18
240.013	18
240.385	17
240.757	18
241.129	18
241.500	18
241.872	18
242.244	18
242.616	18
242.988	18
243.360	18
243.731	17
244.103	18
244.475	17
244.847	18
245.218	17
245.590	17
245.961	17
246.333	17
246.705	17
247.076	17
247.448	17
247.819	17
248.190	17
248.562	17
248.933	17
249.305	17
249.676	17
250.047	17
250.418	17
250.790	17
251.161	17
251.532	17
251.903	17
252.274	17
252.645	17
253.016	17
253.387	17
253.758	17
254.129	17
254.500	17
254.871	17
255.242	17
255.613	18
255.984	18
256.355	17
256.725	17
257.096	17
257.467	17
257.838	17
258.208	17
258.579	17
258.949	17
259.320	17
259.690	17
260.061	17
260.431	18
260.802	18
261.172	18
261.543	18
261.913	17
262.283	18
262.654	18
263.024	18
263.394	17
263.764	17
264.135	18
264.505	18
264.875	18
265.245	18
265.615	18
265.985	18
266.355	18
266.725	18
267.095	18
267.465	18
267.835	18
268.205	18
268.575	18
268.944	18
269.314	17
269.684	17
270.054	17
270.423	17
270.793	17
271.163	17
271.532	17
271.902	18
272.271	17
272.641	17
273.010	17
273.380	17
273.749	18
274.119	18
274.488	18
274.857	18
275.227	19
275.596	19
275.965	19
276.335	19
276.704	19
277.073	19
277.442	19
277.811	19
278.180	19
278.549	19
278.918	19
279.287	19
279.656	19
280.025	19
280.394	19
280.763	20
281.132	20
281.501	20
281.869	19
282.238	19
282.607	19
282.976	19
283.344	19
283.713	19
284.081	19
284.450	18
284.819	19
285.187	18
285.556	18
285.924	19
286.292	19
286.661	19
287.029	18
287.398	19
287.766	19
288.134	19
288.502	19
288.871	19
289.239	19
289.607	19
289.975	19
290.343	19
290.711	19
291.079	19
291.447	19
291.815	19
292.183	19
292.551	19
292.919	19
293.287	19
293.655	19
294.022	19
294.390	19
294.758	19
295.126	18
295.493	18
295.861	18
296.229	18
296.596	18
296.964	18
297.331	18
297.699	18
298.066	18
298.434	18
298.801	18
299.168	18
299.536	18
299.903	18
300.270	18
300.638	18
301.005	18
301.372	18
301.739	19
302.106	19
302.473	20
302.840	20
303.207	19
303.574	20
303.941	19
304.308	20
304.675	20
305.042	20
305.409	20
305.776	20
306.143	20
306.509	20
306.876	20
307.243	20
307.610	20
307.976	20
308.343	20
308.709	21
309.076	21
309.442	20
309.809	20
310.175	20
310.542	20
310.908	21
311.275	21
311.641	22
312.007	22
312.373	22
312.740	22
313.106	23
313.472	22
313.838	23
314.204	23
314.570	24
314.936	24
315.302	24
315.668	25
316.034	25
316.400	26
316.766	26
317.132	26
317.498	26
317.864	27
318.230	27
318.595	27
318.961	28
319.327	28
319.692	29
320.058	30
320.424	30
320.789	31
321.155	32
321.520	33
321.886	33
322.251	34
322.616	35
322.982	36
323.347	37
323.712	38
324.078	39
324.443	40
324.808	42
325.173	43
325.539	44
325.904	45
326.269	46
326.634	48
326.999	49
327.364	50
327.729	52
328.094	52
328.459	53
328.823	55
329.188	56
329.553	58
329.918	59
330.283	60
330.647	61
331.012	62
331.377	64
331.741	66
332.106	67
332.470	68
332.835	70
333.199	71
333.564	72
333.928	74
334.293	75
334.657	77
335.021	78
335.386	80
335.750	82
336.114	83
336.478	85
336.843	87
337.207	88
337.571	89
337.935	91
338.299	93
338.663	95
339.027	96
339.391	98
339.755	99
340.119	101
340.483	103
340.846	104
341.210	106
341.574	108
341.938	109
342.301	111
342.665	112
343.029	114
343.392	115
343.756	117
344.119	118
344.483	120
344.846	121
345.210	123
345.573	125
345.937	126
346.300	127
346.663	129
347.027	130
347.390	132
347.753	133
348.116	134
348.479	135
348.843	137
349.206	138
349.569	140
349.932	141
350.295	142
350.658	143
351.021	145
351.383	146
351.746	147
352.109	148
352.472	149
352.835	150
353.197	151
353.560	152
353.923	153
354.285	154
354.648	155
355.011	156
355.373	157
355.736	158
356.098	159
356.461	160
356.823	161
357.185	162
357.548	163
357.910	163
358.272	164
358.635	165
358.997	166
359.359	167
359.721	168
360.083	168
360.445	169
360.807	170
361.169	171
361.531	172
361.893	173
362.255	173
362.617	174
362.979	175
363.341	176
363.703	177
364.064	178
364.426	178
364.788	179
365.149	180
365.511	181
365.873	181
366.234	182
366.596	182
366.957	183
367.319	183
367.680	184
368.042	184
368.403	184
368.764	184
369.126	185
369.487	185
369.848	185
370.209	185
370.570	185
370.931	185
371.293	185
371.654	185
372.015	185
372.376	185
372.737	185
373.098	185
373.458	185
373.819	185
374.180	185
374.541	186
374.902	186
375.263	186
375.623	187
375.984	187
376.345	188
376.705	188
377.066	189
377.426	189
377.787	190
378.147	190
378.508	190
378.868	191
379.228	191
379.589	192
379.949	192
380.309	192
380.670	192
381.030	193
381.390	193
381.750	193
382.110	194
382.470	194
382.830	194
383.190	194
383.550	194
383.910	194
384.270	194
384.630	195
384.990	195
385.350	195
385.709	196
386.069	196
386.429	196
386.788	196
387.148	196
387.508	196
387.867	196
388.227	197
388.586	197
388.946	198
389.305	199
389.665	200
390.024	200
390.383	201
390.743	202
391.102	202
391.461	202
391.820	202
392.179	203
392.539	203
392.898	202
393.257	203
393.616	203
393.975	204
394.334	205
394.693	206
395.051	207
395.410	208
395.769	208
396.128	209
396.487	209
396.845	209
397.204	209
397.563	209
397.921	208
398.280	208
398.638	208
398.997	208
399.355	208
399.714	208
400.072	208
400.431	209
400.789	209
401.147	209
401.506	209
401.864	209
402.222	209
402.580	209
402.938	208
403.297	208
403.655	207
404.013	206
404.371	206
404.729	205
405.087	205
405.444	205
405.802	205
406.160	205
406.518	205
406.876	205
407.233	205
407.591	205
407.949	204
408.306	204
408.664	204
409.022	203
409.379	203
409.737	203
410.094	203
410.451	204
410.809	204
411.166	204
411.523	205
411.881	205
412.238	205
412.595	205
412.952	205
413.310	205
413.667	205
414.024	205
414.381	204
414.738	204
415.095	204
415.452	205
415.809	205
416.165	205
416.522	205
416.879	205
417.236	205
417.593	206
417.949	207
418.306	208
418.663	209
419.019	211
419.376	212
419.732	214
420.089	215
420.445	216
420.802	217
421.158	218
421.514	220
421.871	221
422.227	222
422.583	222
422.939	223
423.295	223
423.652	224
424.008	225
424.364	225
424.720	224
425.076	224
425.432	224
425.788	224
426.143	224
426.499	224
426.855	225
427.211	225
427.567	225
427.922	225
428.278	226
428.634	226
428.989	226
429.345	226
429.700	226
430.056	226
430.411	226
430.767	227
431.122	227
431.478	228
431.833	228
432.188	228
432.543	228
432.899	228
433.254	228
433.609	228
433.964	227
434.319	226
434.674	226
435.029	225
435.384	225
435.739	225
436.094	225
436.449	226
436.804	227
437.158	228
437.513	229
437.868	231
438.223	233
438.577	235
438.932	237
439.287	239
439.641	242
439.996	244
440.350	246
440.704	248
441.059	251
441.413	253
441.768	256
442.122	258
442.476	260
442.830	262
443.185	264
443.539	266
443.893	268
444.247	270
444.601	271
444.955	272
445.309	272
445.663	272
446.017	272
446.371	272
446.724	272
447.078	272
447.432	271
447.786	271
448.139	271
448.493	270
448.847	269
449.200	268
449.554	267
449.907	266
450.261	266
450.614	265
450.968	265
451.321	264
451.674	264
452.027	263
452.381	263
452.734	263
453.087	263
453.440	263
453.793	264
454.146	265
454.499	266
454.852	268
455.205	270
455.558	272
455.911	274
456.264	276
456.617	278
456.970	280
457.322	282
457.675	284
458.028	285
458.380	286
458.733	287
459.086	288
459.438	290
459.791	292
460.143	294
460.496	297
460.848	300
461.200	303
461.553	307
461.905	310
462.257	313
462.609	316
462.961	318
463.314	320
463.666	323
464.018	325
464.370	326
464.722	328
465.074	330
465.426	332
465.777	334
466.129	336
466.481	337
466.833	338
467.184	338
467.536	338
467.888	338
468.239	337
468.591	337
468.943	336
469.294	336
469.646	337
469.997	338
470.348	340
470.700	343
471.051	346
471.402	350
471.754	354
472.105	359
472.456	364
472.807	370
473.158	376
473.509	383
473.860	390
474.211	398
474.562	406
474.913	414
475.264	424
475.615	433
475.966	441
476.316	450
476.667	458
477.018	467
477.368	476
477.719	485
478.070	494
478.420	502
478.771	510
479.121	519
479.472	527
479.822	535
480.172	544
480.523	555
480.873	569
481.223	594
481.573	629
481.924	675
482.274	725
482.624	778
482.974	831
483.324	876
483.674	911
484.024	934
484.374	950
484.724	960
485.073	967
485.423	974
485.773	980
486.123	986
486.472	992
486.822	997
487.172	1002
487.521	1005
487.871	1007
488.220	1005
488.570	993
488.919	969
489.268	935
489.618	896
489.967	854
490.316	813
490.666	776
491.015	751
491.364	737
491.713	731
492.062	730
492.411	731
492.760	734
493.109	737
493.458	741
493.807	744
494.156	746
494.505	749
494.853	752
495.202	756
495.551	761
495.900	766
496.248	771
496.597	777
496.945	782
497.294	786
497.642	791
497.991	798
498.339	805
498.688	812
499.036	819
499.384	825
499.732	831
500.081	836
500.429	840
500.777	844
501.125	848
501.473	852
501.821	856
502.169	860
502.517	864
502.865	866
503.213	868
503.561	869
503.908	870
504.256	871
504.604	872
504.952	872
505.299	872
505.647	871
505.994	869
506.342	868
506.689	866
507.037	864
507.384	864
507.732	863
508.079	863
508.426	864
508.774	864
509.121	864
509.468	863
509.815	862
510.162	862
510.509	861
510.856	860
511.203	859
511.550	858
511.897	858
512.244	857
512.591	856
512.938	855
513.284	854
513.631	853
513.978	851
514.324	850
514.671	848
515.018	846
515.364	844
515.711	843
516.057	841
516.403	840
516.750	838
517.096	836
517.443	833
517.789	830
518.135	828
518.481	826
518.827	824
519.173	822
519.519	820
519.865	818
520.211	816
520.557	815
520.903	814
521.249	813
521.595	813
521.941	812
522.287	811
522.632	811
522.978	810
523.324	810
523.669	810
524.015	811
524.360	813
524.706	816
525.051	820
525.397	824
525.742	829
526.087	834
526.433	839
526.778	843
527.123	846
527.468	849
527.813	851
528.158	853
528.504	857
528.849	861
529.193	867
529.538	874
529.883	883
530.228	893
530.573	904
530.918	916
531.263	927
531.607	937
531.952	947
532.296	955
532.641	961
532.986	966
533.330	972
533.675	976
534.019	983
534.363	993
534.708	1004
535.052	1016
535.396	1029
535.741	1041
536.085	1052
536.429	1062
536.773	1071
537.117	1077
537.461	1083
537.805	1088
538.149	1094
538.493	1101
538.837	1108
539.181	1116
539.524	1127
539.868	1139
540.212	1152
540.556	1166
540.899	1182
541.243	1195
541.586	1206
541.930	1215
542.273	1221
542.617	1227
542.960	1233
543.304	1241
543.647	1251
543.990	1264
544.333	1279
544.677	1293
545.020	1307
545.363	1319
545.706	1328
546.049	1335
546.392	1340
546.735	1342
547.078	1344
547.421	1346
547.764	1349
548.106	1353
548.449	1360
548.792	1368
549.135	1379
549.477	1392
549.820	1405
550.162	1416
550.505	1426
550.847	1433
551.190	1438
551.532	1444
551.875	1450
552.217	1456
552.559	1464
552.901	1474
553.244	1486
553.586	1499
553.928	1512
554.270	1524
554.612	1535
554.954	1544
555.296	1551
555.638	1559
555.980	1568
556.322	1578
556.663	1592
557.005	1610
557.347	1631
557.689	1653
558.030	1676
558.372	1697
558.713	1716
559.055	1735
559.396	1753
559.738	1773
560.079	1795
560.421	1819
560.762	1846
561.103	1876
561.444	1909
561.786	1942
562.127	1978
562.468	2017
562.809	2059
563.150	2106
563.491	2156
563.832	2212
564.173	2276
564.514	2349
564.855	2437
565.195	2543
565.536	2670
565.877	2816
566.218	2982
566.558	3168
566.899	3373
567.239	3594
567.580	3826
567.920	4065
568.261	4305
568.601	4553
568.941	4809
569.282	5073
569.622	5349
569.962	5637
570.302	5945
570.643	6264
570.983	6587
571.323	6898
571.663	7200
572.003	7487
572.343	7758
572.683	8015
573.022	8279
573.362	8560
573.702	8852
574.042	9147
574.381	9429
574.721	9699
575.061	9958
575.400	10195
575.740	10408
576.079	10600
576.419	10793
576.758	11012
577.097	11270
577.437	11553
577.776	11856
578.115	12172
578.454	12491
578.794	12783
579.133	13011
579.472	13172
579.811	13270
580.150	13312
580.489	13314
580.828	13300
581.167	13290
581.505	13296
581.844	13306
582.183	13317
582.522	13337
582.860	13363
583.199	13387
583.538	13391
583.876	13352
584.215	13255
584.553	13093
584.891	12871
585.230	12595
585.568	12289
585.906	11979
586.245	11704
586.583	11471
586.921	11282
587.259	11110
587.597	10935
587.935	10750
588.273	10559
588.611	10382
588.949	10230
589.287	10109
589.625	10019
589.963	9952
590.300	9902
590.638	9857
590.976	9800
591.313	9730
591.651	9664
591.989	9609
592.326	9567
592.664	9533
593.001	9507
593.338	9496
593.676	9497
594.013	9516
594.350	9566
594.687	9640
595.025	9721
595.362	9795
595.699	9851
596.036	9890
596.373	9906
596.710	9896
597.047	9870
597.384	9836
597.720	9798
598.057	9770
598.394	9753
598.731	9749
599.067	9762
599.404	9794
599.741	9847
600.077	9917
600.414	9992
600.750	10069
601.087	10128
601.423	10160
601.759	10168
602.096	10159
602.432	10136
602.768	10099
603.104	10044
603.440	9974
603.776	9899
604.112	9818
604.448	9735
604.784	9646
605.120	9552
605.456	9461
605.792	9365
606.128	9263
606.463	9158
606.799	9052
607.135	8956
607.470	8861
607.806	8767
608.142	8676
608.477	8588
608.812	8502
609.148	8416
609.483	8325
609.819	8231
610.154	8141
610.489	8060
610.824	7990
611.159	7931
611.494	7873
611.830	7822
612.165	7770
612.500	7711
612.834	7640
613.169	7559
613.504	7469
613.839	7368
614.174	7253
614.509	7139
614.843	7025
615.178	6916
615.512	6809
615.847	6704
616.182	6600
616.516	6493
616.850	6380
617.185	6262
617.519	6142
617.853	6013
618.188	5879
618.522	5756
618.856	5654
619.190	5567
619.524	5492
619.858	5432
620.192	5386
620.526	5345
620.860	5304
621.194	5264
621.528	5224
621.862	5184
622.195	5135
622.529	5082
622.863	5027
623.196	4972
623.530	4917
623.864	4861
624.197	4805
624.530	4751
624.864	4703
625.197	4651
625.531	4592
625.864	4520
626.197	4444
626.530	4360
626.863	4266
627.196	4164
627.529	4062
627.862	3961
628.195	3861
628.528	3762
628.861	3668
629.194	3583
629.527	3502
629.860	3423
630.192	3344
630.525	3270
630.858	3201
631.190	3136
631.523	3073
631.855	3015
632.188	2964
632.520	2917
632.852	2872
633.185	2827
633.517	2782
633.849	2742
634.182	2706
634.514	2671
634.846	2640
635.178	2612
635.510	2588
635.842	2566
636.174	2544
636.506	2523
636.837	2501
637.169	2480
637.501	2458
637.833	2433
638.164	2404
638.496	2373
638.828	2337
639.159	2297
639.491	2253
639.822	2208
640.154	2163
640.485	2118
640.816	2074
641.147	2030
641.479	1988
641.810	1947
642.141	1908
642.472	1869
642.803	1830
643.134	1795
643.465	1764
643.796	1739
644.127	1722
644.458	1714
644.789	1715
645.119	1726
645.450	1743
645.781	1762
646.111	1781
646.442	1797
646.773	1809
647.103	1818
647.433	1827
647.764	1836
648.094	1848
648.425	1863
648.755	1882
649.085	1903
649.415	1925
649.745	1948
650.075	1970
650.405	1996
650.735	2056
651.065	2489
651.395	3838
651.725	6090
652.055	8965
652.385	12279
652.715	15918
653.044	19597
653.374	23037
653.704	25648
654.033	27445
654.363	28650
654.692	29427
655.022	29924
655.351	30245
655.680	30441
656.010	30545
656.339	30589
656.668	30598
656.997	30589
657.326	30565
657.655	30499
657.984	30051
658.313	28682
658.642	26402
658.971	23493
659.300	20141
659.629	16464
659.958	12749
660.286	9277
660.615	6639
660.944	4821
661.272	3599
661.601	2804
661.929	2288
662.258	1944
662.586	1721
662.915	1585
663.243	1507
663.571	1463
663.899	1436
664.228	1418
664.556	1407
664.884	1400
665.212	1394
665.540	1391
665.868	1389
666.196	1389
666.524	1388
666.852	1390
667.179	1396
667.507	1407
667.835	1424
668.162	1446
668.490	1472
668.818	1504
669.145	1536
669.473	1568
669.800	1598
670.127	1623
670.455	1645
670.782	1663
671.109	1679
671.436	1692
671.764	1702
672.091	1711
672.418	1718
672.745	1725
673.072	1731
673.399	1739
673.726	1747
674.053	1754
674.379	1756
674.706	1755
675.033	1754
675.359	1752
675.686	1748
676.013	1746
676.339	1748
676.666	1754
676.992	1768
677.318	1787
677.645	1808
677.971	1827
678.297	1845
678.624	1862
678.950	1878
679.276	1893
679.602	1908
679.928	1923
680.254	1943
680.580	1968
680.906	2000
681.232	2039
681.558	2080
681.883	2120
682.209	2156
682.535	2190
682.860	2221
683.186	2247
683.511	2267
683.837	2279
684.162	2289
684.488	2297
684.813	2306
685.138	2314
685.464	2320
685.789	2327
686.114	2332
686.439	2341
686.764	2349
687.089	2355
687.414	2355
687.739	2347
688.064	2332
688.389	2313
688.714	2292
689.039	2268
689.363	2244
689.688	2217
690.013	2192
690.337	2169
690.662	2151
690.986	2134
691.311	2118
691.635	2101
691.959	2085
692.284	2075
692.608	2073
692.932	2077
693.256	2084
693.580	2093
693.904	2105
694.228	2118
694.552	2131
694.876	2136
695.200	2134
695.524	2124
695.848	2110
696.172	2092
696.495	2074
696.819	2054
697.143	2034
697.466	2015
697.790	1998
698.113	1986
698.437	1981
698.760	1980
699.083	1979
699.407	1974
699.730	1963
700.053	1947
700.376	1924
700.699	1892
701.022	1852
701.345	1808
701.668	1768
701.991	1735
702.314	1713
702.637	1703
702.960	1709
703.283	1729
703.605	1762
703.928	1806
704.251	1855
704.573	1904
704.896	1947
705.218	1981
705.540	2009
705.863	2031
706.185	2048
706.507	2063
706.830	2078
707.152	2094
707.474	2111
707.796	2130
708.118	2150
708.440	2170
708.762	2186
709.084	2199
709.406	2206
709.728	2207
710.049	2202
710.371	2191
710.693	2176
711.014	2159
711.336	2143
711.658	2129
711.979	2117
712.301	2106
712.622	2093
712.943	2078
713.265	2060
713.586	2041
713.907	2023
714.228	2007
714.549	1995
714.870	1987
715.191	1984
715.512	1983
715.833	1981
716.154	1976
716.475	1967
716.796	1954
717.117	1934
717.437	1912
717.758	1887
718.078	1862
718.399	1838
718.719	1817
719.040	1798
719.360	1784
719.681	1774
720.001	1768
720.321	1765
720.642	1764
720.962	1766
721.282	1770
721.602	1776
721.922	1782
722.242	1791
722.562	1803
722.882	1817
723.202	1829
723.521	1840
723.841	1853
724.161	1865
724.481	1878
724.800	1891
725.120	1908
725.439	1928
725.759	1951
726.078	1977
726.398	2009
726.717	2048
727.036	2093
727.355	2139
727.675	2184
727.994	2227
728.313	2268
728.632	2303
728.951	2332
729.270	2356
729.589	2379
729.908	2409
730.226	2442
730.545	2479
730.864	2519
731.182	2562
731.501	2605
731.820	2646
732.138	2681
732.457	2712
732.775	2740
733.093	2762
733.412	2775
733.730	2777
734.048	2770
734.367	2757
734.685	2739
735.003	2719
735.321	2702
735.639	2689
735.957	2679
736.275	2669
736.593	2654
736.910	2631
737.228	2599
737.546	2557
737.863	2509
738.181	2457
738.499	2402
738.816	2348
739.134	2296
739.451	2242
739.768	2189
740.086	2138
740.403	2089
740.720	2045
741.038	2004
741.355	1964
741.672	1924
741.989	1882
742.306	1840
742.623	1796
742.940	1753
743.257	1714
743.573	1680
743.890	1653
744.207	1632
744.523	1618
744.840	1609
745.157	1604
745.473	1604
745.790	1610
746.106	1622
746.422	1642
746.739	1666
747.055	1694
747.371	1727
747.687	1761
748.004	1792
748.320	1821
748.636	1845
748.952	1870
749.268	1895
749.584	1919
749.899	1941
750.215	1964
750.531	1989
750.847	2017
751.162	2046
751.478	2073
751.793	2102
752.109	2132
752.424	2166
752.740	2200
753.055	2238
753.370	2285
753.686	2339
754.001	2396
754.316	2457
754.631	2520
754.946	2589
755.261	2660
755.576	2729
755.891	2795
756.206	2861
756.521	2930
756.836	3001
757.150	3069
757.465	3129
757.780	3180
758.094	3223
758.409	3255
758.723	3276
759.038	3283
759.352	3283
759.667	3272
759.981	3255
760.295	3239
760.609	3227
760.923	3219
761.238	3216
761.552	3213
761.866	3209
762.180	3202
762.493	3184
762.807	3150
763.121	3098
763.435	3033
763.749	2963
764.062	2896
764.376	2842
764.689	2806
765.003	2787
765.316	2786
765.630	2796
765.943	2813
766.257	2832
766.570	2848
766.883	2852
767.196	2844
767.509	2825
767.822	2797
768.135	2762
768.448	2724
768.761	2684
769.074	2651
769.387	2626
769.700	2610
770.013	2601
770.325	2593
770.638	2582
770.950	2560
771.263	2525
771.575	2476
771.888	2414
772.200	2343
772.513	2266
772.825	2185
773.137	2102
773.449	2021
773.761	1942
774.074	1870
774.386	1805
774.698	1751
775.010	1707
775.321	1676
775.633	1655
775.945	1644
776.257	1638
776.568	1636
776.880	1641
777.192	1654
777.503	1672
777.815	1695
778.126	1725
778.438	1760
778.749	1798
779.060	1834
779.372	1869
779.683	1902
779.994	1932
780.305	1955
780.616	1971
780.927	1981
781.238	1984
781.549	1980
781.860	1967
782.171	1949
782.481	1929
782.792	1909
783.103	1889
783.413	1867
783.724	1845
784.034	1823
784.345	1802
784.655	1784
784.966	1765
785.276	1745
785.586	1726
785.896	1707
786.207	1687
786.517	1665
786.827	1644
787.137	1624
787.447	1604
787.757	1585
788.066	1568
788.376	1550
788.686	1533
788.996	1516
789.305	1499
789.615	1485
789.925	1478
790.234	1476
790.544	1480
790.853	1488
791.162	1495
791.472	1502
791.781	1505
792.090	1502
792.399	1492
792.708	1478
793.017	1462
793.326	1447
793.635	1432
793.944	1419
794.253	1408
794.562	1401
794.871	1396
795.179	1392
795.488	1388
795.797	1380
796.105	1368
796.414	1347
796.722	1319
797.031	1284
797.339	1241
797.647	1193
797.956	1143
798.264	1097
798.572	1059
798.880	1030
799.188	1009
799.496	993
799.804	981
800.112	973
800.420	965
800.728	958
801.035	948
801.343	937
801.651	928
801.958	926
802.266	930
802.573	938
802.881	948
803.188	962
803.496	976
803.803	990
804.110	1002
804.417	1014
804.724	1024
805.032	1033
805.339	1041
805.646	1046
805.953	1049
806.259	1050
806.566	1049
806.873	1045
807.180	1039
807.486	1034
807.793	1027
808.100	1017
808.406	1000
808.713	976
809.019	950
809.326	924
809.632	898
809.938	874
810.244	853
810.551	835
810.857	819
811.163	806
811.469	792
811.775	777
812.081	761
812.387	747
812.692	735
812.998	727
813.304	720
813.610	715
813.915	710
814.221	707
814.526	703
814.832	701
815.137	698
815.443	694
815.748	687
816.053	677
816.358	668
816.664	660
816.969	652
817.274	645
817.579	640
817.884	637
818.189	636
818.493	636
818.798	634
819.103	630
819.408	624
819.712	616
820.017	608
820.321	600
820.626	592
820.930	585
821.235	580
821.539	578
821.843	578
822.148	580
822.452	581
822.756	581
823.060	579
823.364	575
823.668	570
823.972	564
824.276	558
824.580	554
824.883	551
825.187	551
825.491	551
825.795	551
826.098	552
826.402	551
826.705	549
827.008	545
827.312	540
827.615	531
827.918	520
828.222	507
828.525	495
828.828	483
829.131	471
829.434	459
829.737	448
830.040	439
830.343	432
830.645	426
830.948	420
831.251	414
831.553	409
831.856	405
832.159	400
832.461	395
832.764	389
833.066	384
833.368	379
833.671	376
833.973	374
834.275	371
834.577	368
834.879	365
835.181	362
835.483	357
835.785	352
836.087	346
836.389	339
836.690	331
836.992	322
837.294	312
837.595	302
837.897	292
838.198	281
838.500	272
838.801	264
839.103	256
839.404	250
839.705	245
840.006	241
840.307	237
840.608	234
840.910	233
841.210	232
841.511	230
841.812	228
842.113	225
842.414	222
842.715	218
843.015	214
843.316	209
843.616	205
843.917	201
844.217	198
844.518	195
844.818	193
845.118	191
845.419	190
845.719	189
846.019	188
846.319	187
846.619	186
846.919	186
847.219	185
847.519	183
847.819	182
848.118	183
848.418	185
848.718	191
849.017	200
849.317	213
849.616	228
849.916	246
850.215	266
850.515	288
850.814	309
851.113	328
851.412	345
851.712	361
852.011	375
852.310	388
852.609	401
852.908	411
853.206	420
853.505	429
853.804	436
854.103	443
854.401	447
854.700	449
854.999	448
855.297	442
855.595	432
855.894	419
856.192	404
856.491	386
856.789	367
857.087	347
857.385	329
857.683	313
857.981	298
858.279	285
858.577	272
858.875	261
859.173	252
859.471	245
859.768	239
860.066	234
860.363	229
860.661	225
860.959	223
861.256	220
861.553	216
861.851	212
862.148	209
862.445	205
862.742	201
863.039	198
863.337	195
863.634	194
863.931	192
864.227	191
864.524	191
864.821	191
865.118	190
865.415	188
865.711	186
866.008	183
866.304	179
866.601	175
866.897	173
867.194	170
867.490	168
867.786	168
868.082	168
868.379	168
868.675	168
868.971	168
869.267	169
869.563	168
869.859	168
870.154	167
870.450	166
870.746	165
871.042	165
871.337	164
871.633	165
871.928	165
872.224	167
872.519	168
872.815	169
873.110	170
873.405	170
873.700	169
873.995	169
874.291	169
874.586	170
874.881	171
875.175	173
875.470	176
875.765	179
876.060	183
876.355	186
876.649	190
876.944	193
877.238	196
877.533	199
877.827	201
878.122	203
878.416	203
878.710	203
879.005	202
879.299	201
879.593	200
879.887	200
880.181	199
880.475	197
880.769	196
881.063	194
881.356	192
881.650	190
881.944	187
882.238	156
882.531	145
882.825	149
883.118	153
883.412	151
883.705	149
883.998	157
884.291	156
884.585	165
884.878	169
>>>>>>>>>> END of Data <<<<<<<<<<