Date	2021年06月15日火曜日 05時02分53秒
Spectrometers	USB2+H05879
ダーク	使用
リファレンス	使用
積分時間[msec]	10
平均回数	280
ｽﾑｰｼﾞﾝｸﾞ	10
Electrical Dark	USE
ピクセル数	2048
計測モード	吸光度
保存開始波長[nm]	190.664
保存終了波長[nm]	884.878
保存ﾋﾟｯﾁ波長[nm]	全波長

>>>>>>>>>> Data Start <<<<<<<<<<<<
190.664	0.000000
191.040	0.000000
191.415	0.000000
191.791	-2.679979
192.166	-0.561013
192.542	-0.953727
192.917	0.000000
193.293	-0.555878
193.668	-0.454984
194.044	-1.200966
194.419	0.000000
194.794	-1.443134
195.170	-1.354685
195.545	-1.262570
195.920	-1.129327
196.296	-1.014315
196.671	-0.848816
197.046	-0.689233
197.421	-0.634707
197.796	-0.623193
198.171	-0.576869
198.546	-0.533248
198.922	-0.481193
199.297	-0.462406
199.672	-0.439900
200.047	-0.416510
200.422	-0.390052
200.796	-0.371749
201.171	-0.347412
201.546	-0.343506
201.921	-0.326778
202.296	-0.315382
202.671	-0.285535
203.045	-0.261419
203.420	-0.250833
203.795	-0.239031
204.170	-0.231225
204.544	-0.227239
204.919	-0.224832
205.294	-0.217587
205.668	-0.207117
206.043	-0.203173
206.417	-0.209246
206.792	-0.207785
207.166	-0.204119
207.541	-0.196306
207.915	-0.202312
208.289	-0.186083
208.664	-0.185920
209.038	-0.183741
209.412	-0.171547
209.787	-0.157582
210.161	-0.146994
210.535	-0.150668
210.909	-0.142842
211.284	-0.132339
211.658	-0.125158
212.032	-0.124005
212.406	-0.130203
212.780	-0.130306
213.154	-0.128652
213.528	-0.128122
213.902	-0.117016
214.276	-0.105444
214.650	-0.102510
215.024	-0.095225
215.398	-0.096588
215.772	-0.084033
216.145	-0.082104
216.519	-0.070907
216.893	-0.074588
217.267	-0.076862
217.640	-0.088472
218.014	-0.079588
218.388	-0.074490
218.761	-0.076778
219.135	-0.068059
219.508	-0.076086
219.882	-0.078578
220.256	-0.076864
220.629	-0.064925
221.003	-0.075176
221.376	-0.076446
221.749	-0.085673
222.123	-0.086533
222.496	-0.092621
222.869	-0.086410
223.243	-0.083171
223.616	-0.084467
223.989	-0.088190
224.362	-0.088883
224.736	-0.095191
225.109	-0.089096
225.482	-0.083198
225.855	-0.083470
226.228	-0.085147
226.601	-0.079465
226.974	-0.079611
227.347	-0.070834
227.720	-0.067004
228.093	-0.067335
228.466	-0.078288
228.839	-0.069338
229.212	-0.071729
229.585	-0.079272
229.957	-0.081914
230.330	-0.075352
230.703	-0.070279
231.076	-0.069903
231.448	-0.076834
231.821	-0.075523
232.194	-0.074177
232.566	-0.066546
232.939	-0.075063
233.311	-0.076528
233.684	-0.077497
234.056	-0.075754
234.429	-0.073948
234.801	-0.072983
235.174	-0.067669
235.546	-0.069640
235.918	-0.063215
236.291	-0.057582
236.663	-0.058199
237.035	-0.054408
237.408	-0.035175
237.780	-0.026474
238.152	-0.021443
238.524	-0.038444
238.896	-0.036963
239.268	-0.030354
239.641	-0.034739
240.013	-0.030595
240.385	-0.024931
240.757	-0.018180
241.129	-0.022073
241.500	-0.018625
241.872	-0.020804
242.244	-0.023098
242.616	-0.022465
242.988	-0.023789
243.360	-0.019591
243.731	-0.020209
244.103	-0.022744
244.475	-0.023490
244.847	-0.019411
245.218	-0.018808
245.590	-0.014759
245.961	-0.019219
246.333	-0.012376
246.705	-0.014001
247.076	-0.011844
247.448	-0.011464
247.819	-0.013552
248.190	-0.009240
248.562	-0.009970
248.933	-0.007747
249.305	-0.007715
249.676	-0.001387
250.047	-0.005735
250.418	-0.007146
250.790	-0.008173
251.161	-0.008513
251.532	-0.000879
251.903	-0.000961
252.274	0.008702
252.645	0.010126
253.016	0.002426
253.387	-0.006402
253.758	-0.002908
254.129	-0.005785
254.500	-0.002422
254.871	-0.003475
255.242	-0.003024
255.613	-0.008581
255.984	-0.012633
256.355	-0.009626
256.725	0.005830
257.096	0.009010
257.467	0.011596
257.838	0.016133
258.208	0.015958
258.579	0.023071
258.949	0.018620
259.320	0.015551
259.690	0.014448
260.061	0.014498
260.431	0.023349
260.802	0.027194
261.172	0.032258
261.543	0.034223
261.913	0.037214
262.283	0.030241
262.654	0.030364
263.024	0.032494
263.394	0.040874
263.764	0.044495
264.135	0.039821
264.505	0.024950
264.875	0.023964
265.245	0.017442
265.615	0.014485
265.985	0.012964
266.355	0.013109
266.725	0.013829
267.095	0.016850
267.465	0.018867
267.835	0.012457
268.205	0.003912
268.575	0.007616
268.944	0.009467
269.314	0.008259
269.684	0.010485
270.054	0.005866
270.423	0.007147
270.793	0.011038
271.163	0.013841
271.532	0.013316
271.902	0.016208
272.271	0.033692
272.641	0.037366
273.010	0.039928
273.380	0.041082
273.749	0.041193
274.119	0.039435
274.488	0.047454
274.857	0.046930
275.227	0.045766
275.596	0.049421
275.965	0.050075
276.335	0.049894
276.704	0.048875
277.073	0.047013
277.442	0.053174
277.811	0.061970
278.180	0.066339
278.549	0.062574
278.918	0.055610
279.287	0.053086
279.656	0.057862
280.025	0.049413
280.394	0.043903
280.763	0.045533
281.132	0.050569
281.501	0.055509
281.869	0.051645
282.238	0.047298
282.607	0.041154
282.976	0.050898
283.344	0.053152
283.713	0.053684
284.081	0.050799
284.450	0.055993
284.819	0.056666
285.187	0.054980
285.556	0.058976
285.924	0.059538
286.292	0.059055
286.661	0.059171
287.029	0.056031
287.398	0.051624
287.766	0.049488
288.134	0.049922
288.502	0.050093
288.871	0.059657
289.239	0.061141
289.607	0.069076
289.975	0.070797
290.343	0.075782
290.711	0.070122
291.079	0.067674
291.447	0.074465
291.815	0.075212
292.183	0.075307
292.551	0.079650
292.919	0.080974
293.287	0.078093
293.655	0.076445
294.022	0.077318
294.390	0.088322
294.758	0.097304
295.126	0.097926
295.493	0.103909
295.861	0.112406
296.229	0.108882
296.596	0.107306
296.964	0.108484
297.331	0.107725
297.699	0.113271
298.066	0.119014
298.434	0.124717
298.801	0.134526
299.168	0.128286
299.536	0.135243
299.903	0.132011
300.270	0.134227
300.638	0.136386
301.005	0.150926
301.372	0.158338
301.739	0.167738
302.106	0.166487
302.473	0.171877
302.840	0.184324
303.207	0.196015
303.574	0.206670
303.941	0.223753
304.308	0.229219
304.675	0.241571
305.042	0.261934
305.409	0.283843
305.776	0.294700
306.143	0.310885
306.509	0.326180
306.876	0.357053
307.243	0.377804
307.610	0.410701
307.976	0.435362
308.343	0.468884
308.709	0.491045
309.076	0.526049
309.442	0.559278
309.809	0.593769
310.175	0.631388
310.542	0.658141
310.908	0.686165
311.275	0.715896
311.641	0.743792
312.007	0.776186
312.373	0.807421
312.740	0.824116
313.106	0.850238
313.472	0.888302
313.838	0.922320
314.204	0.951211
314.570	0.970815
314.936	0.998071
315.302	1.022968
315.668	1.044934
316.034	1.071602
316.400	1.105734
316.766	1.123057
317.132	1.146518
317.498	1.165292
317.864	1.172807
318.230	1.193514
318.595	1.215293
318.961	1.230973
319.327	1.253123
319.692	1.265413
320.058	1.276828
320.424	1.301253
320.789	1.319721
321.155	1.333551
321.520	1.349195
321.886	1.370289
322.251	1.386695
322.616	1.400642
322.982	1.413804
323.347	1.428382
323.712	1.442058
324.078	1.450804
324.443	1.460473
324.808	1.468956
325.173	1.480193
325.539	1.498570
325.904	1.509686
326.269	1.516871
326.634	1.525094
326.999	1.532941
327.364	1.543401
327.729	1.553530
328.094	1.560596
328.459	1.563159
328.823	1.568585
329.188	1.577642
329.553	1.578731
329.918	1.584598
330.283	1.591942
330.647	1.599527
331.012	1.605615
331.377	1.607115
331.741	1.608944
332.106	1.614946
332.470	1.619041
332.835	1.623864
333.199	1.626037
333.564	1.629860
333.928	1.634010
334.293	1.639260
334.657	1.641178
335.021	1.646165
335.386	1.647116
335.750	1.647055
336.114	1.650729
336.478	1.654133
336.843	1.654760
337.207	1.657691
337.571	1.659068
337.935	1.659816
338.299	1.658236
338.663	1.657104
339.027	1.660938
339.391	1.664145
339.755	1.664236
340.119	1.663007
340.483	1.663149
340.846	1.666017
341.210	1.669100
341.574	1.669609
341.938	1.671135
342.301	1.673117
342.665	1.673889
343.029	1.677850
343.392	1.682682
343.756	1.684389
344.119	1.685969
344.483	1.686618
344.846	1.686963
345.210	1.691122
345.573	1.691305
345.937	1.692504
346.300	1.696103
346.663	1.695758
347.027	1.697763
347.390	1.698878
347.753	1.702587
348.116	1.703458
348.479	1.703473
348.843	1.703030
349.206	1.704155
349.569	1.703206
349.932	1.704500
350.295	1.704337
350.658	1.703430
351.021	1.703437
351.383	1.704663
351.746	1.704648
352.109	1.705069
352.472	1.707201
352.835	1.706477
353.197	1.708599
353.560	1.711224
353.923	1.710318
354.285	1.710550
354.648	1.710434
355.011	1.713330
355.373	1.714778
355.736	1.717857
356.098	1.718723
356.461	1.719383
356.823	1.720392
357.185	1.724110
357.548	1.725743
357.910	1.727268
358.272	1.728932
358.635	1.728223
358.997	1.729274
359.359	1.732899
359.721	1.733839
360.083	1.735539
360.445	1.737379
360.807	1.739063
361.169	1.738682
361.531	1.741031
361.893	1.743310
362.255	1.745446
362.617	1.745316
362.979	1.745897
363.341	1.745361
363.703	1.745762
364.064	1.746853
364.426	1.748644
364.788	1.748664
365.149	1.749149
365.511	1.750316
365.873	1.752427
366.234	1.755018
366.596	1.754618
366.957	1.753087
367.319	1.753535
367.680	1.753451
368.042	1.751363
368.403	1.752624
368.764	1.755170
369.126	1.755081
369.487	1.755514
369.848	1.755318
370.209	1.756533
370.570	1.756313
370.931	1.758402
371.293	1.759339
371.654	1.760317
372.015	1.762370
372.376	1.763805
372.737	1.765098
373.098	1.766307
373.458	1.766455
373.819	1.767626
374.180	1.770043
374.541	1.773303
374.902	1.775759
375.263	1.777340
375.623	1.781629
375.984	1.783316
376.345	1.783388
376.705	1.786357
377.066	1.788347
377.426	1.789252
377.787	1.789769
378.147	1.791378
378.508	1.790456
378.868	1.792432
379.228	1.792698
379.589	1.790667
379.949	1.791165
380.309	1.792397
380.670	1.792806
381.030	1.793378
381.390	1.795139
381.750	1.794636
382.110	1.792996
382.470	1.794344
382.830	1.795338
383.190	1.795966
383.550	1.795111
383.910	1.796367
384.270	1.795657
384.630	1.796493
384.990	1.798090
385.350	1.798993
385.709	1.798994
386.069	1.800811
386.429	1.800424
386.788	1.802089
387.148	1.804754
387.508	1.806067
387.867	1.806128
388.227	1.806429
388.586	1.807240
388.946	1.806788
389.305	1.808746
389.665	1.810806
390.024	1.811838
390.383	1.813443
390.743	1.812694
391.102	1.812699
391.461	1.811937
391.820	1.813299
392.179	1.811442
392.539	1.809710
392.898	1.810546
393.257	1.811456
393.616	1.812607
393.975	1.812921
394.334	1.813039
394.693	1.813063
395.051	1.813384
395.410	1.813148
395.769	1.814569
396.128	1.814625
396.487	1.814367
396.845	1.813413
397.204	1.812034
397.563	1.809563
397.921	1.807418
398.280	1.806896
398.638	1.805769
398.997	1.805228
399.355	1.804076
399.714	1.805635
400.072	1.805109
400.431	1.803458
400.789	1.802619
401.147	1.799855
401.506	1.798235
401.864	1.796583
402.222	1.795006
402.580	1.790682
402.938	1.789645
403.297	1.787464
403.655	1.786048
404.013	1.784513
404.371	1.783530
404.729	1.782011
405.087	1.780753
405.444	1.779788
405.802	1.778280
406.160	1.777930
406.518	1.776803
406.876	1.776445
407.233	1.773283
407.591	1.772499
407.949	1.771761
408.306	1.770327
408.664	1.769269
409.022	1.769341
409.379	1.768803
409.737	1.767338
410.094	1.766674
410.451	1.765731
410.809	1.763443
411.166	1.761233
411.523	1.760375
411.881	1.758213
412.238	1.756328
412.595	1.754695
412.952	1.752937
413.310	1.751382
413.667	1.750077
414.024	1.749641
414.381	1.746805
414.738	1.744937
415.095	1.742185
415.452	1.740355
415.809	1.738924
416.165	1.737277
416.522	1.734248
416.879	1.731799
417.236	1.729084
417.593	1.727268
417.949	1.724582
418.306	1.723383
418.663	1.723119
419.019	1.720517
419.376	1.718351
419.732	1.716009
420.089	1.714573
420.445	1.712269
420.802	1.710850
421.158	1.707595
421.514	1.704693
421.871	1.702430
422.227	1.700356
422.583	1.698703
422.939	1.695545
423.295	1.692623
423.652	1.690113
424.008	1.687134
424.364	1.684353
424.720	1.682436
425.076	1.680674
425.432	1.678098
425.788	1.675678
426.143	1.671796
426.499	1.668892
426.855	1.666918
427.211	1.664532
427.567	1.661565
427.922	1.659957
428.278	1.655505
428.634	1.653615
428.989	1.650460
429.345	1.647788
429.700	1.645219
430.056	1.643514
430.411	1.641740
430.767	1.639612
431.122	1.636860
431.478	1.634593
431.833	1.631649
432.188	1.627337
432.543	1.624611
432.899	1.620937
433.254	1.616370
433.609	1.612951
433.964	1.609523
434.319	1.605073
434.674	1.601579
435.029	1.597989
435.384	1.593003
435.739	1.589700
436.094	1.586378
436.449	1.582760
436.804	1.579236
437.158	1.575656
437.513	1.571644
437.868	1.566882
438.223	1.562751
438.577	1.558287
438.932	1.554969
439.287	1.551482
439.641	1.548043
439.996	1.543809
440.350	1.540166
440.704	1.537915
441.059	1.534273
441.413	1.529941
441.768	1.526785
442.122	1.524033
442.476	1.520117
442.830	1.516492
443.185	1.513530
443.539	1.509255
443.893	1.505671
444.247	1.501390
444.601	1.497990
444.955	1.493422
445.309	1.489637
445.663	1.485746
446.017	1.482304
446.371	1.477226
446.724	1.472141
447.078	1.467648
447.432	1.463246
447.786	1.459049
448.139	1.453292
448.493	1.448824
448.847	1.444424
449.200	1.439204
449.554	1.433877
449.907	1.429544
450.261	1.424750
450.614	1.419744
450.968	1.415286
451.321	1.410417
451.674	1.405747
452.027	1.400445
452.381	1.396009
452.734	1.391580
453.087	1.386840
453.440	1.381271
453.793	1.376872
454.146	1.372450
454.499	1.368346
454.852	1.363829
455.205	1.359121
455.558	1.354882
455.911	1.350327
456.264	1.345959
456.617	1.341913
456.970	1.338059
457.322	1.333719
457.675	1.330035
458.028	1.326241
458.380	1.322534
458.733	1.319084
459.086	1.315530
459.438	1.312170
459.791	1.308303
460.143	1.304435
460.496	1.300185
460.848	1.296664
461.200	1.292900
461.553	1.289227
461.905	1.285479
462.257	1.281635
462.609	1.277904
462.961	1.275051
463.314	1.271558
463.666	1.268002
464.018	1.264355
464.370	1.260813
464.722	1.257334
465.074	1.253471
465.426	1.250245
465.777	1.246460
466.129	1.242990
466.481	1.239574
466.833	1.236058
467.184	1.232968
467.536	1.229799
467.888	1.226549
468.239	1.223154
468.591	1.219214
468.943	1.215142
469.294	1.210843
469.646	1.206832
469.997	1.202885
470.348	1.198629
470.700	1.194934
471.051	1.191544
471.402	1.188045
471.754	1.184556
472.105	1.181397
472.456	1.178503
472.807	1.175402
473.158	1.172836
473.509	1.170038
473.860	1.167283
474.211	1.164627
474.562	1.161898
474.913	1.158864
475.264	1.156008
475.615	1.153377
475.966	1.150889
476.316	1.148190
476.667	1.145681
477.018	1.143000
477.368	1.140207
477.719	1.137461
478.070	1.134787
478.420	1.132110
478.771	1.129643
479.121	1.126996
479.472	1.124404
479.822	1.121726
480.172	1.119197
480.523	1.116462
480.873	1.113373
481.223	1.109920
481.573	1.106475
481.924	1.103034
482.274	1.099945
482.624	1.097214
482.974	1.094752
483.324	1.092678
483.674	1.091094
484.024	1.089390
484.374	1.087921
484.724	1.086458
485.073	1.084872
485.423	1.083213
485.773	1.081564
486.123	1.079841
486.472	1.078127
486.822	1.076402
487.172	1.074779
487.521	1.073021
487.871	1.071334
488.220	1.069628
488.570	1.067830
488.919	1.065650
489.268	1.063093
489.618	1.060180
489.967	1.056818
490.316	1.052942
490.666	1.048897
491.015	1.044897
491.364	1.041390
491.713	1.037912
492.062	1.034755
492.411	1.031710
492.760	1.029058
493.109	1.026215
493.458	1.023522
493.807	1.021027
494.156	1.018326
494.505	1.015687
494.853	1.012902
495.202	1.010090
495.551	1.007380
495.900	1.004630
496.248	1.001784
496.597	0.999105
496.945	0.996569
497.294	0.993955
497.642	0.991361
497.991	0.988647
498.339	0.985885
498.688	0.983370
499.036	0.980900
499.384	0.978433
499.732	0.976003
500.081	0.973332
500.429	0.970786
500.777	0.968258
501.125	0.965741
501.473	0.963419
501.821	0.961040
502.169	0.958882
502.517	0.956554
502.865	0.954362
503.213	0.952060
503.561	0.949879
503.908	0.947745
504.256	0.945505
504.604	0.943316
504.952	0.941107
505.299	0.938987
505.647	0.936822
505.994	0.934574
506.342	0.932235
506.689	0.930018
507.037	0.927707
507.384	0.925488
507.732	0.923427
508.079	0.921278
508.426	0.919178
508.774	0.916984
509.121	0.914867
509.468	0.912743
509.815	0.910659
510.162	0.908477
510.509	0.906602
510.856	0.904598
511.203	0.902623
511.550	0.900580
511.897	0.898610
512.244	0.896738
512.591	0.894686
512.938	0.892702
513.284	0.890680
513.631	0.888675
513.978	0.886722
514.324	0.884859
514.671	0.882960
515.018	0.881004
515.364	0.879244
515.711	0.877213
516.057	0.875211
516.403	0.873348
516.750	0.871370
517.096	0.869583
517.443	0.867697
517.789	0.865822
518.135	0.864026
518.481	0.862091
518.827	0.860235
519.173	0.858421
519.519	0.856540
519.865	0.854702
520.211	0.853013
520.557	0.851072
520.903	0.849113
521.249	0.847104
521.595	0.845235
521.941	0.843316
522.287	0.841332
522.632	0.839078
522.978	0.837099
523.324	0.835217
523.669	0.833126
524.015	0.831041
524.360	0.828940
524.706	0.826972
525.051	0.824878
525.397	0.822818
525.742	0.820929
526.087	0.818994
526.433	0.816945
526.778	0.815016
527.123	0.813101
527.468	0.811074
527.813	0.809227
528.158	0.807414
528.504	0.805325
528.849	0.803195
529.193	0.801127
529.538	0.798995
529.883	0.796902
530.228	0.794596
530.573	0.792355
530.918	0.790219
531.263	0.788124
531.607	0.786124
531.952	0.784077
532.296	0.781974
532.641	0.779974
532.986	0.777685
533.330	0.775556
533.675	0.773434
534.019	0.771138
534.363	0.768806
534.708	0.766580
535.052	0.764270
535.396	0.762062
535.741	0.760038
536.085	0.757818
536.429	0.755607
536.773	0.753306
537.117	0.751005
537.461	0.748682
537.805	0.746208
538.149	0.743570
538.493	0.740945
538.837	0.738346
539.181	0.735587
539.524	0.732956
539.868	0.730206
540.212	0.727562
540.556	0.724884
540.899	0.722174
541.243	0.719593
541.586	0.717007
541.930	0.714235
542.273	0.711579
542.617	0.708766
542.960	0.705893
543.304	0.702910
543.647	0.699848
543.990	0.696779
544.333	0.693722
544.677	0.690650
545.020	0.687586
545.363	0.684653
545.706	0.681715
546.049	0.678695
546.392	0.675812
546.735	0.672844
547.078	0.669741
547.421	0.666650
547.764	0.663418
548.106	0.660113
548.449	0.656619
548.792	0.653190
549.135	0.649878
549.477	0.646513
549.820	0.643285
550.162	0.639934
550.505	0.636643
550.847	0.633263
551.190	0.629796
551.532	0.626155
551.875	0.622436
552.217	0.618667
552.559	0.614894
552.901	0.611180
553.244	0.607568
553.586	0.604055
553.928	0.600590
554.270	0.597296
554.612	0.593978
554.954	0.590679
555.296	0.587300
555.638	0.583982
555.980	0.580410
556.322	0.576571
556.663	0.572605
557.005	0.568553
557.347	0.564675
557.689	0.560868
558.030	0.557163
558.372	0.553431
558.713	0.549767
559.055	0.546072
559.396	0.542349
559.738	0.538570
560.079	0.534840
560.421	0.531097
560.762	0.527401
561.103	0.523757
561.444	0.520209
561.786	0.516738
562.127	0.513294
562.468	0.509815
562.809	0.506220
563.150	0.502559
563.491	0.498873
563.832	0.494984
564.173	0.491040
564.514	0.486900
564.855	0.482708
565.195	0.478378
565.536	0.474108
565.877	0.469938
566.218	0.465893
566.558	0.461942
566.899	0.458190
567.239	0.454611
567.580	0.451296
567.920	0.448221
568.261	0.445413
568.601	0.442713
568.941	0.440119
569.282	0.437634
569.622	0.435271
569.962	0.432870
570.302	0.430545
570.643	0.428272
570.983	0.426098
571.323	0.424022
571.663	0.422051
572.003	0.420056
572.343	0.418106
572.683	0.415991
573.022	0.413789
573.362	0.411445
573.702	0.409119
574.042	0.406834
574.381	0.404613
574.721	0.402450
575.061	0.400372
575.400	0.398444
575.740	0.396557
576.079	0.394698
576.419	0.392731
576.758	0.390643
577.097	0.388488
577.437	0.386248
577.776	0.383945
578.115	0.381721
578.454	0.379611
578.794	0.377729
579.133	0.376016
579.472	0.374455
579.811	0.373043
580.150	0.371626
580.489	0.370207
580.828	0.368658
581.167	0.367042
581.505	0.365417
581.844	0.363794
582.183	0.362158
582.522	0.360536
582.860	0.358956
583.199	0.357455
583.538	0.356069
583.876	0.354718
584.215	0.353385
584.553	0.352048
584.891	0.350783
585.230	0.349441
585.568	0.348029
585.906	0.346509
586.245	0.345023
586.583	0.343580
586.921	0.342269
587.259	0.341104
587.597	0.339985
587.935	0.338854
588.273	0.337640
588.611	0.336243
588.949	0.334759
589.287	0.333225
589.625	0.331669
589.963	0.330192
590.300	0.328773
590.638	0.327441
590.976	0.326153
591.313	0.324869
591.651	0.323577
591.989	0.322249
592.326	0.321006
592.664	0.319885
593.001	0.318805
593.338	0.317835
593.676	0.316914
594.013	0.315973
594.350	0.315056
594.687	0.314201
595.025	0.313448
595.362	0.312630
595.699	0.311796
596.036	0.310970
596.373	0.310127
596.710	0.309259
597.047	0.308364
597.384	0.307474
597.720	0.306546
598.057	0.305645
598.394	0.304704
598.731	0.303793
599.067	0.302881
599.404	0.301961
599.741	0.301049
600.077	0.300194
600.414	0.299427
600.750	0.298702
601.087	0.298050
601.423	0.297367
601.759	0.296714
602.096	0.295967
602.432	0.295267
602.768	0.294563
603.104	0.293861
603.440	0.293169
603.776	0.292489
604.112	0.291828
604.448	0.291190
604.784	0.290608
605.120	0.290008
605.456	0.289461
605.792	0.288924
606.128	0.288388
606.463	0.287884
606.799	0.287329
607.135	0.286742
607.470	0.286156
607.806	0.285574
608.142	0.285021
608.477	0.284489
608.812	0.283936
609.148	0.283437
609.483	0.282946
609.819	0.282461
610.154	0.281911
610.489	0.281338
610.824	0.280808
611.159	0.280294
611.494	0.279780
611.830	0.279324
612.165	0.278906
612.500	0.278530
612.834	0.278127
613.169	0.277759
613.504	0.277342
613.839	0.276916
614.174	0.276493
614.509	0.276025
614.843	0.275569
615.178	0.275108
615.512	0.274728
615.847	0.274318
616.182	0.273974
616.516	0.273661
616.850	0.273323
617.185	0.272995
617.519	0.272723
617.853	0.272395
618.188	0.272022
618.522	0.271539
618.856	0.271011
619.190	0.270557
619.524	0.270079
619.858	0.269613
620.192	0.269180
620.526	0.268748
620.860	0.268416
621.194	0.268083
621.528	0.267760
621.862	0.267450
622.195	0.267161
622.529	0.266765
622.863	0.266443
623.196	0.266061
623.530	0.265697
623.864	0.265358
624.197	0.265047
624.530	0.264672
624.864	0.264378
625.197	0.264134
625.531	0.263911
625.864	0.263639
626.197	0.263320
626.530	0.263055
626.863	0.262746
627.196	0.262373
627.529	0.262046
627.862	0.261712
628.195	0.261376
628.528	0.261018
628.861	0.260634
629.194	0.260264
629.527	0.259957
629.860	0.259668
630.192	0.259301
630.525	0.258936
630.858	0.258589
631.190	0.258203
631.523	0.257830
631.855	0.257319
632.188	0.256856
632.520	0.256477
632.852	0.256012
633.185	0.255603
633.517	0.255179
633.849	0.254845
634.182	0.254590
634.514	0.254387
634.846	0.254109
635.178	0.253972
635.510	0.253766
635.842	0.253593
636.174	0.253401
636.506	0.253213
636.837	0.252924
637.169	0.252761
637.501	0.252454
637.833	0.252261
638.164	0.252032
638.496	0.251745
638.828	0.251423
639.159	0.251091
639.491	0.250788
639.822	0.250509
640.154	0.250154
640.485	0.249735
640.816	0.249287
641.147	0.248882
641.479	0.248309
641.810	0.247949
642.141	0.247458
642.472	0.246902
642.803	0.246445
643.134	0.246034
643.465	0.245598
643.796	0.245219
644.127	0.244858
644.458	0.244653
644.789	0.244440
645.119	0.244292
645.450	0.244302
645.781	0.244594
646.111	0.244774
646.442	0.244866
646.773	0.244964
647.103	0.244978
647.433	0.244984
647.764	0.244897
648.094	0.244760
648.425	0.244834
648.755	0.244724
649.085	0.244655
649.415	0.244703
649.745	0.244780
650.075	0.244823
650.405	0.244832
650.735	0.243287
651.065	0.234426
651.395	0.226861
651.725	0.212056
652.055	0.172913
652.385	0.134506
652.715	0.104920
653.044	0.085030
653.374	0.070764
653.704	0.073427
654.033	0.087982
654.363	0.096674
654.692	0.101766
655.022	0.104780
655.351	0.106632
655.680	0.107728
656.010	0.108317
656.339	0.108580
656.668	0.108637
656.997	0.108581
657.326	0.108455
657.655	0.108247
657.984	0.106937
658.313	0.101381
658.642	0.093533
658.971	0.095385
659.300	0.107273
659.629	0.128499
659.958	0.158932
660.286	0.206381
660.615	0.241230
660.944	0.239763
661.272	0.237770
661.601	0.236660
661.929	0.236504
662.258	0.236768
662.586	0.237155
662.915	0.237259
663.243	0.236969
663.571	0.236637
663.899	0.236415
664.228	0.236124
664.556	0.235869
664.884	0.235580
665.212	0.235315
665.540	0.235076
665.868	0.235030
666.196	0.235009
666.524	0.234838
666.852	0.234727
667.179	0.234623
667.507	0.234515
667.835	0.234430
668.162	0.234377
668.490	0.234251
668.818	0.234220
669.145	0.234234
669.473	0.234293
669.800	0.234406
670.127	0.234623
670.455	0.234594
670.782	0.234658
671.109	0.234672
671.436	0.234771
671.764	0.234877
672.091	0.234970
672.418	0.235027
672.745	0.234886
673.072	0.234814
673.399	0.234814
673.726	0.234726
674.053	0.234645
674.379	0.234532
674.706	0.234311
675.033	0.234063
675.359	0.233850
675.686	0.233719
676.013	0.233550
676.339	0.233312
676.666	0.233079
676.992	0.232807
677.318	0.232752
677.645	0.232562
677.971	0.232499
678.297	0.232404
678.624	0.232261
678.950	0.232068
679.276	0.231841
679.602	0.231633
679.928	0.231395
680.254	0.231129
680.580	0.230959
680.906	0.230778
681.232	0.230674
681.558	0.230668
681.883	0.230768
682.209	0.230870
682.535	0.230837
682.860	0.230906
683.186	0.230994
683.511	0.230888
683.837	0.230673
684.162	0.230505
684.488	0.230336
684.813	0.230105
685.138	0.229921
685.464	0.229775
685.789	0.229634
686.114	0.229500
686.439	0.229410
686.764	0.229330
687.089	0.229280
687.414	0.229205
687.739	0.229101
688.064	0.229025
688.389	0.228939
688.714	0.228696
689.039	0.228394
689.363	0.228182
689.688	0.227841
690.013	0.227471
690.337	0.227235
690.662	0.227134
690.986	0.227060
691.311	0.226951
691.635	0.226890
691.959	0.226788
692.284	0.226498
692.608	0.226233
692.932	0.226059
693.256	0.225908
693.580	0.225818
693.904	0.225692
694.228	0.225557
694.552	0.225554
694.876	0.225410
695.200	0.225249
695.524	0.225016
695.848	0.224796
696.172	0.224520
696.495	0.224252
696.819	0.224031
697.143	0.223737
697.466	0.223441
697.790	0.223035
698.113	0.222738
698.437	0.222350
698.760	0.222027
699.083	0.221899
699.407	0.221810
699.730	0.221669
700.053	0.221563
700.376	0.221369
700.699	0.221085
701.022	0.220752
701.345	0.220199
701.668	0.219640
701.991	0.218987
702.314	0.218306
702.637	0.217663
702.960	0.217062
703.283	0.216542
703.605	0.216009
703.928	0.215779
704.251	0.215606
704.573	0.215499
704.896	0.215354
705.218	0.215248
705.540	0.215104
705.863	0.214866
706.185	0.214483
706.507	0.213967
706.830	0.213382
707.152	0.212729
707.474	0.212220
707.796	0.211714
708.118	0.211349
708.440	0.211079
708.762	0.210884
709.084	0.210706
709.406	0.210473
709.728	0.210251
710.049	0.210043
710.371	0.209826
710.693	0.209460
711.014	0.209003
711.336	0.208613
711.658	0.208294
711.979	0.207999
712.301	0.207650
712.622	0.207421
712.943	0.207194
713.265	0.207118
713.586	0.206939
713.907	0.206921
714.228	0.206966
714.549	0.206952
714.870	0.206859
715.191	0.206776
715.512	0.206700
715.833	0.206676
716.154	0.206662
716.475	0.206560
716.796	0.206298
717.117	0.206049
717.437	0.205768
717.758	0.205451
718.078	0.205016
718.399	0.204614
718.719	0.204155
719.040	0.203751
719.360	0.203396
719.681	0.203050
720.001	0.202766
720.321	0.202638
720.642	0.202271
720.962	0.201946
721.282	0.201796
721.602	0.201630
721.922	0.201430
722.242	0.201169
722.562	0.200976
722.882	0.200808
723.202	0.200682
723.521	0.200622
723.841	0.200550
724.161	0.200474
724.481	0.200405
724.800	0.200370
725.120	0.200266
725.439	0.200230
725.759	0.200159
726.078	0.200065
726.398	0.200058
726.717	0.200031
727.036	0.199981
727.355	0.200187
727.675	0.200328
727.994	0.200432
728.313	0.200520
728.632	0.200571
728.951	0.200666
729.270	0.200636
729.589	0.200565
729.908	0.200393
730.226	0.200187
730.545	0.200011
730.864	0.199788
731.182	0.199676
731.501	0.199653
731.820	0.199631
732.138	0.199595
732.457	0.199416
732.775	0.199327
733.093	0.199242
733.412	0.199174
733.730	0.199081
734.048	0.198870
734.367	0.198568
734.685	0.198233
735.003	0.197902
735.321	0.197667
735.639	0.197309
735.957	0.197063
736.275	0.196832
736.593	0.196739
736.910	0.196607
737.228	0.196548
737.546	0.196489
737.863	0.196349
738.181	0.196043
738.499	0.195745
738.816	0.195470
739.134	0.195332
739.451	0.195155
739.768	0.194930
740.086	0.194632
740.403	0.194341
740.720	0.194091
741.038	0.193865
741.355	0.193569
741.672	0.193260
741.989	0.192873
742.306	0.192539
742.623	0.192146
742.940	0.191642
743.257	0.191046
743.573	0.190633
743.890	0.190083
744.207	0.189560
744.523	0.189111
744.840	0.188752
745.157	0.188355
745.473	0.187960
745.790	0.187664
746.106	0.187283
746.422	0.187027
746.739	0.186756
747.055	0.186529
747.371	0.186358
747.687	0.186271
748.004	0.186317
748.320	0.186368
748.636	0.186365
748.952	0.186411
749.268	0.186491
749.584	0.186665
749.899	0.186764
750.215	0.186867
750.531	0.186920
750.847	0.186959
751.162	0.187050
751.478	0.187138
751.793	0.187147
752.109	0.187106
752.424	0.187161
752.740	0.187254
753.055	0.187376
753.370	0.187484
753.686	0.187715
754.001	0.188004
754.316	0.188284
754.631	0.188517
754.946	0.188733
755.261	0.188991
755.576	0.189081
755.891	0.189077
756.206	0.189082
756.521	0.189040
756.836	0.188997
757.150	0.188969
757.465	0.188989
757.780	0.189015
758.094	0.189114
758.409	0.189205
758.723	0.189348
759.038	0.189365
759.352	0.189372
759.667	0.189266
759.981	0.189251
760.295	0.189081
760.609	0.188892
760.923	0.188686
761.238	0.188461
761.552	0.188355
761.866	0.188128
762.180	0.188103
762.493	0.188152
762.807	0.188133
763.121	0.188108
763.435	0.188013
763.749	0.187925
764.062	0.187766
764.376	0.187516
764.689	0.187229
765.003	0.187049
765.316	0.186924
765.630	0.186948
765.943	0.186874
766.257	0.186851
766.570	0.186681
766.883	0.186551
767.196	0.186383
767.509	0.186115
767.822	0.185900
768.135	0.185548
768.448	0.185298
768.761	0.184920
769.074	0.184596
769.387	0.184263
769.700	0.184004
770.013	0.183819
770.325	0.183676
770.638	0.183591
770.950	0.183541
771.263	0.183424
771.575	0.183251
771.888	0.182941
772.200	0.182572
772.513	0.182104
772.825	0.181788
773.137	0.181533
773.449	0.181267
773.761	0.180951
774.074	0.180753
774.386	0.180484
774.698	0.180235
775.010	0.179920
775.321	0.179814
775.633	0.179523
775.945	0.179491
776.257	0.179571
776.568	0.179488
776.880	0.179341
777.192	0.179367
777.503	0.179284
777.815	0.179344
778.126	0.179418
778.438	0.179522
778.749	0.179704
779.060	0.180068
779.372	0.180260
779.683	0.180418
779.994	0.180636
780.305	0.180754
780.616	0.180907
780.927	0.181028
781.238	0.181051
781.549	0.181207
781.860	0.181244
782.171	0.181310
782.481	0.181322
782.792	0.181231
783.103	0.181270
783.413	0.181363
783.724	0.181204
784.034	0.181264
784.345	0.181134
784.655	0.180999
784.966	0.181000
785.276	0.180927
785.586	0.180874
785.896	0.180736
786.207	0.180724
786.517	0.180702
786.827	0.180700
787.137	0.180585
787.447	0.180466
787.757	0.180538
788.066	0.180478
788.376	0.180534
788.686	0.180562
788.996	0.180603
789.305	0.180565
789.615	0.180513
789.925	0.180450
790.234	0.180537
790.544	0.180539
790.853	0.180618
791.162	0.180886
791.472	0.181109
791.781	0.181173
792.090	0.181227
792.399	0.181351
792.708	0.181307
793.017	0.181182
793.326	0.181005
793.635	0.181018
793.944	0.180988
794.253	0.180901
794.562	0.180819
794.871	0.180652
795.179	0.180562
795.488	0.180452
795.797	0.180483
796.105	0.180448
796.414	0.180468
796.722	0.180517
797.031	0.180395
797.339	0.180213
797.647	0.179731
797.956	0.179186
798.264	0.178707
798.572	0.178185
798.880	0.177762
799.188	0.177324
799.496	0.177084
799.804	0.177021
800.112	0.176731
800.420	0.176778
800.728	0.176633
801.035	0.176490
801.343	0.176213
801.651	0.175888
801.958	0.175550
802.266	0.175265
802.573	0.175332
802.881	0.175499
803.188	0.175398
803.496	0.175680
803.803	0.175993
804.110	0.176400
804.417	0.176449
804.724	0.176529
805.032	0.176647
805.339	0.176665
805.646	0.176654
805.953	0.176521
806.259	0.176434
806.566	0.176451
806.873	0.176327
807.180	0.176272
807.486	0.176335
807.793	0.176472
808.100	0.176657
808.406	0.176758
808.713	0.176758
809.019	0.176376
809.326	0.175889
809.632	0.175698
809.938	0.175080
810.244	0.174585
810.551	0.173951
810.857	0.173525
811.163	0.173361
811.469	0.173187
811.775	0.172928
812.081	0.172796
812.387	0.172909
812.692	0.172885
812.998	0.172892
813.304	0.172577
813.610	0.172610
813.915	0.172422
814.221	0.172168
814.526	0.171942
814.832	0.171801
815.137	0.171928
815.443	0.171991
815.748	0.171892
816.053	0.171681
816.358	0.171661
816.664	0.171664
816.969	0.171676
817.274	0.171757
817.579	0.171508
817.884	0.171320
818.189	0.171297
818.493	0.171307
818.798	0.171057
819.103	0.170848
819.408	0.170444
819.712	0.170641
820.017	0.170278
820.321	0.170108
820.626	0.170153
820.930	0.170068
821.235	0.169767
821.539	0.169410
821.843	0.169261
822.148	0.169316
822.452	0.169266
822.756	0.169381
823.060	0.169169
823.364	0.169283
823.668	0.169315
823.972	0.169365
824.276	0.169275
824.580	0.169275
824.883	0.169298
825.187	0.169477
825.491	0.169497
825.795	0.169661
826.098	0.169409
826.402	0.169256
826.705	0.169381
827.008	0.169007
827.312	0.168793
827.615	0.168581
827.918	0.168310
828.222	0.167893
828.525	0.167458
828.828	0.167283
829.131	0.166678
829.434	0.166359
829.737	0.165567
830.040	0.164577
830.343	0.164141
830.645	0.163626
830.948	0.162976
831.251	0.162355
831.553	0.161617
831.856	0.161123
832.159	0.160935
832.461	0.160731
832.764	0.160878
833.066	0.160276
833.368	0.160199
833.671	0.160067
833.973	0.159986
834.275	0.159758
834.577	0.159815
834.879	0.159514
835.181	0.158945
835.483	0.158741
835.785	0.158144
836.087	0.157813
836.389	0.158088
836.690	0.157555
836.992	0.157010
837.294	0.155912
837.595	0.154999
837.897	0.153732
838.198	0.153019
838.500	0.151901
838.801	0.150672
839.103	0.149503
839.404	0.148508
839.705	0.147581
840.006	0.147017
840.307	0.146772
840.608	0.146483
840.910	0.146547
841.210	0.146830
841.511	0.146887
841.812	0.147072
842.113	0.147501
842.414	0.146887
842.715	0.146079
843.015	0.145442
843.316	0.144664
843.616	0.144110
843.917	0.143297
844.217	0.143118
844.518	0.142828
844.818	0.142555
845.118	0.142353
845.419	0.142248
845.719	0.142101
846.019	0.141626
846.319	0.141396
846.619	0.140853
846.919	0.141160
847.219	0.140768
847.519	0.139685
847.819	0.139175
848.118	0.138390
848.418	0.137494
848.718	0.137509
849.017	0.137766
849.317	0.138173
849.616	0.138778
849.916	0.140267
850.215	0.141886
850.515	0.143035
850.814	0.143859
851.113	0.144428
851.412	0.145667
851.712	0.146069
852.011	0.146294
852.310	0.147327
852.609	0.147544
852.908	0.147898
853.206	0.147790
853.505	0.148190
853.804	0.148617
854.103	0.149050
854.401	0.149134
854.700	0.149005
854.999	0.149093
855.297	0.149253
855.595	0.149209
855.894	0.148932
856.192	0.148687
856.491	0.148317
856.789	0.147653
857.087	0.146743
857.385	0.146059
857.683	0.144867
857.981	0.144207
858.279	0.143825
858.577	0.142422
858.875	0.141388
859.173	0.140568
859.471	0.140097
859.768	0.139194
860.066	0.138259
860.363	0.137173
860.661	0.136422
860.959	0.136754
861.256	0.136603
861.553	0.136196
861.851	0.135723
862.148	0.135381
862.445	0.134752
862.742	0.133344
863.039	0.132769
863.337	0.132829
863.634	0.132120
863.931	0.131439
864.227	0.130798
864.524	0.130430
864.821	0.130648
865.118	0.130021
865.415	0.129327
865.711	0.128767
866.008	0.127592
866.304	0.127447
866.601	0.126996
866.897	0.126219
867.194	0.125957
867.490	0.125359
867.786	0.124810
868.082	0.124106
868.379	0.123874
868.675	0.123435
868.971	0.123640
869.267	0.123589
869.563	0.123327
869.859	0.123224
870.154	0.122332
870.450	0.122109
870.746	0.121794
871.042	0.121843
871.337	0.122393
871.633	0.122036
871.928	0.121371
872.224	0.120775
872.519	0.119713
872.815	0.119311
873.110	0.119598
873.405	0.118618
873.700	0.118433
873.995	0.117890
874.291	0.118233
874.586	0.118726
874.881	0.118940
875.175	0.119091
875.470	0.119222
875.765	0.118785
876.060	0.119014
876.355	0.119721
876.649	0.119744
876.944	0.120146
877.238	0.119972
877.533	0.120223
877.827	0.120929
878.122	0.122162
878.416	0.122744
878.710	0.123722
879.005	0.124115
879.299	0.124196
879.593	0.124734
879.887	0.124511
880.181	0.124473
880.475	0.124071
880.769	0.123962
881.063	0.124055
881.356	0.123963
881.650	0.123885
881.944	0.123249
882.238	0.119142
882.531	0.135775
882.825	0.114147
883.118	0.116173
883.412	0.110824
883.705	0.121810
883.998	0.123068
884.291	0.120293
884.585	0.117732
884.878	0.099289
>>>>>>>>>> END of Data <<<<<<<<<<
>>>>>>>>>> Raw Data Start <<<<<<<<
190.664	-405
191.040	11
191.415	11
191.791	9
192.166	8
192.542	11
192.917	10
193.293	10
193.668	6
194.044	12
194.419	-9
194.794	11
195.170	11
195.545	11
195.920	12
196.296	12
196.671	12
197.046	13
197.421	13
197.796	14
198.171	14
198.546	14
198.922	14
199.297	15
199.672	15
200.047	16
200.422	16
200.796	16
201.171	16
201.546	16
201.921	15
202.296	16
202.671	16
203.045	16
203.420	16
203.795	16
204.170	16
204.544	16
204.919	16
205.294	16
205.668	16
206.043	16
206.417	16
206.792	16
207.166	16
207.541	15
207.915	15
208.289	15
208.664	15
209.038	15
209.412	15
209.787	15
210.161	15
210.535	15
210.909	16
211.284	15
211.658	15
212.032	15
212.406	15
212.780	14
213.154	14
213.528	14
213.902	14
214.276	14
214.650	14
215.024	14
215.398	14
215.772	14
216.145	14
216.519	13
216.893	14
217.267	14
217.640	14
218.014	14
218.388	15
218.761	14
219.135	15
219.508	15
219.882	15
220.256	15
220.629	15
221.003	15
221.376	15
221.749	16
222.123	16
222.496	16
222.869	16
223.243	16
223.616	16
223.989	16
224.362	16
224.736	16
225.109	16
225.482	16
225.855	16
226.228	16
226.601	16
226.974	16
227.347	16
227.720	16
228.093	15
228.466	15
228.839	15
229.212	15
229.585	15
229.957	15
230.330	15
230.703	15
231.076	15
231.448	15
231.821	15
232.194	15
232.566	15
232.939	15
233.311	14
233.684	15
234.056	15
234.429	15
234.801	15
235.174	15
235.546	15
235.918	15
236.291	15
236.663	15
237.035	15
237.408	15
237.780	15
238.152	15
238.524	15
238.896	15
239.268	15
239.641	16
240.013	16
240.385	16
240.757	16
241.129	16
241.500	16
241.872	16
242.244	16
242.616	16
242.988	16
243.360	16
243.731	16
244.103	17
244.475	16
244.847	17
245.218	17
245.590	16
245.961	17
246.333	17
246.705	17
247.076	16
247.448	17
247.819	17
248.190	17
248.562	17
248.933	17
249.305	17
249.676	18
250.047	17
250.418	17
250.790	18
251.161	18
251.532	17
251.903	17
252.274	17
252.645	17
253.016	17
253.387	17
253.758	17
254.129	17
254.500	17
254.871	18
255.242	18
255.613	18
255.984	18
256.355	17
256.725	17
257.096	17
257.467	16
257.838	16
258.208	16
258.579	16
258.949	16
259.320	17
259.690	17
260.061	17
260.431	17
260.802	17
261.172	17
261.543	17
261.913	17
262.283	17
262.654	17
263.024	17
263.394	17
263.764	17
264.135	17
264.505	18
264.875	18
265.245	18
265.615	18
265.985	18
266.355	18
266.725	18
267.095	18
267.465	18
267.835	18
268.205	18
268.575	18
268.944	18
269.314	18
269.684	18
270.054	18
270.423	18
270.793	18
271.163	18
271.532	18
271.902	18
272.271	17
272.641	17
273.010	17
273.380	17
273.749	17
274.119	17
274.488	17
274.857	17
275.227	17
275.596	17
275.965	17
276.335	17
276.704	17
277.073	18
277.442	17
277.811	18
278.180	18
278.549	18
278.918	18
279.287	18
279.656	18
280.025	19
280.394	19
280.763	19
281.132	19
281.501	19
281.869	19
282.238	18
282.607	19
282.976	18
283.344	18
283.713	18
284.081	18
284.450	18
284.819	18
285.187	18
285.556	18
285.924	18
286.292	18
286.661	18
287.029	18
287.398	18
287.766	18
288.134	18
288.502	18
288.871	18
289.239	18
289.607	18
289.975	18
290.343	18
290.711	18
291.079	18
291.447	18
291.815	18
292.183	18
292.551	18
292.919	18
293.287	18
293.655	18
294.022	18
294.390	18
294.758	18
295.126	17
295.493	17
295.861	17
296.229	17
296.596	17
296.964	17
297.331	17
297.699	17
298.066	17
298.434	17
298.801	17
299.168	17
299.536	17
299.903	17
300.270	17
300.638	17
301.005	17
301.372	17
301.739	17
302.106	17
302.473	18
302.840	18
303.207	18
303.574	18
303.941	18
304.308	18
304.675	19
305.042	18
305.409	18
305.776	18
306.143	18
306.509	19
306.876	19
307.243	19
307.610	19
307.976	19
308.343	19
308.709	19
309.076	19
309.442	18
309.809	18
310.175	18
310.542	18
310.908	18
311.275	18
311.641	18
312.007	18
312.373	18
312.740	19
313.106	19
313.472	19
313.838	18
314.204	18
314.570	19
314.936	19
315.302	19
315.668	19
316.034	19
316.400	19
316.766	19
317.132	19
317.498	20
317.864	20
318.230	20
318.595	20
318.961	21
319.327	21
319.692	21
320.058	22
320.424	22
320.789	22
321.155	22
321.520	23
321.886	23
322.251	23
322.616	23
322.982	24
323.347	24
323.712	25
324.078	25
324.443	26
324.808	27
325.173	27
325.539	27
325.904	28
326.269	28
326.634	29
326.999	29
327.364	30
327.729	30
328.094	31
328.459	31
328.823	32
329.188	32
329.553	33
329.918	34
330.283	34
330.647	35
331.012	35
331.377	36
331.741	37
332.106	37
332.470	38
332.835	38
333.199	39
333.564	39
333.928	40
334.293	40
334.657	41
335.021	42
335.386	42
335.750	43
336.114	44
336.478	45
336.843	45
337.207	46
337.571	47
337.935	48
338.299	49
338.663	50
339.027	50
339.391	51
339.755	52
340.119	53
340.483	54
340.846	54
341.210	55
341.574	55
341.938	56
342.301	57
342.665	57
343.029	58
343.392	58
343.756	58
344.119	59
344.483	60
344.846	60
345.210	61
345.573	61
345.937	62
346.300	62
346.663	63
347.027	63
347.390	64
347.753	64
348.116	65
348.479	65
348.843	66
349.206	66
349.569	67
349.932	68
350.295	68
350.658	69
351.021	70
351.383	70
351.746	70
352.109	71
352.472	71
352.835	72
353.197	72
353.560	72
353.923	73
354.285	73
354.648	74
355.011	74
355.373	74
355.736	74
356.098	74
356.461	75
356.823	75
357.185	75
357.548	75
357.910	75
358.272	75
358.635	76
358.997	76
359.359	76
359.721	76
360.083	76
360.445	76
360.807	76
361.169	77
361.531	77
361.893	77
362.255	77
362.617	77
362.979	77
363.341	78
363.703	78
364.064	78
364.426	79
364.788	79
365.149	79
365.511	79
365.873	79
366.234	79
366.596	80
366.957	80
367.319	80
367.680	81
368.042	81
368.403	81
368.764	81
369.126	81
369.487	81
369.848	81
370.209	81
370.570	82
370.931	81
371.293	81
371.654	81
372.015	81
372.376	81
372.737	81
373.098	81
373.458	81
373.819	81
374.180	81
374.541	80
374.902	80
375.263	80
375.623	80
375.984	80
376.345	80
376.705	80
377.066	80
377.426	80
377.787	80
378.147	80
378.508	81
378.868	81
379.228	81
379.589	82
379.949	82
380.309	82
380.670	82
381.030	82
381.390	82
381.750	82
382.110	83
382.470	83
382.830	83
383.190	83
383.550	83
383.910	83
384.270	83
384.630	83
384.990	84
385.350	84
385.709	84
386.069	84
386.429	84
386.788	84
387.148	84
387.508	84
387.867	84
388.227	84
388.586	85
388.946	85
389.305	85
389.665	85
390.024	86
390.383	86
390.743	87
391.102	87
391.461	87
391.820	87
392.179	88
392.539	88
392.898	88
393.257	88
393.616	88
393.975	89
394.334	89
394.693	90
395.051	91
395.410	91
395.769	92
396.128	92
396.487	92
396.845	93
397.204	93
397.563	94
397.921	94
398.280	94
398.638	94
398.997	95
399.355	95
399.714	95
400.072	95
400.431	95
400.789	96
401.147	96
401.506	97
401.864	97
402.222	98
402.580	98
402.938	98
403.297	99
403.655	99
404.013	99
404.371	99
404.729	99
405.087	99
405.444	100
405.802	100
406.160	100
406.518	100
406.876	101
407.233	101
407.591	102
407.949	102
408.306	102
408.664	102
409.022	102
409.379	102
409.737	102
410.094	103
410.451	103
410.809	104
411.166	104
411.523	105
411.881	105
412.238	106
412.595	106
412.952	107
413.310	107
413.667	107
414.024	108
414.381	108
414.738	109
415.095	110
415.452	110
415.809	111
416.165	111
416.522	112
416.879	113
417.236	114
417.593	115
417.949	116
418.306	117
418.663	118
419.019	120
419.376	122
419.732	123
420.089	124
420.445	126
420.802	127
421.158	129
421.514	130
421.871	131
422.227	133
422.583	133
422.939	135
423.295	136
423.652	137
424.008	138
424.364	139
424.720	140
425.076	140
425.432	141
425.788	141
426.143	142
426.499	143
426.855	144
427.211	145
427.567	147
427.922	147
428.278	149
428.634	149
428.989	150
429.345	151
429.700	152
430.056	153
430.411	154
430.767	155
431.122	156
431.478	157
431.833	158
432.188	160
432.543	161
432.899	162
433.254	164
433.609	164
433.964	165
434.319	166
434.674	167
435.029	167
435.384	169
435.739	170
436.094	172
436.449	174
436.804	176
437.158	178
437.513	181
437.868	184
438.223	187
438.577	190
438.932	193
439.287	197
439.641	200
439.996	203
440.350	207
440.704	210
441.059	213
441.413	217
441.768	220
442.122	223
442.476	226
442.830	229
443.185	232
443.539	236
443.893	239
444.247	242
444.601	244
444.955	247
445.309	248
445.663	250
446.017	251
446.371	253
446.724	255
447.078	257
447.432	258
447.786	259
448.139	261
448.493	262
448.847	262
449.200	264
449.554	265
449.907	265
450.261	266
450.614	267
450.968	268
451.321	269
451.674	271
452.027	272
452.381	273
452.734	274
453.087	276
453.440	278
453.793	280
454.146	282
454.499	284
454.852	288
455.205	291
455.558	295
455.911	299
456.264	302
456.617	306
456.970	309
457.322	312
457.675	315
458.028	318
458.380	321
458.733	323
459.086	325
459.438	328
459.791	331
460.143	335
460.496	340
460.848	344
461.200	349
461.553	354
461.905	359
462.257	364
462.609	368
462.961	371
463.314	375
463.666	378
464.018	382
464.370	385
464.722	388
465.074	392
465.426	395
465.777	399
466.129	402
466.481	404
466.833	406
467.184	408
467.536	408
467.888	408
468.239	409
468.591	409
468.943	410
469.294	412
469.646	414
469.997	416
470.348	420
470.700	424
471.051	428
471.402	434
471.754	441
472.105	448
472.456	455
472.807	463
473.158	471
473.509	480
473.860	490
474.211	501
474.562	511
474.913	523
475.264	535
475.615	547
475.966	558
476.316	570
476.667	581
477.018	593
477.368	606
477.719	618
478.070	630
478.420	641
478.771	652
479.121	664
479.472	675
479.822	686
480.172	699
480.523	713
480.873	733
481.223	765
481.573	812
481.924	871
482.274	937
482.624	1006
482.974	1076
483.324	1137
483.674	1183
484.024	1216
484.374	1237
484.724	1251
485.073	1261
485.423	1271
485.773	1279
486.123	1288
486.472	1296
486.822	1304
487.172	1311
487.521	1317
487.871	1320
488.220	1318
488.570	1303
488.919	1273
489.268	1231
489.618	1181
489.967	1128
490.316	1074
490.666	1028
491.015	996
491.364	977
491.713	968
492.062	967
492.411	970
492.760	975
493.109	980
493.458	985
493.807	989
494.156	993
494.505	997
494.853	1002
495.202	1008
495.551	1015
495.900	1022
496.248	1030
496.597	1037
496.945	1044
497.294	1051
497.642	1059
497.991	1067
498.339	1077
498.688	1087
499.036	1097
499.384	1107
499.732	1115
500.081	1122
500.429	1129
500.777	1135
501.125	1141
501.473	1147
501.821	1154
502.169	1159
502.517	1164
502.865	1168
503.213	1171
503.561	1173
503.908	1175
504.256	1177
504.604	1177
504.952	1178
505.299	1177
505.647	1176
505.994	1174
506.342	1172
506.689	1169
507.037	1168
507.384	1167
507.732	1166
508.079	1166
508.426	1166
508.774	1167
509.121	1166
509.468	1166
509.815	1165
510.162	1165
510.509	1164
510.856	1163
511.203	1161
511.550	1160
511.897	1159
512.244	1157
512.591	1156
512.938	1155
513.284	1155
513.631	1153
513.978	1151
514.324	1149
514.671	1147
515.018	1144
515.364	1142
515.711	1140
516.057	1138
516.403	1137
516.750	1135
517.096	1132
517.443	1128
517.789	1125
518.135	1122
518.481	1120
518.827	1118
519.173	1115
519.519	1113
519.865	1111
520.211	1109
520.557	1107
520.903	1107
521.249	1106
521.595	1106
521.941	1105
522.287	1104
522.632	1104
522.978	1104
523.324	1104
523.669	1105
524.015	1107
524.360	1110
524.706	1115
525.051	1121
525.397	1128
525.742	1135
526.087	1142
526.433	1150
526.778	1156
527.123	1162
527.468	1167
527.813	1171
528.158	1175
528.504	1181
528.849	1189
529.193	1198
529.538	1209
529.883	1222
530.228	1237
530.573	1254
530.918	1271
531.263	1289
531.607	1304
531.952	1319
532.296	1331
532.641	1342
532.986	1351
533.330	1359
533.675	1368
534.019	1379
534.363	1393
534.708	1409
535.052	1427
535.396	1447
535.741	1465
536.085	1482
536.429	1497
536.773	1511
537.117	1521
537.461	1531
537.805	1540
538.149	1550
538.493	1561
538.837	1572
539.181	1586
539.524	1602
539.868	1621
540.212	1641
540.556	1663
540.899	1686
541.243	1706
541.586	1724
541.930	1739
542.273	1750
542.617	1759
542.960	1769
543.304	1782
543.647	1798
543.990	1818
544.333	1839
544.677	1862
545.020	1884
545.363	1902
545.706	1917
546.049	1929
546.392	1937
546.735	1942
547.078	1946
547.421	1950
547.764	1955
548.106	1961
548.449	1971
548.792	1983
549.135	1999
549.477	2018
549.820	2037
550.162	2055
550.505	2069
550.847	2080
551.190	2089
551.532	2096
551.875	2104
552.217	2113
552.559	2124
552.901	2138
553.244	2154
553.586	2172
553.928	2191
554.270	2207
554.612	2222
554.954	2234
555.296	2244
555.638	2254
555.980	2265
556.322	2279
556.663	2297
557.005	2320
557.347	2349
557.689	2379
558.030	2409
558.372	2437
558.713	2463
559.055	2488
559.396	2512
559.738	2538
560.079	2566
560.421	2597
560.762	2633
561.103	2671
561.444	2714
561.786	2758
562.127	2804
562.468	2855
562.809	2911
563.150	2972
563.491	3038
563.832	3111
564.173	3194
564.514	3290
564.855	3404
565.195	3544
565.536	3711
565.877	3904
566.218	4123
566.558	4370
566.899	4642
567.239	4935
567.580	5242
567.920	5558
568.261	5877
568.601	6204
568.941	6543
569.282	6892
569.622	7253
569.962	7630
570.302	8031
570.643	8447
570.983	8866
571.323	9271
571.663	9661
572.003	10033
572.343	10381
572.683	10709
573.022	11044
573.362	11397
573.702	11762
574.042	12126
574.381	12476
574.721	12810
575.061	13130
575.400	13420
575.740	13678
576.079	13907
576.419	14136
576.758	14397
577.097	14703
577.437	15039
577.776	15397
578.115	15771
578.454	16149
578.794	16495
579.133	16766
579.472	16953
579.811	17061
580.150	17099
580.489	17081
580.828	17039
581.167	17001
581.505	16976
581.844	16959
582.183	16942
582.522	16937
582.860	16942
583.199	16947
583.538	16926
583.876	16853
584.215	16709
584.553	16487
584.891	16189
585.230	15825
585.568	15424
585.906	15016
586.245	14648
586.583	14332
586.921	14070
587.259	13832
587.597	13593
587.935	13344
588.273	13088
588.611	12851
588.949	12641
589.287	12466
589.625	12329
589.963	12221
590.300	12135
590.638	12056
590.976	11967
591.313	11863
591.651	11762
591.989	11677
592.326	11608
592.664	11548
593.001	11499
593.338	11469
593.676	11455
594.013	11463
594.350	11507
594.687	11581
595.025	11662
595.362	11736
595.699	11789
596.036	11822
596.373	11830
596.710	11807
597.047	11763
597.384	11710
597.720	11651
598.057	11603
598.394	11569
598.731	11551
599.067	11551
599.404	11572
599.741	11620
600.077	11688
600.414	11762
600.750	11841
601.087	11900
601.423	11929
601.759	11930
602.096	11911
602.432	11878
602.768	11825
603.104	11752
603.440	11662
603.776	11566
604.112	11461
604.448	11355
604.784	11242
605.120	11123
605.456	11006
605.792	10884
606.128	10755
606.463	10623
606.799	10490
607.135	10370
607.470	10252
607.806	10133
608.142	10017
608.477	9906
608.812	9799
609.148	9691
609.483	9577
609.819	9461
610.154	9350
610.489	9249
610.824	9159
611.159	9084
611.494	9008
611.830	8941
612.165	8875
612.500	8802
612.834	8717
613.169	8619
613.504	8513
613.839	8394
614.174	8260
614.509	8126
614.843	7991
615.178	7864
615.512	7737
615.847	7614
616.182	7490
616.516	7365
616.850	7233
617.185	7097
617.519	6957
617.853	6807
618.188	6652
618.522	6511
618.856	6392
619.190	6286
619.524	6194
619.858	6121
620.192	6064
620.526	6013
620.860	5962
621.194	5913
621.528	5864
621.862	5816
622.195	5758
622.529	5696
622.863	5632
623.196	5568
623.530	5503
623.864	5439
624.197	5373
624.530	5310
624.864	5252
625.197	5193
625.531	5124
625.864	5043
626.197	4956
626.530	4862
626.863	4756
627.196	4642
627.529	4525
627.862	4411
628.195	4297
628.528	4185
628.861	4077
629.194	3981
629.527	3889
629.860	3798
630.192	3709
630.525	3625
630.858	3547
631.190	3473
631.523	3401
631.855	3334
632.188	3276
632.520	3222
632.852	3171
633.185	3119
633.517	3068
633.849	3023
634.182	2981
634.514	2940
634.846	2905
635.178	2873
635.510	2844
635.842	2819
636.174	2793
636.506	2768
636.837	2744
637.169	2719
637.501	2694
637.833	2666
638.164	2634
638.496	2600
638.828	2561
639.159	2517
639.491	2468
639.822	2418
640.154	2368
640.485	2318
640.816	2269
641.147	2220
641.479	2174
641.810	2129
642.141	2085
642.472	2043
642.803	2000
643.134	1959
643.465	1924
643.796	1897
644.127	1877
644.458	1866
644.789	1865
645.119	1875
645.450	1892
645.781	1911
646.111	1930
646.442	1947
646.773	1960
647.103	1970
647.433	1979
647.764	1988
648.094	2001
648.425	2017
648.755	2036
649.085	2059
649.415	2082
649.745	2106
650.075	2131
650.405	2159
650.735	2221
651.065	2669
651.395	4053
651.725	6371
652.055	9346
652.385	12799
652.715	16471
653.044	20144
653.374	23821
653.704	26668
654.033	28688
654.363	30084
654.692	31012
655.022	31619
655.351	32017
655.680	32265
656.010	32400
656.339	32460
656.668	32476
656.997	32469
657.326	32445
657.655	32377
657.984	31915
658.313	30509
658.642	28162
658.971	25149
659.300	21655
659.629	17942
659.958	14230
660.286	10518
660.615	7641
660.944	5597
661.272	4180
661.601	3232
661.929	2603
662.258	2180
662.586	1902
662.915	1733
663.243	1635
663.571	1580
663.899	1546
664.228	1525
664.556	1511
664.884	1502
665.212	1495
665.540	1490
665.868	1487
666.196	1486
666.524	1485
666.852	1486
667.179	1492
667.507	1503
667.835	1520
668.162	1542
668.490	1569
668.818	1602
669.145	1636
669.473	1669
669.800	1700
670.127	1728
670.455	1751
670.782	1770
671.109	1787
671.436	1801
671.764	1813
672.091	1822
672.418	1830
672.745	1837
673.072	1844
673.399	1852
673.726	1861
674.053	1868
674.379	1870
674.706	1870
675.033	1869
675.359	1867
675.686	1863
676.013	1861
676.339	1862
676.666	1868
676.992	1883
677.318	1901
677.645	1924
677.971	1944
678.297	1963
678.624	1981
678.950	1998
679.276	2015
679.602	2031
679.928	2048
680.254	2068
680.580	2094
680.906	2127
681.232	2168
681.558	2210
681.883	2252
682.209	2291
682.535	2328
682.860	2360
683.186	2388
683.511	2410
683.837	2424
684.162	2436
684.488	2445
684.813	2455
685.138	2464
685.464	2471
685.789	2477
686.114	2484
686.439	2492
686.764	2501
687.089	2507
687.414	2508
687.739	2501
688.064	2486
688.389	2467
688.714	2445
689.039	2421
689.363	2395
689.688	2368
690.013	2341
690.337	2317
690.662	2297
690.986	2279
691.311	2261
691.635	2242
691.959	2225
692.284	2214
692.608	2211
692.932	2215
693.256	2223
693.580	2232
693.904	2245
694.228	2260
694.552	2273
694.876	2279
695.200	2278
695.524	2269
695.848	2255
696.172	2237
696.495	2218
696.819	2198
697.143	2177
697.466	2156
697.790	2139
698.113	2127
698.437	2121
698.760	2120
699.083	2119
699.407	2113
699.730	2102
700.053	2085
700.376	2061
700.699	2028
701.022	1987
701.345	1941
701.668	1899
701.991	1864
702.314	1839
702.637	1828
702.960	1833
703.283	1852
703.605	1886
703.928	1932
704.251	1983
704.573	2035
704.896	2082
705.218	2119
705.540	2150
705.863	2173
706.185	2193
706.507	2211
706.830	2227
707.152	2245
707.474	2263
707.796	2284
708.118	2305
708.440	2326
708.762	2344
709.084	2359
709.406	2367
709.728	2369
710.049	2364
710.371	2355
710.693	2339
711.014	2323
711.336	2306
711.658	2291
711.979	2278
712.301	2266
712.622	2254
712.943	2238
713.265	2219
713.586	2199
713.907	2180
714.228	2163
714.549	2150
714.870	2141
715.191	2137
715.512	2136
715.833	2133
716.154	2127
716.475	2118
716.796	2105
717.117	2085
717.437	2062
717.758	2035
718.078	2009
718.399	1983
718.719	1960
719.040	1940
719.360	1925
719.681	1914
720.001	1907
720.321	1903
720.642	1902
720.962	1903
721.282	1908
721.602	1914
721.922	1921
722.242	1930
722.562	1943
722.882	1958
723.202	1972
723.521	1984
723.841	1997
724.161	2011
724.481	2025
724.800	2038
725.120	2056
725.439	2078
725.759	2102
726.078	2130
726.398	2164
726.717	2206
727.036	2253
727.355	2302
727.675	2351
727.994	2397
728.313	2441
728.632	2479
728.951	2511
729.270	2538
729.589	2563
729.908	2595
730.226	2630
730.545	2670
730.864	2713
731.182	2758
731.501	2804
731.820	2848
732.138	2886
732.457	2920
732.775	2950
733.093	2975
733.412	2990
733.730	2993
734.048	2987
734.367	2974
734.685	2956
735.003	2935
735.321	2916
735.639	2901
735.957	2890
736.275	2879
736.593	2863
736.910	2839
737.228	2805
737.546	2762
737.863	2711
738.181	2656
738.499	2597
738.816	2539
739.134	2482
739.451	2424
739.768	2366
740.086	2310
740.403	2258
740.720	2210
741.038	2165
741.355	2121
741.672	2078
741.989	2034
742.306	1988
742.623	1941
742.940	1895
743.257	1853
743.573	1815
743.890	1785
744.207	1762
744.523	1746
744.840	1736
745.157	1730
745.473	1729
745.790	1735
746.106	1749
746.422	1769
746.739	1794
747.055	1825
747.371	1859
747.687	1896
748.004	1930
748.320	1960
748.636	1987
748.952	2013
749.268	2040
749.584	2066
749.899	2089
750.215	2113
750.531	2140
750.847	2170
751.162	2200
751.478	2230
751.793	2260
752.109	2293
752.424	2328
752.740	2363
753.055	2404
753.370	2452
753.686	2509
754.001	2570
754.316	2634
754.631	2701
754.946	2773
755.261	2849
755.576	2923
755.891	2994
756.206	3064
756.521	3138
756.836	3214
757.150	3287
757.465	3351
757.780	3406
758.094	3451
758.409	3487
758.723	3509
759.038	3519
759.352	3519
759.667	3509
759.981	3491
760.295	3474
760.609	3460
760.923	3451
761.238	3446
761.552	3441
761.866	3437
762.180	3429
762.493	3410
762.807	3374
763.121	3319
763.435	3250
763.749	3174
764.062	3103
764.376	3045
764.689	3004
765.003	2982
765.316	2978
765.630	2987
765.943	3004
766.257	3024
766.570	3041
766.883	3045
767.196	3037
767.509	3018
767.822	2988
768.135	2952
768.448	2911
768.761	2869
769.074	2832
769.387	2804
769.700	2787
770.013	2776
770.325	2767
770.638	2755
770.950	2731
771.263	2694
771.575	2643
771.888	2578
772.200	2503
772.513	2421
772.825	2335
773.137	2246
773.449	2159
773.761	2075
774.074	1996
774.386	1927
774.698	1868
775.010	1820
775.321	1785
775.633	1763
775.945	1749
776.257	1741
776.568	1739
776.880	1744
777.192	1757
777.503	1776
777.815	1799
778.126	1829
778.438	1866
778.749	1906
779.060	1944
779.372	1979
779.683	2014
779.994	2045
780.305	2070
780.616	2087
780.927	2098
781.238	2101
781.549	2096
781.860	2082
782.171	2063
782.481	2042
782.792	2021
783.103	2000
783.413	1976
783.724	1952
784.034	1928
784.345	1906
784.655	1886
784.966	1865
785.276	1844
785.586	1823
785.896	1802
786.207	1780
786.517	1757
786.827	1734
787.137	1713
787.447	1692
787.757	1672
788.066	1654
788.376	1635
788.686	1617
788.996	1598
789.305	1580
789.615	1566
789.925	1557
790.234	1555
790.544	1559
790.853	1566
791.162	1574
791.472	1580
791.781	1584
792.090	1580
792.399	1570
792.708	1555
793.017	1539
793.326	1523
793.635	1507
793.944	1493
794.253	1481
794.562	1472
794.871	1466
795.179	1462
795.488	1457
795.797	1449
796.105	1436
796.414	1414
796.722	1385
797.031	1347
797.339	1303
797.647	1253
797.956	1201
798.264	1152
798.572	1112
798.880	1081
799.188	1058
799.496	1041
799.804	1028
800.112	1019
800.420	1011
800.728	1003
801.035	992
801.343	980
801.651	971
801.958	969
802.266	973
802.573	981
802.881	991
803.188	1004
803.496	1018
803.803	1032
804.110	1045
804.417	1057
804.724	1067
805.032	1076
805.339	1084
805.646	1090
805.953	1093
806.259	1093
806.566	1091
806.873	1087
807.180	1082
807.486	1076
807.793	1069
808.100	1058
808.406	1040
808.713	1016
809.019	988
809.326	961
809.632	934
809.938	909
810.244	886
810.551	867
810.857	851
811.163	837
811.469	822
811.775	806
812.081	790
812.387	775
812.692	763
812.998	754
813.304	747
813.610	741
813.915	736
814.221	733
814.526	730
814.832	727
815.137	723
815.443	719
815.748	712
816.053	702
816.358	693
816.664	684
816.969	676
817.274	669
817.579	663
817.884	660
818.189	659
818.493	658
818.798	657
819.103	653
819.408	647
819.712	639
820.017	630
820.321	622
820.626	613
820.930	605
821.235	600
821.539	597
821.843	597
822.148	599
822.452	600
822.756	599
823.060	597
823.364	594
823.668	588
823.972	582
824.276	576
824.580	571
824.883	568
825.187	567
825.491	567
825.795	567
826.098	568
826.402	567
826.705	565
827.008	561
827.312	555
827.615	546
827.918	535
828.222	522
828.525	510
828.828	497
829.131	485
829.434	473
829.737	462
830.040	453
830.343	445
830.645	439
830.948	432
831.251	426
831.553	421
831.856	416
832.159	412
832.461	407
832.764	400
833.066	395
833.368	391
833.671	387
833.973	384
834.275	382
834.577	379
834.879	376
835.181	372
835.483	368
835.785	363
836.087	357
836.389	349
836.690	340
836.992	331
837.294	321
837.595	311
837.897	300
838.198	290
838.500	280
838.801	271
839.103	263
839.404	257
839.705	251
840.006	247
840.307	243
840.608	240
840.910	238
841.210	237
841.511	235
841.812	233
842.113	230
842.414	226
842.715	223
843.015	218
843.316	213
843.616	209
843.917	205
844.217	202
844.518	199
844.818	196
845.118	195
845.419	194
845.719	193
846.019	192
846.319	191
846.619	190
846.919	189
847.219	189
847.519	188
847.819	187
848.118	187
848.418	190
848.718	195
849.017	204
849.317	218
849.616	234
849.916	252
850.215	272
850.515	293
850.814	315
851.113	335
851.412	352
851.712	367
852.011	382
852.310	396
852.609	408
852.908	419
853.206	429
853.505	438
853.804	445
854.103	452
854.401	457
854.700	459
854.999	457
855.297	451
855.595	442
855.894	430
856.192	414
856.491	396
856.789	377
857.087	357
857.385	339
857.683	322
857.981	307
858.279	293
858.577	280
858.875	268
859.173	259
859.471	251
859.768	245
860.066	239
860.363	235
860.661	231
860.959	228
861.256	225
861.553	221
861.851	217
862.148	213
862.445	208
862.742	205
863.039	202
863.337	198
863.634	196
863.931	195
864.227	194
864.524	194
864.821	194
865.118	193
865.415	192
865.711	189
866.008	186
866.304	182
866.601	179
866.897	176
867.194	173
867.490	172
867.786	171
868.082	171
868.379	171
868.675	172
868.971	172
869.267	172
869.563	173
869.859	172
870.154	172
870.450	171
870.746	170
871.042	169
871.337	169
871.633	169
871.928	170
872.224	172
872.519	174
872.815	175
873.110	175
873.405	175
873.700	175
873.995	175
874.291	174
874.586	175
874.881	176
875.175	178
875.470	180
875.765	183
876.060	187
876.355	190
876.649	194
876.944	198
877.238	201
877.533	204
877.827	206
878.122	207
878.416	208
878.710	208
879.005	207
879.299	206
879.593	205
879.887	204
880.181	203
880.475	202
880.769	200
881.063	199
881.356	196
881.650	194
881.944	191
882.238	158
882.531	146
882.825	151
883.118	152
883.412	157
883.705	151
883.998	155
884.291	161
884.585	162
884.878	177
>>>>>>>>>> END of Data <<<<<<<<<<