Date	2021年06月15日火曜日 04時11分35秒
Spectrometers	USB2+H05879
ダーク	使用
リファレンス	使用
積分時間[msec]	10
平均回数	280
ｽﾑｰｼﾞﾝｸﾞ	10
Electrical Dark	USE
ピクセル数	2048
計測モード	吸光度
保存開始波長[nm]	190.664
保存終了波長[nm]	884.878
保存ﾋﾟｯﾁ波長[nm]	全波長

>>>>>>>>>> Data Start <<<<<<<<<<<<
190.664	0.000000
191.040	0.000000
191.415	0.000000
191.791	-2.680566
192.166	-0.559132
192.542	-1.025801
192.917	0.000000
193.293	-0.474893
193.668	-0.223473
194.044	-1.087092
194.419	0.000000
194.794	-1.405448
195.170	-1.311903
195.545	-1.217573
195.920	-1.080064
196.296	-0.961925
196.671	-0.794499
197.046	-0.639143
197.421	-0.588578
197.796	-0.588098
198.171	-0.555012
198.546	-0.508024
198.922	-0.466007
199.297	-0.437470
199.672	-0.414609
200.047	-0.386931
200.422	-0.362307
200.796	-0.365496
201.171	-0.347568
201.546	-0.351150
201.921	-0.347473
202.296	-0.335136
202.671	-0.309903
203.045	-0.288191
203.420	-0.275126
203.795	-0.261051
204.170	-0.255538
204.544	-0.252085
204.919	-0.246973
205.294	-0.239322
205.668	-0.222486
206.043	-0.211311
206.417	-0.215978
206.792	-0.206751
207.166	-0.199078
207.541	-0.195638
207.915	-0.203103
208.289	-0.187906
208.664	-0.170635
209.038	-0.174833
209.412	-0.168431
209.787	-0.144989
210.161	-0.133785
210.535	-0.140806
210.909	-0.124741
211.284	-0.117894
211.658	-0.125108
212.032	-0.126911
212.406	-0.131309
212.780	-0.135956
213.154	-0.140264
213.528	-0.141723
213.902	-0.135205
214.276	-0.126214
214.650	-0.126327
215.024	-0.129349
215.398	-0.127860
215.772	-0.115968
216.145	-0.111781
216.519	-0.105967
216.893	-0.101161
217.267	-0.098973
217.640	-0.102446
218.014	-0.092690
218.388	-0.085810
218.761	-0.100994
219.135	-0.091225
219.508	-0.090201
219.882	-0.096964
220.256	-0.092758
220.629	-0.086835
221.003	-0.089535
221.376	-0.089737
221.749	-0.091645
222.123	-0.092791
222.496	-0.093096
222.869	-0.085667
223.243	-0.086562
223.616	-0.085897
223.989	-0.092956
224.362	-0.091995
224.736	-0.092942
225.109	-0.088355
225.482	-0.093032
225.855	-0.099352
226.228	-0.104655
226.601	-0.101597
226.974	-0.102818
227.347	-0.088440
227.720	-0.079041
228.093	-0.082115
228.466	-0.083045
228.839	-0.077153
229.212	-0.078815
229.585	-0.089975
229.957	-0.087881
230.330	-0.081342
230.703	-0.080043
231.076	-0.079913
231.448	-0.087567
231.821	-0.083482
232.194	-0.084093
232.566	-0.079250
232.939	-0.079746
233.311	-0.082250
233.684	-0.076210
234.056	-0.069400
234.429	-0.068643
234.801	-0.071246
235.174	-0.070843
235.546	-0.073193
235.918	-0.072753
236.291	-0.076128
236.663	-0.073920
237.035	-0.077477
237.408	-0.063538
237.780	-0.058038
238.152	-0.065256
238.524	-0.076737
238.896	-0.070534
239.268	-0.066517
239.641	-0.072439
240.013	-0.061518
240.385	-0.058022
240.757	-0.064081
241.129	-0.060214
241.500	-0.058870
241.872	-0.058861
242.244	-0.056711
242.616	-0.057594
242.988	-0.057769
243.360	-0.046102
243.731	-0.032876
244.103	-0.032945
244.475	-0.039856
244.847	-0.033045
245.218	-0.032662
245.590	-0.029843
245.961	-0.025740
246.333	-0.018072
246.705	-0.027742
247.076	-0.029746
247.448	-0.023929
247.819	-0.029749
248.190	-0.024312
248.562	-0.022959
248.933	-0.022768
249.305	-0.018542
249.676	-0.013882
250.047	-0.018995
250.418	-0.021586
250.790	-0.027646
251.161	-0.036585
251.532	-0.047678
251.903	-0.043769
252.274	-0.031253
252.645	-0.022038
253.016	-0.026844
253.387	-0.034698
253.758	-0.034438
254.129	-0.032612
254.500	-0.025540
254.871	-0.021600
255.242	-0.026127
255.613	-0.030862
255.984	-0.036207
256.355	-0.036825
256.725	-0.033687
257.096	-0.034491
257.467	-0.034494
257.838	-0.028552
258.208	-0.022747
258.579	-0.016776
258.949	-0.014567
259.320	-0.007167
259.690	-0.004147
260.061	-0.003311
260.431	-0.000828
260.802	0.001803
261.172	0.012864
261.543	0.015665
261.913	0.015332
262.283	0.014365
262.654	0.013858
263.024	0.020771
263.394	0.024394
263.764	0.027408
264.135	0.031753
264.505	0.033186
264.875	0.030717
265.245	0.033465
265.615	0.030768
265.985	0.033534
266.355	0.031776
266.725	0.027423
267.095	0.027416
267.465	0.025492
267.835	0.027159
268.205	0.013845
268.575	0.018648
268.944	0.015008
269.314	0.013354
269.684	0.013874
270.054	0.005898
270.423	0.005542
270.793	0.003748
271.163	0.007065
271.532	0.002333
271.902	0.003865
272.271	0.000303
272.641	0.001426
273.010	-0.004337
273.380	-0.000918
273.749	-0.003224
274.119	-0.001740
274.488	0.007406
274.857	0.005143
275.227	0.009136
275.596	0.004837
275.965	0.006743
276.335	0.004841
276.704	0.000213
277.073	0.002638
277.442	-0.001400
277.811	0.011182
278.180	0.016577
278.549	0.013401
278.918	0.009420
279.287	0.013297
279.656	0.021186
280.025	0.024318
280.394	0.026071
280.763	0.031519
281.132	0.033726
281.501	0.037300
281.869	0.034708
282.238	0.038569
282.607	0.037805
282.976	0.035839
283.344	0.035765
283.713	0.038378
284.081	0.037256
284.450	0.046956
284.819	0.048672
285.187	0.060423
285.556	0.057160
285.924	0.056794
286.292	0.055566
286.661	0.054343
287.029	0.054895
287.398	0.054308
287.766	0.056532
288.134	0.052873
288.502	0.053765
288.871	0.056164
289.239	0.059858
289.607	0.062100
289.975	0.053928
290.343	0.059695
290.711	0.060919
291.079	0.059619
291.447	0.061050
291.815	0.063907
292.183	0.063045
292.551	0.065032
292.919	0.063335
293.287	0.070099
293.655	0.070092
294.022	0.075608
294.390	0.083556
294.758	0.089333
295.126	0.081360
295.493	0.082027
295.861	0.086987
296.229	0.083224
296.596	0.085029
296.964	0.080628
297.331	0.087106
297.699	0.093427
298.066	0.097094
298.434	0.102935
298.801	0.110282
299.168	0.112703
299.536	0.120028
299.903	0.114584
300.270	0.116181
300.638	0.124075
301.005	0.127036
301.372	0.132696
301.739	0.142916
302.106	0.144972
302.473	0.150601
302.840	0.162204
303.207	0.181296
303.574	0.199291
303.941	0.217380
304.308	0.228036
304.675	0.241844
305.042	0.261605
305.409	0.281401
305.776	0.293222
306.143	0.309659
306.509	0.325873
306.876	0.348657
307.243	0.369378
307.610	0.395884
307.976	0.423403
308.343	0.447369
308.709	0.478395
309.076	0.513464
309.442	0.540365
309.809	0.574151
310.175	0.606371
310.542	0.637851
310.908	0.658946
311.275	0.682714
311.641	0.709567
312.007	0.738982
312.373	0.770161
312.740	0.795911
313.106	0.825495
313.472	0.860464
313.838	0.889078
314.204	0.917840
314.570	0.941827
314.936	0.967558
315.302	0.996004
315.668	1.018619
316.034	1.050726
316.400	1.082855
316.766	1.102487
317.132	1.130489
317.498	1.156089
317.864	1.172815
318.230	1.190585
318.595	1.212831
318.961	1.233200
319.327	1.257887
319.692	1.275194
320.058	1.290244
320.424	1.302382
320.789	1.316648
321.155	1.332278
321.520	1.349857
321.886	1.371355
322.251	1.389634
322.616	1.401244
322.982	1.415649
323.347	1.422390
323.712	1.434069
324.078	1.443553
324.443	1.449702
324.808	1.455925
325.173	1.465627
325.539	1.477973
325.904	1.487348
326.269	1.497039
326.634	1.503732
326.999	1.512524
327.364	1.521082
327.729	1.530026
328.094	1.537217
328.459	1.540526
328.823	1.544979
329.188	1.551801
329.553	1.553691
329.918	1.561662
330.283	1.571712
330.647	1.577940
331.012	1.589222
331.377	1.591598
331.741	1.591234
332.106	1.598783
332.470	1.604419
332.835	1.606442
333.199	1.608212
333.564	1.613597
333.928	1.616414
334.293	1.622153
334.657	1.622291
335.021	1.625972
335.386	1.626009
335.750	1.628754
336.114	1.633010
336.478	1.636330
336.843	1.636926
337.207	1.638368
337.571	1.640487
337.935	1.639765
338.299	1.639848
338.663	1.638540
339.027	1.641250
339.391	1.643346
339.755	1.644708
340.119	1.644075
340.483	1.643415
340.846	1.646743
341.210	1.648451
341.574	1.650013
341.938	1.650410
342.301	1.652840
342.665	1.654813
343.029	1.657374
343.392	1.660056
343.756	1.659579
344.119	1.660759
344.483	1.663311
344.846	1.666624
345.210	1.668773
345.573	1.669232
345.937	1.669044
346.300	1.670450
346.663	1.671566
347.027	1.674733
347.390	1.675025
347.753	1.675681
348.116	1.677955
348.479	1.679598
348.843	1.678922
349.206	1.679411
349.569	1.679308
349.932	1.681044
350.295	1.680569
350.658	1.681466
351.021	1.682867
351.383	1.686565
351.746	1.687162
352.109	1.687586
352.472	1.685952
352.835	1.686587
353.197	1.689584
353.560	1.692212
353.923	1.692888
354.285	1.692705
354.648	1.691827
355.011	1.691666
355.373	1.693884
355.736	1.695046
356.098	1.695477
356.461	1.698430
356.823	1.699879
357.185	1.702639
357.548	1.703146
357.910	1.704856
358.272	1.704340
358.635	1.703959
358.997	1.704235
359.359	1.706823
359.721	1.707405
360.083	1.711244
360.445	1.712385
360.807	1.712336
361.169	1.712717
361.531	1.714041
361.893	1.715189
362.255	1.717601
362.617	1.720942
362.979	1.722613
363.341	1.721751
363.703	1.722529
364.064	1.723781
364.426	1.724790
364.788	1.725769
365.149	1.726779
365.511	1.726651
365.873	1.728872
366.234	1.729711
366.596	1.730975
366.957	1.731436
367.319	1.732702
367.680	1.732445
368.042	1.731492
368.403	1.733051
368.764	1.735749
369.126	1.736239
369.487	1.737229
369.848	1.737963
370.209	1.737427
370.570	1.737276
370.931	1.740610
371.293	1.740552
371.654	1.740390
372.015	1.742200
372.376	1.743311
372.737	1.743662
373.098	1.744592
373.458	1.746140
373.819	1.748598
374.180	1.749760
374.541	1.751254
374.902	1.751699
375.263	1.751941
375.623	1.754012
375.984	1.756107
376.345	1.756630
376.705	1.759072
377.066	1.761257
377.426	1.761647
377.787	1.764092
378.147	1.765795
378.508	1.765813
378.868	1.766239
379.228	1.766688
379.589	1.766177
379.949	1.766065
380.309	1.768528
380.670	1.769786
381.030	1.769742
381.390	1.769833
381.750	1.768624
382.110	1.767684
382.470	1.769712
382.830	1.771598
383.190	1.773666
383.550	1.772424
383.910	1.773609
384.270	1.774397
384.630	1.776023
384.990	1.776702
385.350	1.777821
385.709	1.778408
386.069	1.780869
386.429	1.782099
386.788	1.784368
387.148	1.786237
387.508	1.786899
387.867	1.785695
388.227	1.785501
388.586	1.786668
388.946	1.787723
389.305	1.789323
389.665	1.791289
390.024	1.792324
390.383	1.792742
390.743	1.791314
391.102	1.792963
391.461	1.791420
391.820	1.791701
392.179	1.790688
392.539	1.791406
392.898	1.792035
393.257	1.792351
393.616	1.792559
393.975	1.793787
394.334	1.794096
394.693	1.795043
395.051	1.796623
395.410	1.797804
395.769	1.800227
396.128	1.801509
396.487	1.800842
396.845	1.801355
397.204	1.800693
397.563	1.799179
397.921	1.798346
398.280	1.798074
398.638	1.795841
398.997	1.796256
399.355	1.794812
399.714	1.793920
400.072	1.792159
400.431	1.789446
400.789	1.788560
401.147	1.787108
401.506	1.785016
401.864	1.782754
402.222	1.780904
402.580	1.778575
402.938	1.778107
403.297	1.775328
403.655	1.772944
404.013	1.772254
404.371	1.770969
404.729	1.768764
405.087	1.767459
405.444	1.766213
405.802	1.765367
406.160	1.765570
406.518	1.764257
406.876	1.763651
407.233	1.763005
407.591	1.762565
407.949	1.762364
408.306	1.761489
408.664	1.759736
409.022	1.759299
409.379	1.758776
409.737	1.756879
410.094	1.754594
410.451	1.752016
410.809	1.751444
411.166	1.749635
411.523	1.748063
411.881	1.745790
412.238	1.745015
412.595	1.742490
412.952	1.740727
413.310	1.738408
413.667	1.737043
414.024	1.736466
414.381	1.734742
414.738	1.732674
415.095	1.730524
415.452	1.729115
415.809	1.726858
416.165	1.724908
416.522	1.722468
416.879	1.719897
417.236	1.717314
417.593	1.715607
417.949	1.713840
418.306	1.711700
418.663	1.711216
419.019	1.709361
419.376	1.707148
419.732	1.704395
420.089	1.703893
420.445	1.703027
420.802	1.702241
421.158	1.699455
421.514	1.696988
421.871	1.694637
422.227	1.691822
422.583	1.690313
422.939	1.687409
423.295	1.685360
423.652	1.682730
424.008	1.680294
424.364	1.678055
424.720	1.676645
425.076	1.674662
425.432	1.671946
425.788	1.669688
426.143	1.665842
426.499	1.662390
426.855	1.660821
427.211	1.658296
427.567	1.655493
427.922	1.652101
428.278	1.647813
428.634	1.645412
428.989	1.641937
429.345	1.638857
429.700	1.636005
430.056	1.632775
430.411	1.630272
430.767	1.627770
431.122	1.625415
431.478	1.621836
431.833	1.618247
432.188	1.613837
432.543	1.610508
432.899	1.606561
433.254	1.601689
433.609	1.598361
433.964	1.594946
434.319	1.590908
434.674	1.586675
435.029	1.582720
435.384	1.578267
435.739	1.574713
436.094	1.570801
436.449	1.567534
436.804	1.563611
437.158	1.559607
437.513	1.555690
437.868	1.551143
438.223	1.547091
438.577	1.542587
438.932	1.539930
439.287	1.536084
439.641	1.532366
439.996	1.528649
440.350	1.524747
440.704	1.521660
441.059	1.517269
441.413	1.513243
441.768	1.508443
442.122	1.505075
442.476	1.500689
442.830	1.496888
443.185	1.492953
443.539	1.488986
443.893	1.484728
444.247	1.480700
444.601	1.476830
444.955	1.472361
445.309	1.467884
445.663	1.463090
446.017	1.458523
446.371	1.453004
446.724	1.448106
447.078	1.443351
447.432	1.438176
447.786	1.433544
448.139	1.428266
448.493	1.423710
448.847	1.418898
449.200	1.414380
449.554	1.409614
449.907	1.404898
450.261	1.400061
450.614	1.395446
450.968	1.390569
451.321	1.385520
451.674	1.380674
452.027	1.375714
452.381	1.370787
452.734	1.366188
453.087	1.361685
453.440	1.356604
453.793	1.351841
454.146	1.347352
454.499	1.342961
454.852	1.338065
455.205	1.333447
455.558	1.328791
455.911	1.323857
456.264	1.319016
456.617	1.314599
456.970	1.309923
457.322	1.305717
457.675	1.301871
458.028	1.297518
458.380	1.293456
458.733	1.289468
459.086	1.285584
459.438	1.281378
459.791	1.277132
460.143	1.272846
460.496	1.268387
460.848	1.264246
461.200	1.259913
461.553	1.255309
461.905	1.251469
462.257	1.247487
462.609	1.243374
462.961	1.239678
463.314	1.236038
463.666	1.232137
464.018	1.228028
464.370	1.224468
464.722	1.220600
465.074	1.216247
465.426	1.212839
465.777	1.209251
466.129	1.205663
466.481	1.202083
466.833	1.198878
467.184	1.195832
467.536	1.192130
467.888	1.188638
468.239	1.185043
468.591	1.181424
468.943	1.177672
469.294	1.173144
469.646	1.169138
469.997	1.164680
470.348	1.160327
470.700	1.156400
471.051	1.153226
471.402	1.149795
471.754	1.146187
472.105	1.142862
472.456	1.140014
472.807	1.136710
473.158	1.133720
473.509	1.130828
473.860	1.127809
474.211	1.125041
474.562	1.122217
474.913	1.119463
475.264	1.116556
475.615	1.113961
475.966	1.111021
476.316	1.108068
476.667	1.105415
477.018	1.102652
477.368	1.100111
477.719	1.097541
478.070	1.094847
478.420	1.091960
478.771	1.089240
479.121	1.086420
479.472	1.083872
479.822	1.081077
480.172	1.078317
480.523	1.075308
480.873	1.072296
481.223	1.068808
481.573	1.065312
481.924	1.061672
482.274	1.058564
482.624	1.055612
482.974	1.053102
483.324	1.050886
483.674	1.048998
484.024	1.046999
484.374	1.045138
484.724	1.043380
485.073	1.041588
485.423	1.039780
485.773	1.037946
486.123	1.036168
486.472	1.034413
486.822	1.032562
487.172	1.030812
487.521	1.028973
487.871	1.027217
488.220	1.025258
488.570	1.023221
488.919	1.020660
489.268	1.017994
489.618	1.014773
489.967	1.011023
490.316	1.006654
490.666	1.002347
491.015	0.998269
491.364	0.994586
491.713	0.991195
492.062	0.988011
492.411	0.984983
492.760	0.982129
493.109	0.979193
493.458	0.976315
493.807	0.973505
494.156	0.970549
494.505	0.967607
494.853	0.964685
495.202	0.961751
495.551	0.958883
495.900	0.956025
496.248	0.953234
496.597	0.950192
496.945	0.947415
497.294	0.944768
497.642	0.942189
497.991	0.939311
498.339	0.936275
498.688	0.933602
499.036	0.930982
499.384	0.928333
499.732	0.925735
500.081	0.923074
500.429	0.920402
500.777	0.917726
501.125	0.915163
501.473	0.912690
501.821	0.910301
502.169	0.907919
502.517	0.905521
502.865	0.903226
503.213	0.900794
503.561	0.898513
503.908	0.896315
504.256	0.893846
504.604	0.891486
504.952	0.888929
505.299	0.886682
505.647	0.884439
505.994	0.882045
506.342	0.879653
506.689	0.877240
507.037	0.874894
507.384	0.872419
507.732	0.870227
508.079	0.867927
508.426	0.865674
508.774	0.863348
509.121	0.860991
509.468	0.858862
509.815	0.856676
510.162	0.854465
510.509	0.852442
510.856	0.850181
511.203	0.847989
511.550	0.845953
511.897	0.843897
512.244	0.841909
512.591	0.839700
512.938	0.837684
513.284	0.835500
513.631	0.833380
513.978	0.831245
514.324	0.829136
514.671	0.827146
515.018	0.824959
515.364	0.822918
515.711	0.820856
516.057	0.818765
516.403	0.816821
516.750	0.814838
517.096	0.812831
517.443	0.810734
517.789	0.808739
518.135	0.806825
518.481	0.804878
518.827	0.802928
519.173	0.800810
519.519	0.798810
519.865	0.796814
520.211	0.794839
520.557	0.792865
520.903	0.790771
521.249	0.788851
521.595	0.786765
521.941	0.784708
522.287	0.782653
522.632	0.780491
522.978	0.778395
523.324	0.776288
523.669	0.774127
524.015	0.771877
524.360	0.769757
524.706	0.767631
525.051	0.765499
525.397	0.763384
525.742	0.761345
526.087	0.759306
526.433	0.757322
526.778	0.755320
527.123	0.753366
527.468	0.751313
527.813	0.749481
528.158	0.747512
528.504	0.745400
528.849	0.743249
529.193	0.741124
529.538	0.738901
529.883	0.736749
530.228	0.734390
530.573	0.732283
530.918	0.730087
531.263	0.727842
531.607	0.725670
531.952	0.723548
532.296	0.721372
532.641	0.719204
532.986	0.716927
533.330	0.714587
533.675	0.712427
534.019	0.710176
534.363	0.707908
534.708	0.705534
535.052	0.703093
535.396	0.700786
535.741	0.698543
536.085	0.696253
536.429	0.693762
536.773	0.691461
537.117	0.689029
537.461	0.686447
537.805	0.683727
538.149	0.681078
538.493	0.678381
538.837	0.675645
539.181	0.672898
539.524	0.670101
539.868	0.667338
540.212	0.664564
540.556	0.661822
540.899	0.659007
541.243	0.656200
541.586	0.653384
541.930	0.650673
542.273	0.647906
542.617	0.645058
542.960	0.642035
543.304	0.638965
543.647	0.635964
543.990	0.632842
544.333	0.629679
544.677	0.626721
545.020	0.623713
545.363	0.620587
545.706	0.617519
546.049	0.614443
546.392	0.611304
546.735	0.608253
547.078	0.605079
547.421	0.601969
547.764	0.598744
548.106	0.595393
548.449	0.591991
548.792	0.588616
549.135	0.585142
549.477	0.581695
549.820	0.578332
550.162	0.575089
550.505	0.571719
550.847	0.568302
551.190	0.564711
551.532	0.561069
551.875	0.557154
552.217	0.553192
552.559	0.549368
552.901	0.545714
553.244	0.542056
553.586	0.538564
553.928	0.535122
554.270	0.531843
554.612	0.528379
554.954	0.524985
555.296	0.521518
555.638	0.518033
555.980	0.514301
556.322	0.510472
556.663	0.506462
557.005	0.502415
557.347	0.498436
557.689	0.494584
558.030	0.490773
558.372	0.486899
558.713	0.483077
559.055	0.479447
559.396	0.475736
559.738	0.471916
560.079	0.468006
560.421	0.464194
560.762	0.460405
561.103	0.456627
561.444	0.452865
561.786	0.449286
562.127	0.445702
562.468	0.442090
562.809	0.438438
563.150	0.434711
563.491	0.430892
563.832	0.426950
564.173	0.422900
564.514	0.418740
564.855	0.414467
565.195	0.410109
565.536	0.405887
565.877	0.401649
566.218	0.397438
566.558	0.393414
566.899	0.389538
567.239	0.385864
567.580	0.382385
567.920	0.379193
568.261	0.376211
568.601	0.373413
568.941	0.370741
569.282	0.368204
569.622	0.365708
569.962	0.363178
570.302	0.360699
570.643	0.358351
570.983	0.356133
571.323	0.353947
571.663	0.351822
572.003	0.349702
572.343	0.347567
572.683	0.345314
573.022	0.342996
573.362	0.340605
573.702	0.338205
574.042	0.335837
574.381	0.333485
574.721	0.331237
575.061	0.329054
575.400	0.326996
575.740	0.324954
576.079	0.322941
576.419	0.320816
576.758	0.318640
577.097	0.316432
577.437	0.314140
577.776	0.311778
578.115	0.309451
578.454	0.307257
578.794	0.305221
579.133	0.303415
579.472	0.301741
579.811	0.300152
580.150	0.298582
580.489	0.296968
580.828	0.295256
581.167	0.293529
581.505	0.291793
581.844	0.290045
582.183	0.288293
582.522	0.286596
582.860	0.284943
583.199	0.283374
583.538	0.281905
583.876	0.280444
584.215	0.278976
584.553	0.277488
584.891	0.276005
585.230	0.274448
585.568	0.272839
585.906	0.271197
586.245	0.269560
586.583	0.268036
586.921	0.266676
587.259	0.265441
587.597	0.264271
587.935	0.263055
588.273	0.261714
588.611	0.260224
588.949	0.258643
589.287	0.257037
589.625	0.255412
589.963	0.253867
590.300	0.252372
590.638	0.250957
590.976	0.249568
591.313	0.248136
591.651	0.246723
591.989	0.245301
592.326	0.243983
592.664	0.242774
593.001	0.241628
593.338	0.240582
593.676	0.239582
594.013	0.238619
594.350	0.237684
594.687	0.236778
595.025	0.235963
595.362	0.235083
595.699	0.234194
596.036	0.233261
596.373	0.232314
596.710	0.231303
597.047	0.230290
597.384	0.229266
597.720	0.228226
598.057	0.227238
598.394	0.226229
598.731	0.225226
599.067	0.224244
599.404	0.223259
599.741	0.222309
600.077	0.221429
600.414	0.220577
600.750	0.219817
601.087	0.219095
601.423	0.218340
601.759	0.217573
602.096	0.216747
602.432	0.215963
602.768	0.215182
603.104	0.214400
603.440	0.213594
603.776	0.212853
604.112	0.212099
604.448	0.211397
604.784	0.210743
605.120	0.210072
605.456	0.209459
605.792	0.208848
606.128	0.208246
606.463	0.207653
606.799	0.206997
607.135	0.206340
607.470	0.205703
607.806	0.205017
608.142	0.204364
608.477	0.203743
608.812	0.203149
609.148	0.202548
609.483	0.201959
609.819	0.201327
610.154	0.200691
610.489	0.200066
610.824	0.199457
611.159	0.198868
611.494	0.198253
611.830	0.197704
612.165	0.197209
612.500	0.196723
612.834	0.196234
613.169	0.195763
613.504	0.195261
613.839	0.194751
614.174	0.194200
614.509	0.193663
614.843	0.193169
615.178	0.192652
615.512	0.192197
615.847	0.191730
616.182	0.191316
616.516	0.190894
616.850	0.190491
617.185	0.190099
617.519	0.189647
617.853	0.189213
618.188	0.188688
618.522	0.188161
618.856	0.187602
619.190	0.187027
619.524	0.186475
619.858	0.185971
620.192	0.185486
620.526	0.184982
620.860	0.184604
621.194	0.184216
621.528	0.183763
621.862	0.183329
622.195	0.182902
622.529	0.182421
622.863	0.181977
623.196	0.181503
623.530	0.181072
623.864	0.180630
624.197	0.180250
624.530	0.179899
624.864	0.179516
625.197	0.179208
625.531	0.178902
625.864	0.178550
626.197	0.178146
626.530	0.177803
626.863	0.177384
627.196	0.176927
627.529	0.176548
627.862	0.176043
628.195	0.175538
628.528	0.175088
628.861	0.174628
629.194	0.174239
629.527	0.173819
629.860	0.173397
630.192	0.172990
630.525	0.172520
630.858	0.172121
631.190	0.171595
631.523	0.171101
631.855	0.170516
632.188	0.170037
632.520	0.169481
632.852	0.168970
633.185	0.168508
633.517	0.168025
633.849	0.167641
634.182	0.167295
634.514	0.166977
634.846	0.166712
635.178	0.166473
635.510	0.166182
635.842	0.165904
636.174	0.165583
636.506	0.165345
636.837	0.165050
637.169	0.164770
637.501	0.164473
637.833	0.164250
638.164	0.163984
638.496	0.163696
638.828	0.163369
639.159	0.163002
639.491	0.162678
639.822	0.162258
640.154	0.161799
640.485	0.161221
640.816	0.160654
641.147	0.160153
641.479	0.159541
641.810	0.159002
642.141	0.158499
642.472	0.158018
642.803	0.157494
643.134	0.156976
643.465	0.156456
643.796	0.156035
644.127	0.155609
644.458	0.155312
644.789	0.154947
645.119	0.154811
645.450	0.154714
645.781	0.154864
646.111	0.154917
646.442	0.154930
646.773	0.154849
647.103	0.154807
647.433	0.154750
647.764	0.154613
648.094	0.154431
648.425	0.154376
648.755	0.154255
649.085	0.154109
649.415	0.154063
649.745	0.154058
650.075	0.154046
650.405	0.153969
650.735	0.152570
651.065	0.144762
651.395	0.138318
651.725	0.126022
652.055	0.086320
652.385	0.064087
652.715	0.049914
653.044	0.040111
653.374	0.032947
653.704	0.027502
654.033	0.037874
654.363	0.044203
654.692	0.047786
655.022	0.049847
655.351	0.051079
655.680	0.051792
656.010	0.052162
656.339	0.052308
656.668	0.052322
656.997	0.052267
657.326	0.052162
657.655	0.052010
657.984	0.051119
658.313	0.047021
658.642	0.041523
658.971	0.047857
659.300	0.056088
659.629	0.067017
659.958	0.082229
660.286	0.104899
660.615	0.142332
660.944	0.141878
661.272	0.140029
661.601	0.139555
661.929	0.140211
662.258	0.141418
662.586	0.142724
662.915	0.143633
663.243	0.144017
663.571	0.143976
663.899	0.143762
664.228	0.143566
664.556	0.143432
664.884	0.143162
665.212	0.142927
665.540	0.142810
665.868	0.142624
666.196	0.142512
666.524	0.142397
666.852	0.142322
667.179	0.142143
667.507	0.141988
667.835	0.141951
668.162	0.141836
668.490	0.141731
668.818	0.141799
669.145	0.141944
669.473	0.142022
669.800	0.142034
670.127	0.142075
670.455	0.142117
670.782	0.142166
671.109	0.142113
671.436	0.142053
671.764	0.142092
672.091	0.142050
672.418	0.142036
672.745	0.141964
673.072	0.141872
673.399	0.141802
673.726	0.141679
674.053	0.141561
674.379	0.141429
674.706	0.141251
675.033	0.140996
675.359	0.140804
675.686	0.140550
676.013	0.140263
676.339	0.139997
676.666	0.139738
676.992	0.139562
677.318	0.139464
677.645	0.139354
677.971	0.139277
678.297	0.139249
678.624	0.139081
678.950	0.139020
679.276	0.138876
679.602	0.138686
679.928	0.138499
680.254	0.138276
680.580	0.138128
680.906	0.138028
681.232	0.137939
681.558	0.137998
681.883	0.138095
682.209	0.138104
682.535	0.138119
682.860	0.138109
683.186	0.138044
683.511	0.137999
683.837	0.137786
684.162	0.137619
684.488	0.137424
684.813	0.137244
685.138	0.137067
685.464	0.136945
685.789	0.136722
686.114	0.136499
686.439	0.136350
686.764	0.136257
687.089	0.136230
687.414	0.136155
687.739	0.136068
688.064	0.135939
688.389	0.135743
688.714	0.135521
689.039	0.135243
689.363	0.134982
689.688	0.134773
690.013	0.134519
690.337	0.134352
690.662	0.134272
690.986	0.134154
691.311	0.134034
691.635	0.133979
691.959	0.133811
692.284	0.133573
692.608	0.133360
692.932	0.133313
693.256	0.133297
693.580	0.133242
693.904	0.133045
694.228	0.133002
694.552	0.132946
694.876	0.132938
695.200	0.132753
695.524	0.132551
695.848	0.132380
696.172	0.132110
696.495	0.131752
696.819	0.131571
697.143	0.131207
697.466	0.130938
697.790	0.130554
698.113	0.130330
698.437	0.129993
698.760	0.129738
699.083	0.129612
699.407	0.129530
699.730	0.129334
700.053	0.129185
700.376	0.128935
700.699	0.128639
701.022	0.128182
701.345	0.127628
701.668	0.126878
701.991	0.126285
702.314	0.125586
702.637	0.125012
702.960	0.124408
703.283	0.124006
703.605	0.123555
703.928	0.123392
704.251	0.123290
704.573	0.123243
704.896	0.123110
705.218	0.123003
705.540	0.122778
705.863	0.122420
706.185	0.121960
706.507	0.121428
706.830	0.120835
707.152	0.120291
707.474	0.119818
707.796	0.119402
708.118	0.118965
708.440	0.118701
708.762	0.118450
709.084	0.118250
709.406	0.117982
709.728	0.117832
710.049	0.117567
710.371	0.117319
710.693	0.116900
711.014	0.116395
711.336	0.116028
711.658	0.115676
711.979	0.115336
712.301	0.115031
712.622	0.114865
712.943	0.114687
713.265	0.114549
713.586	0.114395
713.907	0.114242
714.228	0.114216
714.549	0.114149
714.870	0.114198
715.191	0.114167
715.512	0.114139
715.833	0.114105
716.154	0.114029
716.475	0.113870
716.796	0.113606
717.117	0.113282
717.437	0.112953
717.758	0.112532
718.078	0.112067
718.399	0.111602
718.719	0.111157
719.040	0.110806
719.360	0.110400
719.681	0.110106
720.001	0.109903
720.321	0.109714
720.642	0.109502
720.962	0.109235
721.282	0.109016
721.602	0.108785
721.922	0.108555
722.242	0.108266
722.562	0.108104
722.882	0.107890
723.202	0.107780
723.521	0.107709
723.841	0.107586
724.161	0.107532
724.481	0.107510
724.800	0.107442
725.120	0.107324
725.439	0.107248
725.759	0.107131
726.078	0.107092
726.398	0.107084
726.717	0.107055
727.036	0.107009
727.355	0.107078
727.675	0.107165
727.994	0.107241
728.313	0.107329
728.632	0.107379
728.951	0.107395
729.270	0.107182
729.589	0.107022
729.908	0.106766
730.226	0.106505
730.545	0.106326
730.864	0.106057
731.182	0.105873
731.501	0.105701
731.820	0.105620
732.138	0.105502
732.457	0.105292
732.775	0.105129
733.093	0.104949
733.412	0.104821
733.730	0.104667
734.048	0.104434
734.367	0.104090
734.685	0.103718
735.003	0.103284
735.321	0.102911
735.639	0.102565
735.957	0.102370
736.275	0.102189
736.593	0.102113
736.910	0.101982
737.228	0.101840
737.546	0.101711
737.863	0.101571
738.181	0.101311
738.499	0.100990
738.816	0.100730
739.134	0.100521
739.451	0.100272
739.768	0.100055
740.086	0.099721
740.403	0.099451
740.720	0.099188
741.038	0.098949
741.355	0.098720
741.672	0.098441
741.989	0.098156
742.306	0.097800
742.623	0.097365
742.940	0.096884
743.257	0.096206
743.573	0.095660
743.890	0.095076
744.207	0.094546
744.523	0.094121
744.840	0.093843
745.157	0.093504
745.473	0.093116
745.790	0.092887
746.106	0.092616
746.422	0.092317
746.739	0.092080
747.055	0.091801
747.371	0.091516
747.687	0.091432
748.004	0.091368
748.320	0.091344
748.636	0.091212
748.952	0.091158
749.268	0.091186
749.584	0.091214
749.899	0.091259
750.215	0.091287
750.531	0.091265
750.847	0.091398
751.162	0.091401
751.478	0.091380
751.793	0.091336
752.109	0.091248
752.424	0.091171
752.740	0.091105
753.055	0.091101
753.370	0.091149
753.686	0.091398
754.001	0.091702
754.316	0.091919
754.631	0.092151
754.946	0.092263
755.261	0.092454
755.576	0.092546
755.891	0.092576
756.206	0.092508
756.521	0.092460
756.836	0.092444
757.150	0.092447
757.465	0.092405
757.780	0.092359
758.094	0.092386
758.409	0.092387
758.723	0.092464
759.038	0.092446
759.352	0.092448
759.667	0.092370
759.981	0.092252
760.295	0.091973
760.609	0.091703
760.923	0.091481
761.238	0.091169
761.552	0.090958
761.866	0.090711
762.180	0.090587
762.493	0.090515
762.807	0.090395
763.121	0.090246
763.435	0.090062
763.749	0.089825
764.062	0.089538
764.376	0.089312
764.689	0.089072
765.003	0.088920
765.316	0.088734
765.630	0.088740
765.943	0.088620
766.257	0.088545
766.570	0.088398
766.883	0.088237
767.196	0.088009
767.509	0.087607
767.822	0.087257
768.135	0.086932
768.448	0.086650
768.761	0.086290
769.074	0.085967
769.387	0.085715
769.700	0.085460
770.013	0.085257
770.325	0.085108
770.638	0.085047
770.950	0.084884
771.263	0.084670
771.575	0.084361
771.888	0.084019
772.200	0.083566
772.513	0.083174
772.825	0.082763
773.137	0.082374
773.449	0.082079
773.761	0.081700
774.074	0.081524
774.386	0.081302
774.698	0.081093
775.010	0.080777
775.321	0.080468
775.633	0.080072
775.945	0.079967
776.257	0.079896
776.568	0.079787
776.880	0.079768
777.192	0.079603
777.503	0.079530
777.815	0.079526
778.126	0.079629
778.438	0.079865
778.749	0.080060
779.060	0.080255
779.372	0.080434
779.683	0.080639
779.994	0.080733
780.305	0.080852
780.616	0.080952
780.927	0.081101
781.238	0.081084
781.549	0.081166
781.860	0.081256
782.171	0.081344
782.481	0.081310
782.792	0.081295
783.103	0.081318
783.413	0.081354
783.724	0.081297
784.034	0.081250
784.345	0.081105
784.655	0.080992
784.966	0.080823
785.276	0.080697
785.586	0.080465
785.896	0.080332
786.207	0.080209
786.517	0.080149
786.827	0.080139
787.137	0.080103
787.447	0.079978
787.757	0.080060
788.066	0.080021
788.376	0.080010
788.686	0.080018
788.996	0.080027
789.305	0.080019
789.615	0.080012
789.925	0.079898
790.234	0.080017
790.544	0.080180
790.853	0.080262
791.162	0.080452
791.472	0.080651
791.781	0.080765
792.090	0.080972
792.399	0.080909
792.708	0.080819
793.017	0.080725
793.326	0.080586
793.635	0.080417
793.944	0.080206
794.253	0.079893
794.562	0.079705
794.871	0.079651
795.179	0.079551
795.488	0.079487
795.797	0.079530
796.105	0.079436
796.414	0.079336
796.722	0.079228
797.031	0.078973
797.339	0.078791
797.647	0.078443
797.956	0.077936
798.264	0.077344
798.572	0.076911
798.880	0.076611
799.188	0.076339
799.496	0.076152
799.804	0.076050
800.112	0.075906
800.420	0.075858
800.728	0.075929
801.035	0.075900
801.343	0.075553
801.651	0.075157
801.958	0.074859
802.266	0.074611
802.573	0.074676
802.881	0.074760
803.188	0.074810
803.496	0.075058
803.803	0.075314
804.110	0.075435
804.417	0.075440
804.724	0.075553
805.032	0.075401
805.339	0.075410
805.646	0.075339
805.953	0.075154
806.259	0.075078
806.566	0.075013
806.873	0.074997
807.180	0.074887
807.486	0.074936
807.793	0.075040
808.100	0.075216
808.406	0.075262
808.713	0.075202
809.019	0.074695
809.326	0.074377
809.632	0.074005
809.938	0.073346
810.244	0.072864
810.551	0.072323
810.857	0.071929
811.163	0.071809
811.469	0.071844
811.775	0.071705
812.081	0.071608
812.387	0.071573
812.692	0.071569
812.998	0.071610
813.304	0.071596
813.610	0.071708
813.915	0.071517
814.221	0.071474
814.526	0.071467
814.832	0.071545
815.137	0.071460
815.443	0.071715
815.748	0.071776
816.053	0.071677
816.358	0.071558
816.664	0.071556
816.969	0.071684
817.274	0.071910
817.579	0.071692
817.884	0.071474
818.189	0.071364
818.493	0.071470
818.798	0.071617
819.103	0.071429
819.408	0.071124
819.712	0.071062
820.017	0.070844
820.321	0.070621
820.626	0.070394
820.930	0.069953
821.235	0.069525
821.539	0.069276
821.843	0.069229
822.148	0.068943
822.452	0.068761
822.756	0.068899
823.060	0.068469
823.364	0.068614
823.668	0.068526
823.972	0.068644
824.276	0.068751
824.580	0.068778
824.883	0.068860
825.187	0.068796
825.491	0.068773
825.795	0.068975
826.098	0.068884
826.402	0.068790
826.705	0.068948
827.008	0.069006
827.312	0.069081
827.615	0.068955
827.918	0.068830
828.222	0.068335
828.525	0.068174
828.828	0.068190
829.131	0.068291
829.434	0.068535
829.737	0.067765
830.040	0.067067
830.343	0.066633
830.645	0.066344
830.948	0.065821
831.251	0.065169
831.553	0.064805
831.856	0.064541
832.159	0.064538
832.461	0.064369
832.764	0.064140
833.066	0.063845
833.368	0.063486
833.671	0.063336
833.973	0.063481
834.275	0.063277
834.577	0.063297
834.879	0.063436
835.181	0.063100
835.483	0.062456
835.785	0.061774
836.087	0.061689
836.389	0.061757
836.690	0.060852
836.992	0.059885
837.294	0.059325
837.595	0.058486
837.897	0.057298
838.198	0.056572
838.500	0.055307
838.801	0.054805
839.103	0.054500
839.404	0.054223
839.705	0.053602
840.006	0.052967
840.307	0.052359
840.608	0.052009
840.910	0.051839
841.210	0.051618
841.511	0.052006
841.812	0.052243
842.113	0.052668
842.414	0.052355
842.715	0.051758
843.015	0.051780
843.316	0.051402
843.616	0.050942
843.917	0.050533
844.217	0.050667
844.518	0.050074
844.818	0.049398
845.118	0.048954
845.419	0.048994
845.719	0.048613
846.019	0.048159
846.319	0.048180
846.619	0.048162
846.919	0.048620
847.219	0.048851
847.519	0.048368
847.819	0.047920
848.118	0.046945
848.418	0.046462
848.718	0.045897
849.017	0.045921
849.317	0.046153
849.616	0.046882
849.916	0.047972
850.215	0.048851
850.515	0.049665
850.814	0.050436
851.113	0.051276
851.412	0.051527
851.712	0.051454
852.011	0.051503
852.310	0.052009
852.609	0.052217
852.908	0.052167
853.206	0.052142
853.505	0.052389
853.804	0.052626
854.103	0.052668
854.401	0.052925
854.700	0.053068
854.999	0.053001
855.297	0.053167
855.595	0.053207
855.894	0.053115
856.192	0.052802
856.491	0.052518
856.789	0.052053
857.087	0.051354
857.385	0.050633
857.683	0.050158
857.981	0.049731
858.279	0.049403
858.577	0.048261
858.875	0.047527
859.173	0.047364
859.471	0.047206
859.768	0.046650
860.066	0.046364
860.363	0.046096
860.661	0.045499
860.959	0.045227
861.256	0.045906
861.553	0.045595
861.851	0.044813
862.148	0.044238
862.445	0.043825
862.742	0.043205
863.039	0.042687
863.337	0.042613
863.634	0.041593
863.931	0.040992
864.227	0.040707
864.524	0.040198
864.821	0.040878
865.118	0.040679
865.415	0.039977
865.711	0.038886
866.008	0.037850
866.304	0.037100
866.601	0.036666
866.897	0.036410
867.194	0.036176
867.490	0.035588
867.786	0.034865
868.082	0.035157
868.379	0.034929
868.675	0.034956
868.971	0.035047
869.267	0.035143
869.563	0.035683
869.859	0.036241
870.154	0.036199
870.450	0.036282
870.746	0.036168
871.042	0.035803
871.337	0.035904
871.633	0.035873
871.928	0.036324
872.224	0.036230
872.519	0.035681
872.815	0.035841
873.110	0.035901
873.405	0.035421
873.700	0.035114
873.995	0.035308
874.291	0.035471
874.586	0.035733
874.881	0.035591
875.175	0.035394
875.470	0.035257
875.765	0.034753
876.060	0.034637
876.355	0.035131
876.649	0.034899
876.944	0.035151
877.238	0.034453
877.533	0.034223
877.827	0.034945
878.122	0.035529
878.416	0.036115
878.710	0.036682
879.005	0.036252
879.299	0.036127
879.593	0.035873
879.887	0.035884
880.181	0.035100
880.475	0.035187
880.769	0.034608
881.063	0.034446
881.356	0.034794
881.650	0.034371
881.944	0.034105
882.238	0.029814
882.531	0.028749
882.825	0.031977
883.118	0.013453
883.412	0.038399
883.705	0.019205
883.998	0.032286
884.291	0.038794
884.585	0.025016
884.878	0.030033
>>>>>>>>>> END of Data <<<<<<<<<<
>>>>>>>>>> Raw Data Start <<<<<<<<
190.664	-386
191.040	10
191.415	10
191.791	9
192.166	8
192.542	13
192.917	8
193.293	8
193.668	3
194.044	9
194.419	-9
194.794	10
195.170	10
195.545	10
195.920	10
196.296	11
196.671	11
197.046	11
197.421	12
197.796	13
198.171	13
198.546	13
198.922	14
199.297	14
199.672	14
200.047	15
200.422	15
200.796	15
201.171	16
201.546	16
201.921	16
202.296	16
202.671	16
203.045	17
203.420	17
203.795	17
204.170	17
204.544	17
204.919	17
205.294	16
205.668	16
206.043	16
206.417	16
206.792	16
207.166	16
207.541	15
207.915	15
208.289	15
208.664	15
209.038	15
209.412	15
209.787	15
210.161	15
210.535	15
210.909	15
211.284	15
211.658	15
212.032	15
212.406	15
212.780	15
213.154	15
213.528	15
213.902	15
214.276	15
214.650	14
215.024	15
215.398	15
215.772	15
216.145	15
216.519	15
216.893	15
217.267	14
217.640	14
218.014	15
218.388	15
218.761	15
219.135	15
219.508	15
219.882	16
220.256	16
220.629	16
221.003	16
221.376	16
221.749	16
222.123	16
222.496	16
222.869	16
223.243	16
223.616	16
223.989	16
224.362	16
224.736	16
225.109	16
225.482	17
225.855	17
226.228	16
226.601	16
226.974	16
227.347	16
227.720	16
228.093	16
228.466	16
228.839	15
229.212	16
229.585	15
229.957	15
230.330	15
230.703	15
231.076	16
231.448	16
231.821	15
232.194	15
232.566	15
232.939	15
233.311	15
233.684	15
234.056	15
234.429	15
234.801	15
235.174	15
235.546	15
235.918	15
236.291	16
236.663	16
237.035	16
237.408	16
237.780	16
238.152	17
238.524	17
238.896	17
239.268	17
239.641	17
240.013	17
240.385	17
240.757	17
241.129	18
241.500	17
241.872	17
242.244	18
242.616	18
242.988	17
243.360	17
243.731	17
244.103	17
244.475	17
244.847	17
245.218	17
245.590	17
245.961	17
246.333	17
246.705	17
247.076	17
247.448	17
247.819	17
248.190	18
248.562	18
248.933	18
249.305	18
249.676	18
250.047	18
250.418	18
250.790	18
251.161	19
251.532	19
251.903	19
252.274	18
252.645	18
253.016	18
253.387	18
253.758	19
254.129	18
254.500	18
254.871	19
255.242	19
255.613	19
255.984	19
256.355	18
256.725	18
257.096	18
257.467	18
257.838	18
258.208	18
258.579	18
258.949	18
259.320	18
259.690	18
260.061	18
260.431	18
260.802	18
261.172	18
261.543	18
261.913	18
262.283	18
262.654	18
263.024	17
263.394	17
263.764	17
264.135	17
264.505	17
264.875	18
265.245	17
265.615	17
265.985	17
266.355	17
266.725	18
267.095	18
267.465	18
267.835	18
268.205	18
268.575	18
268.944	18
269.314	18
269.684	18
270.054	18
270.423	18
270.793	18
271.163	18
271.532	18
271.902	18
272.271	18
272.641	18
273.010	18
273.380	18
273.749	18
274.119	19
274.488	19
274.857	18
275.227	19
275.596	19
275.965	19
276.335	19
276.704	20
277.073	19
277.442	20
277.811	20
278.180	20
278.549	20
278.918	20
279.287	20
279.656	20
280.025	20
280.394	20
280.763	20
281.132	20
281.501	20
281.869	19
282.238	19
282.607	19
282.976	19
283.344	19
283.713	19
284.081	18
284.450	18
284.819	18
285.187	18
285.556	18
285.924	18
286.292	18
286.661	18
287.029	18
287.398	18
287.766	18
288.134	18
288.502	18
288.871	18
289.239	18
289.607	18
289.975	19
290.343	19
290.711	19
291.079	19
291.447	19
291.815	19
292.183	19
292.551	19
292.919	19
293.287	19
293.655	19
294.022	18
294.390	18
294.758	18
295.126	18
295.493	18
295.861	18
296.229	18
296.596	18
296.964	18
297.331	18
297.699	18
298.066	18
298.434	18
298.801	18
299.168	18
299.536	17
299.903	18
300.270	18
300.638	18
301.005	18
301.372	18
301.739	18
302.106	18
302.473	19
302.840	19
303.207	19
303.574	18
303.941	18
304.308	18
304.675	19
305.042	18
305.409	18
305.776	18
306.143	19
306.509	19
306.876	19
307.243	19
307.610	19
307.976	19
308.343	20
308.709	19
309.076	19
309.442	19
309.809	19
310.175	19
310.542	19
310.908	19
311.275	20
311.641	20
312.007	20
312.373	20
312.740	20
313.106	20
313.472	20
313.838	20
314.204	20
314.570	20
314.936	20
315.302	20
315.668	21
316.034	20
316.400	20
316.766	20
317.132	20
317.498	20
317.864	20
318.230	21
318.595	21
318.961	21
319.327	21
319.692	21
320.058	21
320.424	22
320.789	22
321.155	22
321.520	23
321.886	23
322.251	23
322.616	23
322.982	24
323.347	25
323.712	25
324.078	26
324.443	27
324.808	27
325.173	28
325.539	28
325.904	29
326.269	29
326.634	30
326.999	31
327.364	31
327.729	32
328.094	32
328.459	33
328.823	34
329.188	34
329.553	35
329.918	36
330.283	36
330.647	36
331.012	36
331.377	37
331.741	38
332.106	38
332.470	39
332.835	40
333.199	40
333.564	41
333.928	42
334.293	42
334.657	43
335.021	44
335.386	45
335.750	45
336.114	46
336.478	46
336.843	47
337.207	48
337.571	49
337.935	50
338.299	51
338.663	52
339.027	53
339.391	53
339.755	54
340.119	55
340.483	56
340.846	57
341.210	57
341.574	58
341.938	59
342.301	59
342.665	60
343.029	60
343.392	61
343.756	62
344.119	63
344.483	63
344.846	63
345.210	64
345.573	65
345.937	65
346.300	66
346.663	67
347.027	67
347.390	67
347.753	68
348.116	68
348.479	69
348.843	70
349.206	70
349.569	71
349.932	71
350.295	72
350.658	73
351.021	73
351.383	73
351.746	73
352.109	74
352.472	75
352.835	75
353.197	75
353.560	75
353.923	76
354.285	76
354.648	77
355.011	77
355.373	78
355.736	78
356.098	78
356.461	78
356.823	78
357.185	78
357.548	79
357.910	79
358.272	79
358.635	80
358.997	80
359.359	80
359.721	81
360.083	80
360.445	81
360.807	81
361.169	81
361.531	82
361.893	82
362.255	82
362.617	82
362.979	82
363.341	82
363.703	83
364.064	83
364.426	83
364.788	83
365.149	83
365.511	84
365.873	84
366.234	84
366.596	84
366.957	84
367.319	84
367.680	85
368.042	85
368.403	85
368.764	85
369.126	85
369.487	85
369.848	85
370.209	85
370.570	85
370.931	85
371.293	85
371.654	85
372.015	85
372.376	85
372.737	85
373.098	85
373.458	85
373.819	84
374.180	84
374.541	84
374.902	85
375.263	85
375.623	85
375.984	85
376.345	85
376.705	85
377.066	85
377.426	85
377.787	85
378.147	85
378.508	86
378.868	86
379.228	86
379.589	86
379.949	87
380.309	86
380.670	86
381.030	87
381.390	87
381.750	87
382.110	88
382.470	87
382.830	87
383.190	87
383.550	87
383.910	87
384.270	87
384.630	88
384.990	88
385.350	88
385.709	88
386.069	88
386.429	88
386.788	88
387.148	87
387.508	88
387.867	88
388.227	88
388.586	89
388.946	89
389.305	89
389.665	89
390.024	90
390.383	90
390.743	91
391.102	91
391.461	92
391.820	92
392.179	92
392.539	92
392.898	92
393.257	92
393.616	93
393.975	93
394.334	93
394.693	94
395.051	94
395.410	95
395.769	95
396.128	95
396.487	95
396.845	95
397.204	95
397.563	96
397.921	96
398.280	96
398.638	97
398.997	97
399.355	97
399.714	97
400.072	98
400.431	99
400.789	99
401.147	99
401.506	100
401.864	101
402.222	101
402.580	101
402.938	101
403.297	102
403.655	102
404.013	102
404.371	102
404.729	102
405.087	102
405.444	103
405.802	103
406.160	103
406.518	103
406.876	104
407.233	104
407.591	104
407.949	104
408.306	104
408.664	104
409.022	104
409.379	104
409.737	105
410.094	106
410.451	106
410.809	107
411.166	107
411.523	108
411.881	108
412.238	109
412.595	109
412.952	110
413.310	110
413.667	111
414.024	111
414.381	111
414.738	112
415.095	113
415.452	113
415.809	114
416.165	114
416.522	115
416.879	116
417.236	117
417.593	118
417.949	119
418.306	120
418.663	122
419.019	123
419.376	125
419.732	127
420.089	128
420.445	129
420.802	130
421.158	131
421.514	133
421.871	134
422.227	135
422.583	136
422.939	137
423.295	138
423.652	139
424.008	140
424.364	141
424.720	141
425.076	142
425.432	143
425.788	143
426.143	144
426.499	146
426.855	146
427.211	147
427.567	149
427.922	150
428.278	151
428.634	152
428.989	153
429.345	154
429.700	155
430.056	157
430.411	158
430.767	159
431.122	160
431.478	162
431.833	163
432.188	165
432.543	166
432.899	168
433.254	169
433.609	170
433.964	171
434.319	171
434.674	172
435.029	173
435.384	175
435.739	176
436.094	178
436.449	180
436.804	182
437.158	185
437.513	188
437.868	191
438.223	194
438.577	197
438.932	200
439.287	204
439.641	207
439.996	211
440.350	214
440.704	218
441.059	221
441.413	225
441.768	229
442.122	233
442.476	236
442.830	240
443.185	243
443.539	247
443.893	251
444.247	254
444.601	256
444.955	259
445.309	261
445.663	263
446.017	265
446.371	268
446.724	270
447.078	271
447.432	273
447.786	274
448.139	276
448.493	277
448.847	278
449.200	279
449.554	280
449.907	281
450.261	282
450.614	283
450.968	284
451.321	285
451.674	287
452.027	288
452.381	289
452.734	291
453.087	292
453.440	294
453.793	296
454.146	299
454.499	302
454.852	305
455.205	309
455.558	313
455.911	317
456.264	322
456.617	326
456.970	330
457.322	333
457.675	337
458.028	340
458.380	343
458.733	346
459.086	349
459.438	352
459.791	356
460.143	360
460.496	366
460.848	371
461.200	377
461.553	383
461.905	388
462.257	394
462.609	399
462.961	403
463.314	407
463.666	411
464.018	415
464.370	418
464.722	423
465.074	427
465.426	431
465.777	434
466.129	438
466.481	441
466.833	443
467.184	444
467.536	445
467.888	446
468.239	446
468.591	446
468.943	447
469.294	449
469.646	451
469.997	454
470.348	458
470.700	463
471.051	468
471.402	474
471.754	482
472.105	489
472.456	497
472.807	506
473.158	515
473.509	526
473.860	537
474.211	548
474.562	560
474.913	573
475.264	586
475.615	599
475.966	612
476.316	625
476.667	638
477.018	651
477.368	664
477.719	678
478.070	691
478.420	704
478.771	716
479.121	729
479.472	741
479.822	754
480.172	768
480.523	784
480.873	806
481.223	841
481.573	893
481.924	958
482.274	1031
482.624	1108
482.974	1184
483.324	1252
483.674	1304
484.024	1340
484.374	1365
484.724	1381
485.073	1394
485.423	1404
485.773	1415
486.123	1424
486.472	1434
486.822	1443
487.172	1451
487.521	1458
487.871	1462
488.220	1460
488.570	1444
488.919	1412
489.268	1365
489.618	1311
489.967	1253
490.316	1195
490.666	1144
491.015	1108
491.364	1088
491.713	1078
492.062	1077
492.411	1081
492.760	1086
493.109	1092
493.458	1098
493.807	1104
494.156	1109
494.505	1114
494.853	1120
495.202	1127
495.551	1135
495.900	1143
496.248	1151
496.597	1161
496.945	1169
497.294	1177
497.642	1186
497.991	1196
498.339	1208
498.688	1220
499.036	1231
499.384	1242
499.732	1252
500.081	1260
500.429	1268
500.777	1275
501.125	1282
501.473	1289
501.821	1297
502.169	1303
502.517	1310
502.865	1314
503.213	1318
503.561	1321
503.908	1323
504.256	1325
504.604	1327
504.952	1328
505.299	1328
505.647	1327
505.994	1325
506.342	1323
506.689	1321
507.037	1319
507.384	1319
507.732	1318
508.079	1319
508.426	1319
508.774	1320
509.121	1320
509.468	1320
509.815	1319
510.162	1319
510.509	1318
510.856	1318
511.203	1317
511.550	1315
511.897	1314
512.244	1313
512.591	1313
512.938	1311
513.284	1311
513.631	1310
513.978	1308
514.324	1306
514.671	1304
515.018	1302
515.364	1300
515.711	1298
516.057	1296
516.403	1295
516.750	1293
517.096	1290
517.443	1287
517.789	1283
518.135	1280
518.481	1278
518.827	1275
519.173	1273
519.519	1271
519.865	1269
520.211	1268
520.557	1266
520.903	1266
521.249	1265
521.595	1265
521.941	1264
522.287	1264
522.632	1264
522.978	1264
523.324	1264
523.669	1266
524.015	1268
524.360	1272
524.706	1278
525.051	1285
525.397	1293
525.742	1302
526.087	1310
526.433	1319
526.778	1327
527.123	1333
527.468	1339
527.813	1344
528.158	1349
528.504	1356
528.849	1364
529.193	1376
529.538	1388
529.883	1404
530.228	1421
530.573	1440
530.918	1460
531.263	1480
531.607	1499
531.952	1516
532.296	1531
532.641	1543
532.986	1553
533.330	1564
533.675	1574
534.019	1587
534.363	1603
534.708	1621
535.052	1643
535.396	1666
535.741	1688
536.085	1707
536.429	1726
536.773	1742
537.117	1755
537.461	1767
537.805	1778
538.149	1790
538.493	1803
538.837	1816
539.181	1832
539.524	1851
539.868	1873
540.212	1898
540.556	1923
540.899	1950
541.243	1974
541.586	1996
541.930	2013
542.273	2026
542.617	2037
542.960	2049
543.304	2065
543.647	2083
543.990	2106
544.333	2132
544.677	2157
545.020	2183
545.363	2205
545.706	2223
546.049	2237
546.392	2247
546.735	2253
547.078	2258
547.421	2263
547.764	2269
548.106	2277
548.449	2287
548.792	2301
549.135	2321
549.477	2343
549.820	2366
550.162	2386
550.505	2402
550.847	2416
551.190	2426
551.532	2435
551.875	2445
552.217	2457
552.559	2470
552.901	2486
553.244	2505
553.586	2525
553.928	2547
554.270	2566
554.612	2584
554.954	2598
555.296	2611
555.638	2624
555.980	2637
556.322	2653
556.663	2674
557.005	2702
557.347	2736
557.689	2771
558.030	2807
558.372	2841
558.713	2872
559.055	2900
559.396	2929
559.738	2959
560.079	2992
560.421	3030
560.762	3072
561.103	3118
561.444	3169
561.786	3221
562.127	3277
562.468	3337
562.809	3402
563.150	3475
563.491	3553
563.832	3639
564.173	3737
564.514	3849
564.855	3984
565.195	4147
565.536	4342
565.877	4569
566.218	4827
566.558	5117
566.899	5436
567.239	5781
567.580	6143
567.920	6516
568.261	6892
568.601	7277
568.941	7676
569.282	8087
569.622	8513
569.962	8958
570.302	9433
570.643	9922
570.983	10416
571.323	10894
571.663	11357
572.003	11798
572.343	12212
572.683	12602
573.022	12999
573.362	13416
573.702	13848
574.042	14280
574.381	14697
574.721	15092
575.061	15473
575.400	15820
575.740	16130
576.079	16406
576.419	16682
576.758	16993
577.097	17357
577.437	17755
577.776	18181
578.115	18626
578.454	19077
578.794	19493
579.133	19817
579.472	20043
579.811	20179
580.150	20231
580.489	20218
580.828	20177
581.167	20136
581.505	20112
581.844	20098
582.183	20082
582.522	20081
582.860	20090
583.199	20099
583.538	20078
583.876	19996
584.215	19832
584.553	19575
584.891	19231
585.230	18808
585.568	18339
585.906	17860
586.245	17428
586.583	17055
586.921	16745
587.259	16464
587.597	16181
587.935	15888
588.273	15588
588.611	15309
588.949	15063
589.287	14856
589.625	14695
589.963	14569
590.300	14469
590.638	14378
590.976	14275
591.313	14155
591.651	14039
591.989	13941
592.326	13860
592.664	13792
593.001	13735
593.338	13702
593.676	13688
594.013	13698
594.350	13751
594.687	13841
595.025	13939
595.362	14031
595.699	14095
596.036	14138
596.373	14151
596.710	14128
597.047	14080
597.384	14021
597.720	13953
598.057	13899
598.394	13861
598.731	13841
599.067	13844
599.404	13871
599.741	13930
600.077	14012
600.414	14104
600.750	14199
601.087	14273
601.423	14310
601.759	14315
602.096	14295
602.432	14257
602.768	14197
603.104	14112
603.440	14007
603.776	13893
604.112	13771
604.448	13646
604.784	13512
605.120	13370
605.456	13232
605.792	13087
606.128	12935
606.463	12779
606.799	12622
607.135	12480
607.470	12338
607.806	12198
608.142	12062
608.477	11930
608.812	11803
609.148	11675
609.483	11540
609.819	11404
610.154	11273
610.489	11152
610.824	11046
611.159	10957
611.494	10868
611.830	10790
612.165	10712
612.500	10626
612.834	10526
613.169	10410
613.504	10284
613.839	10143
614.174	9984
614.509	9822
614.843	9661
615.178	9509
615.512	9357
615.847	9208
616.182	9061
616.516	8911
616.850	8753
617.185	8589
617.519	8423
617.853	8244
618.188	8059
618.522	7889
618.856	7745
619.190	7620
619.524	7509
619.858	7422
620.192	7352
620.526	7292
620.860	7231
621.194	7172
621.528	7116
621.862	7059
622.195	6990
622.529	6917
622.863	6841
623.196	6765
623.530	6687
623.864	6610
624.197	6532
624.530	6454
624.864	6386
625.197	6314
625.531	6232
625.864	6134
626.197	6030
626.530	5917
626.863	5789
627.196	5651
627.529	5510
627.862	5372
628.195	5236
628.528	5100
628.861	4970
629.194	4853
629.527	4742
629.860	4633
630.192	4524
630.525	4423
630.858	4328
631.190	4239
631.523	4153
631.855	4072
632.188	4002
632.520	3937
632.852	3875
633.185	3812
633.517	3750
633.849	3695
634.182	3644
634.514	3596
634.846	3553
635.178	3514
635.510	3480
635.842	3449
636.174	3419
636.506	3389
636.837	3359
637.169	3330
637.501	3299
637.833	3265
638.164	3227
638.496	3184
638.828	3136
639.159	3082
639.491	3024
639.822	2963
640.154	2902
640.485	2842
640.816	2783
641.147	2724
641.479	2667
641.810	2613
642.141	2559
642.472	2506
642.803	2454
643.134	2405
643.465	2363
643.796	2329
644.127	2305
644.458	2292
644.789	2292
645.119	2305
645.450	2326
645.781	2349
646.111	2373
646.442	2394
646.773	2412
647.103	2424
647.433	2436
647.764	2448
648.094	2464
648.425	2484
648.755	2508
649.085	2536
649.415	2565
649.745	2595
650.075	2627
650.405	2661
650.735	2737
651.065	3281
651.395	4970
651.725	7767
652.055	11408
652.385	15052
652.715	18695
653.044	22339
653.374	25988
653.704	29642
654.033	32197
654.363	33947
654.692	35116
655.022	35882
655.351	36386
655.680	36700
656.010	36872
656.339	36950
656.668	36973
656.997	36964
657.326	36935
657.655	36853
657.984	36292
658.313	34577
658.642	31744
658.971	28057
659.300	24364
659.629	20671
659.958	16979
660.286	13287
660.615	9596
660.944	7011
661.272	5235
661.601	4042
661.929	3249
662.258	2715
662.586	2364
662.915	2149
663.243	2026
663.571	1956
663.899	1914
664.228	1887
664.556	1869
664.884	1858
665.212	1849
665.540	1843
665.868	1840
666.196	1838
666.524	1837
666.852	1838
667.179	1846
667.507	1860
667.835	1881
668.162	1908
668.490	1942
668.818	1982
669.145	2023
669.473	2064
669.800	2104
670.127	2138
670.455	2166
670.782	2190
671.109	2212
671.436	2230
671.764	2244
672.091	2256
672.418	2267
672.745	2275
673.072	2284
673.399	2295
673.726	2305
674.053	2314
674.379	2317
674.706	2317
675.033	2316
675.359	2313
675.686	2309
676.013	2307
676.339	2309
676.666	2316
676.992	2333
677.318	2357
677.645	2384
677.971	2409
678.297	2432
678.624	2455
678.950	2476
679.276	2496
679.602	2516
679.928	2536
680.254	2561
680.580	2593
680.906	2633
681.232	2684
681.558	2736
681.883	2788
682.209	2837
682.535	2882
682.860	2923
683.186	2958
683.511	2985
683.837	3003
684.162	3017
684.488	3028
684.813	3040
685.138	3051
685.464	3060
685.789	3068
686.114	3077
686.439	3088
686.764	3099
687.089	3107
687.414	3108
687.739	3098
688.064	3080
688.389	3057
688.714	3030
689.039	3000
689.363	2968
689.688	2934
690.013	2900
690.337	2870
690.662	2845
690.986	2822
691.311	2800
691.635	2777
691.959	2756
692.284	2742
692.608	2738
692.932	2743
693.256	2751
693.580	2763
693.904	2779
694.228	2797
694.552	2813
694.876	2820
695.200	2819
695.524	2807
695.848	2789
696.172	2767
696.495	2744
696.819	2720
697.143	2694
697.466	2668
697.790	2646
698.113	2631
698.437	2624
698.760	2622
699.083	2621
699.407	2614
699.730	2600
700.053	2580
700.376	2550
700.699	2510
701.022	2459
701.345	2403
701.668	2351
701.991	2307
702.314	2277
702.637	2263
702.960	2269
703.283	2292
703.605	2333
703.928	2389
704.251	2453
704.573	2517
704.896	2574
705.218	2621
705.540	2659
705.863	2689
706.185	2714
706.507	2736
706.830	2756
707.152	2777
707.474	2800
707.796	2825
708.118	2852
708.440	2878
708.762	2900
709.084	2918
709.406	2929
709.728	2931
710.049	2925
710.371	2914
710.693	2895
711.014	2875
711.336	2854
711.658	2836
711.979	2820
712.301	2805
712.622	2789
712.943	2770
713.265	2746
713.586	2722
713.907	2699
714.228	2678
714.549	2662
714.870	2650
715.191	2645
715.512	2644
715.833	2640
716.154	2633
716.475	2622
716.796	2606
717.117	2581
717.437	2553
717.758	2521
718.078	2488
718.399	2456
718.719	2428
719.040	2403
719.360	2384
719.681	2370
720.001	2362
720.321	2357
720.642	2354
720.962	2356
721.282	2362
721.602	2370
721.922	2379
722.242	2391
722.562	2406
722.882	2425
723.202	2442
723.521	2458
723.841	2474
724.161	2491
724.481	2507
724.800	2525
725.120	2547
725.439	2574
725.759	2605
726.078	2639
726.398	2680
726.717	2732
727.036	2791
727.355	2852
727.675	2913
727.994	2970
728.313	3025
728.632	3073
728.951	3112
729.270	3148
729.589	3180
729.908	3219
730.226	3264
730.545	3313
730.864	3366
731.182	3423
731.501	3481
731.820	3536
732.138	3584
732.457	3626
732.775	3665
733.093	3697
733.412	3715
733.730	3720
734.048	3712
734.367	3696
734.685	3675
735.003	3650
735.321	3627
735.639	3609
735.957	3594
736.275	3580
736.593	3560
736.910	3530
737.228	3489
737.546	3435
737.863	3372
738.181	3303
738.499	3230
738.816	3158
739.134	3087
739.451	3016
739.768	2943
740.086	2874
740.403	2810
740.720	2750
741.038	2693
741.355	2639
741.672	2585
741.989	2530
742.306	2473
742.623	2414
742.940	2357
743.257	2305
743.573	2259
743.890	2221
744.207	2193
744.523	2173
744.840	2160
745.157	2152
745.473	2151
745.790	2158
746.106	2175
746.422	2200
746.739	2232
747.055	2270
747.371	2313
747.687	2358
748.004	2402
748.320	2439
748.636	2473
748.952	2507
749.268	2541
749.584	2574
749.899	2603
750.215	2633
750.531	2667
750.847	2704
751.162	2742
751.478	2780
751.793	2818
752.109	2859
752.424	2904
752.740	2949
753.055	3000
753.370	3061
753.686	3132
754.001	3208
754.316	3288
754.631	3372
754.946	3463
755.261	3558
755.576	3650
755.891	3738
756.206	3827
756.521	3920
756.836	4014
757.150	4105
757.465	4185
757.780	4255
758.094	4313
758.409	4358
758.723	4386
759.038	4398
759.352	4399
759.667	4386
759.981	4365
760.295	4344
760.609	4327
760.923	4317
761.238	4311
761.552	4307
761.866	4301
762.180	4292
762.493	4269
762.807	4225
763.121	4158
763.435	4073
763.749	3979
764.062	3891
764.376	3817
764.689	3766
765.003	3738
765.316	3734
765.630	3745
765.943	3766
766.257	3792
766.570	3813
766.883	3819
767.196	3810
767.509	3786
767.822	3751
768.135	3704
768.448	3653
768.761	3600
769.074	3554
769.387	3518
769.700	3496
770.013	3483
770.325	3472
770.638	3456
770.950	3428
771.263	3382
771.575	3319
771.888	3238
772.200	3144
772.513	3041
772.825	2932
773.137	2822
773.449	2713
773.761	2607
774.074	2509
774.386	2421
774.698	2347
775.010	2287
775.321	2244
775.633	2216
775.945	2200
776.257	2190
776.568	2187
776.880	2194
777.192	2210
777.503	2234
777.815	2264
778.126	2302
778.438	2348
778.749	2398
779.060	2446
779.372	2491
779.683	2535
779.994	2574
780.305	2606
780.616	2627
780.927	2640
781.238	2645
781.549	2639
781.860	2622
782.171	2598
782.481	2571
782.792	2544
783.103	2517
783.413	2488
783.724	2457
784.034	2427
784.345	2399
784.655	2375
784.966	2349
785.276	2322
785.586	2297
785.896	2271
786.207	2243
786.517	2215
786.827	2186
787.137	2159
787.447	2133
787.757	2108
788.066	2084
788.376	2061
788.686	2039
788.996	2015
789.305	1992
789.615	1973
789.925	1963
790.234	1960
790.544	1964
790.853	1974
791.162	1983
791.472	1992
791.781	1996
792.090	1991
792.399	1979
792.708	1960
793.017	1939
793.326	1919
793.635	1900
793.944	1883
794.253	1868
794.562	1857
794.871	1850
795.179	1845
795.488	1839
795.797	1829
796.105	1812
796.414	1785
796.722	1748
797.031	1702
797.339	1646
797.647	1583
797.956	1517
798.264	1455
798.572	1404
798.880	1365
799.188	1335
799.496	1314
799.804	1298
800.112	1285
800.420	1275
800.728	1264
801.035	1251
801.343	1236
801.651	1225
801.958	1221
802.266	1227
802.573	1236
802.881	1249
803.188	1266
803.496	1284
803.803	1302
804.110	1318
804.417	1334
804.724	1346
805.032	1359
805.339	1369
805.646	1376
805.953	1380
806.259	1381
806.566	1379
806.873	1373
807.180	1366
807.486	1359
807.793	1350
808.100	1336
808.406	1314
808.713	1284
809.019	1249
809.326	1214
809.632	1180
809.938	1149
810.244	1120
810.551	1096
810.857	1076
811.163	1058
811.469	1038
811.775	1018
812.081	997
812.387	978
812.692	963
812.998	951
813.304	942
813.610	935
813.915	929
814.221	924
814.526	919
814.832	916
815.137	912
815.443	906
815.748	896
816.053	884
816.358	872
816.664	861
816.969	850
817.274	841
817.579	834
817.884	830
818.189	829
818.493	828
818.798	826
819.103	821
819.408	813
819.712	803
820.017	793
820.321	782
820.626	771
820.930	761
821.235	755
821.539	752
821.843	752
822.148	754
822.452	756
822.756	755
823.060	753
823.364	749
823.668	742
823.972	734
824.276	726
824.580	720
824.883	716
825.187	715
825.491	715
825.795	715
826.098	715
826.402	714
826.705	712
827.008	706
827.312	699
827.615	687
827.918	673
828.222	657
828.525	641
828.828	625
829.131	609
829.434	592
829.737	578
830.040	567
830.343	557
830.645	549
830.948	541
831.251	533
831.553	526
831.856	520
832.159	514
832.461	507
832.764	500
833.066	493
833.368	488
833.671	483
833.973	480
834.275	477
834.577	473
834.879	469
835.181	464
835.483	459
835.785	453
836.087	445
836.389	436
836.690	425
836.992	413
837.294	401
837.595	388
837.897	375
838.198	362
838.500	349
838.801	338
839.103	328
839.404	319
839.705	312
840.006	307
840.307	302
840.608	299
840.910	296
841.210	295
841.511	292
841.812	289
842.113	286
842.414	282
842.715	276
843.015	270
843.316	265
843.616	259
843.917	254
844.217	250
844.518	246
844.818	243
845.118	242
845.419	240
845.719	239
846.019	238
846.319	237
846.619	235
846.919	234
847.219	233
847.519	232
847.819	231
848.118	231
848.418	234
848.718	241
849.017	253
849.317	269
849.616	289
849.916	311
850.215	337
850.515	364
850.814	390
851.113	415
851.412	437
851.712	457
852.011	475
852.310	493
852.609	509
852.908	522
853.206	535
853.505	546
853.804	555
854.103	564
854.401	570
854.700	572
854.999	570
855.297	563
855.595	552
855.894	536
856.192	516
856.491	494
856.789	470
857.087	445
857.385	422
857.683	401
857.981	382
858.279	364
858.577	347
858.875	333
859.173	321
859.471	311
859.768	303
860.066	296
860.363	289
860.661	285
860.959	281
861.256	277
861.553	273
861.851	268
862.148	262
862.445	257
862.742	252
863.039	248
863.337	244
863.634	242
863.931	240
864.227	239
864.524	238
864.821	238
865.118	237
865.415	235
865.711	232
866.008	229
866.304	225
866.601	220
866.897	216
867.194	213
867.490	211
867.786	210
868.082	210
868.379	210
868.675	211
868.971	211
869.267	211
869.563	211
869.859	210
870.154	210
870.450	208
870.746	207
871.042	206
871.337	206
871.633	207
871.928	207
872.224	209
872.519	211
872.815	212
873.110	212
873.405	212
873.700	212
873.995	211
874.291	211
874.586	212
874.881	213
875.175	215
875.470	219
875.765	223
876.060	227
876.355	231
876.649	236
876.944	240
877.238	245
877.533	249
877.827	251
878.122	253
878.416	254
878.710	254
879.005	254
879.299	252
879.593	251
879.887	250
880.181	249
880.475	248
880.769	246
881.063	244
881.356	241
881.650	238
881.944	235
882.238	194
882.531	187
882.825	182
883.118	193
883.412	185
883.705	191
883.998	192
884.291	194
884.585	201
884.878	207
>>>>>>>>>> END of Data <<<<<<<<<<