Date	2021年06月15日火曜日 12時08分51秒
Spectrometers	USB2+H05879
ダーク	使用
リファレンス	使用
積分時間[msec]	10
平均回数	280
ｽﾑｰｼﾞﾝｸﾞ	10
Electrical Dark	USE
ピクセル数	2048
計測モード	吸光度
保存開始波長[nm]	190.664
保存終了波長[nm]	884.878
保存ﾋﾟｯﾁ波長[nm]	全波長

>>>>>>>>>> Data Start <<<<<<<<<<<<
190.664	0.000000
191.040	0.000000
191.415	0.000000
191.791	-2.329324
192.166	-0.627883
192.542	-0.894315
192.917	0.000000
193.293	-0.406803
193.668	-0.319912
194.044	-1.088705
194.419	0.000000
194.794	-1.268247
195.170	-1.178252
195.545	-1.085733
195.920	-0.945190
196.296	-0.806829
196.671	-0.633611
197.046	-0.480331
197.421	-0.419061
197.796	-0.397445
198.171	-0.354893
198.546	-0.300885
198.922	-0.241165
199.297	-0.213264
199.672	-0.191157
200.047	-0.174855
200.422	-0.149698
200.796	-0.130782
201.171	-0.115962
201.546	-0.125696
201.921	-0.117170
202.296	-0.103227
202.671	-0.082049
203.045	-0.060788
203.420	-0.062001
203.795	-0.054026
204.170	-0.057780
204.544	-0.057802
204.919	-0.066457
205.294	-0.072144
205.668	-0.072228
206.043	-0.061538
206.417	-0.063149
206.792	-0.058330
207.166	-0.058191
207.541	-0.051633
207.915	-0.057747
208.289	-0.046272
208.664	-0.046219
209.038	-0.051026
209.412	-0.037878
209.787	-0.020177
210.161	-0.019593
210.535	-0.027208
210.909	-0.025566
211.284	-0.019276
211.658	-0.033619
212.032	-0.033809
212.406	-0.036163
212.780	-0.027260
213.154	-0.028060
213.528	-0.026649
213.902	-0.022414
214.276	-0.017145
214.650	-0.016960
215.024	-0.006457
215.398	-0.004626
215.772	0.006390
216.145	0.006214
216.519	0.010726
216.893	0.015894
217.267	0.012426
217.640	0.005545
218.014	0.020881
218.388	0.027228
218.761	0.021379
219.135	0.041525
219.508	0.049824
219.882	0.051663
220.256	0.053859
220.629	0.065992
221.003	0.066924
221.376	0.061869
221.749	0.055856
222.123	0.058650
222.496	0.057554
222.869	0.057151
223.243	0.053674
223.616	0.050483
223.989	0.044072
224.362	0.042925
224.736	0.033292
225.109	0.041042
225.482	0.042739
225.855	0.040705
226.228	0.033643
226.601	0.042837
226.974	0.042279
227.347	0.055790
227.720	0.053699
228.093	0.052250
228.466	0.043362
228.839	0.046617
229.212	0.043000
229.585	0.038273
229.957	0.037510
230.330	0.040611
230.703	0.047811
231.076	0.046825
231.448	0.041811
231.821	0.048257
232.194	0.044365
232.566	0.047461
232.939	0.036141
233.311	0.041998
233.684	0.046062
234.056	0.051177
234.429	0.049646
234.801	0.048856
235.174	0.040606
235.546	0.029256
235.918	0.025913
236.291	0.029577
236.663	0.032337
237.035	0.038653
237.408	0.046902
237.780	0.051864
238.152	0.048826
238.524	0.033310
238.896	0.028742
239.268	0.032006
239.641	0.030072
240.013	0.043893
240.385	0.053373
240.757	0.062919
241.129	0.052073
241.500	0.047423
241.872	0.050060
242.244	0.056599
242.616	0.051062
242.988	0.055750
243.360	0.071781
243.731	0.078479
244.103	0.070791
244.475	0.070490
244.847	0.075008
245.218	0.079907
245.590	0.085632
245.961	0.084343
246.333	0.090942
246.705	0.101932
247.076	0.111566
247.448	0.110180
247.819	0.107310
248.190	0.108687
248.562	0.105782
248.933	0.117209
249.305	0.120687
249.676	0.118697
250.047	0.108951
250.418	0.112149
250.790	0.105771
251.161	0.103145
251.532	0.108631
251.903	0.114247
252.274	0.129642
252.645	0.136408
253.016	0.133453
253.387	0.122677
253.758	0.118938
254.129	0.123895
254.500	0.123315
254.871	0.117468
255.242	0.118666
255.613	0.113638
255.984	0.110665
256.355	0.117900
256.725	0.115907
257.096	0.109989
257.467	0.117340
257.838	0.121546
258.208	0.123368
258.579	0.129366
258.949	0.132314
259.320	0.123281
259.690	0.126602
260.061	0.114273
260.431	0.115824
260.802	0.114080
261.172	0.116686
261.543	0.130361
261.913	0.125966
262.283	0.123989
262.654	0.121849
263.024	0.117245
263.394	0.120058
263.764	0.124171
264.135	0.117852
264.505	0.121678
264.875	0.124288
265.245	0.124188
265.615	0.123777
265.985	0.126648
266.355	0.122415
266.725	0.120241
267.095	0.122083
267.465	0.118041
267.835	0.120429
268.205	0.109673
268.575	0.114640
268.944	0.117810
269.314	0.108933
269.684	0.116084
270.054	0.111838
270.423	0.117712
270.793	0.116087
271.163	0.117597
271.532	0.118961
271.902	0.127696
272.271	0.123332
272.641	0.130341
273.010	0.118102
273.380	0.121463
273.749	0.118376
274.119	0.129350
274.488	0.132564
274.857	0.141058
275.227	0.143083
275.596	0.143276
275.965	0.144833
276.335	0.142966
276.704	0.141200
277.073	0.140884
277.442	0.143470
277.811	0.147217
278.180	0.154833
278.549	0.164936
278.918	0.164221
279.287	0.161520
279.656	0.164665
280.025	0.166054
280.394	0.161726
280.763	0.167353
281.132	0.168024
281.501	0.178523
281.869	0.173727
282.238	0.176112
282.607	0.171624
282.976	0.170777
283.344	0.175747
283.713	0.175701
284.081	0.171344
284.450	0.175488
284.819	0.178733
285.187	0.175513
285.556	0.174648
285.924	0.164594
286.292	0.159695
286.661	0.160932
287.029	0.154057
287.398	0.146588
287.766	0.146561
288.134	0.147818
288.502	0.154850
288.871	0.157395
289.239	0.150513
289.607	0.157272
289.975	0.157134
290.343	0.153265
290.711	0.154361
291.079	0.151853
291.447	0.163294
291.815	0.165701
292.183	0.168056
292.551	0.166826
292.919	0.170174
293.287	0.176285
293.655	0.178352
294.022	0.177968
294.390	0.183698
294.758	0.196501
295.126	0.197007
295.493	0.200466
295.861	0.203840
296.229	0.202063
296.596	0.208078
296.964	0.206986
297.331	0.203363
297.699	0.204305
298.066	0.217322
298.434	0.222721
298.801	0.221963
299.168	0.223884
299.536	0.226108
299.903	0.215910
300.270	0.220156
300.638	0.225384
301.005	0.228631
301.372	0.229016
301.739	0.236025
302.106	0.236613
302.473	0.246246
302.840	0.251188
303.207	0.269294
303.574	0.283965
303.941	0.298186
304.308	0.304137
304.675	0.313884
305.042	0.333492
305.409	0.358975
305.776	0.370499
306.143	0.385581
306.509	0.409318
306.876	0.426480
307.243	0.450974
307.610	0.480135
307.976	0.504946
308.343	0.530314
308.709	0.557540
309.076	0.592067
309.442	0.627244
309.809	0.660387
310.175	0.693339
310.542	0.729015
310.908	0.756215
311.275	0.778885
311.641	0.805401
312.007	0.837897
312.373	0.870411
312.740	0.895993
313.106	0.918408
313.472	0.952564
313.838	0.986129
314.204	1.002726
314.570	1.021066
314.936	1.048090
315.302	1.074928
315.668	1.100030
316.034	1.128395
316.400	1.156770
316.766	1.179452
317.132	1.204083
317.498	1.223108
317.864	1.235876
318.230	1.254603
318.595	1.272926
318.961	1.293681
319.327	1.313568
319.692	1.322617
320.058	1.331316
320.424	1.340755
320.789	1.351327
321.155	1.361273
321.520	1.375702
321.886	1.402336
322.251	1.417407
322.616	1.426748
322.982	1.440117
323.347	1.455805
323.712	1.464592
324.078	1.473357
324.443	1.480207
324.808	1.485697
325.173	1.497480
325.539	1.505361
325.904	1.513083
326.269	1.518749
326.634	1.523284
326.999	1.531300
327.364	1.540863
327.729	1.549951
328.094	1.557529
328.459	1.566042
328.823	1.569040
329.188	1.576832
329.553	1.575555
329.918	1.583486
330.283	1.590825
330.647	1.597735
331.012	1.598271
331.377	1.600189
331.741	1.601240
332.106	1.606299
332.470	1.608182
332.835	1.609358
333.199	1.612246
333.564	1.616473
333.928	1.619854
334.293	1.623689
334.657	1.621702
335.021	1.623571
335.386	1.624017
335.750	1.624367
336.114	1.623975
336.478	1.627338
336.843	1.625251
337.207	1.627684
337.571	1.629469
337.935	1.630393
338.299	1.628221
338.663	1.627868
339.027	1.632789
339.391	1.635536
339.755	1.635751
340.119	1.634062
340.483	1.633026
340.846	1.635004
341.210	1.635717
341.574	1.635980
341.938	1.637572
342.301	1.640104
342.665	1.640646
343.029	1.642954
343.392	1.644709
343.756	1.645531
344.119	1.646576
344.483	1.649160
344.846	1.650798
345.210	1.651884
345.573	1.652139
345.937	1.653583
346.300	1.655936
346.663	1.654931
347.027	1.656025
347.390	1.656083
347.753	1.657542
348.116	1.659538
348.479	1.660460
348.843	1.659699
349.206	1.659000
349.569	1.657837
349.932	1.659687
350.295	1.660279
350.658	1.662217
351.021	1.664694
351.383	1.668308
351.746	1.668994
352.109	1.669345
352.472	1.669755
352.835	1.668996
353.197	1.670597
353.560	1.671515
353.923	1.671499
354.285	1.672530
354.648	1.671500
355.011	1.673098
355.373	1.676501
355.736	1.677394
356.098	1.677798
356.461	1.680311
356.823	1.682304
357.185	1.684616
357.548	1.684717
357.910	1.685385
358.272	1.684306
358.635	1.682038
358.997	1.680620
359.359	1.683479
359.721	1.684366
360.083	1.686442
360.445	1.689825
360.807	1.690280
361.169	1.691001
361.531	1.692429
361.893	1.693501
362.255	1.697189
362.617	1.699278
362.979	1.699859
363.341	1.700116
363.703	1.701397
364.064	1.702856
364.426	1.703631
364.788	1.704343
365.149	1.706016
365.511	1.709465
365.873	1.711008
366.234	1.713865
366.596	1.715652
366.957	1.715760
367.319	1.717970
367.680	1.717035
368.042	1.715967
368.403	1.717183
368.764	1.719520
369.126	1.720744
369.487	1.720511
369.848	1.719512
370.209	1.720788
370.570	1.719912
370.931	1.721431
371.293	1.722031
371.654	1.722689
372.015	1.725410
372.376	1.726628
372.737	1.726964
373.098	1.726209
373.458	1.727794
373.819	1.730211
374.180	1.732982
374.541	1.733250
374.902	1.733262
375.263	1.735440
375.623	1.736726
375.984	1.738524
376.345	1.739132
376.705	1.740542
377.066	1.742116
377.426	1.742563
377.787	1.742667
378.147	1.745103
378.508	1.745312
378.868	1.745453
379.228	1.745412
379.589	1.744651
379.949	1.745239
380.309	1.745678
380.670	1.746650
381.030	1.747216
381.390	1.747184
381.750	1.745593
382.110	1.745556
382.470	1.747059
382.830	1.747559
383.190	1.749336
383.550	1.749456
383.910	1.749766
384.270	1.749519
384.630	1.750844
384.990	1.752875
385.350	1.753954
385.709	1.754578
386.069	1.756811
386.429	1.757040
386.788	1.758026
387.148	1.759306
387.508	1.760555
387.867	1.762258
388.227	1.762172
388.586	1.762739
388.946	1.763067
389.305	1.763508
389.665	1.765419
390.024	1.765407
390.383	1.765822
390.743	1.765082
391.102	1.764117
391.461	1.764361
391.820	1.765064
392.179	1.763540
392.539	1.763060
392.898	1.764785
393.257	1.763455
393.616	1.764061
393.975	1.765263
394.334	1.765481
394.693	1.764716
395.051	1.764302
395.410	1.763383
395.769	1.764330
396.128	1.764157
396.487	1.763526
396.845	1.762480
397.204	1.760339
397.563	1.758157
397.921	1.756829
398.280	1.754626
398.638	1.753799
398.997	1.752802
399.355	1.750862
399.714	1.751111
400.072	1.748846
400.431	1.744684
400.789	1.744367
401.147	1.741955
401.506	1.740402
401.864	1.738488
402.222	1.737579
402.580	1.735010
402.938	1.733566
403.297	1.731148
403.655	1.729260
404.013	1.728559
404.371	1.727119
404.729	1.725383
405.087	1.724442
405.444	1.724185
405.802	1.722973
406.160	1.722231
406.518	1.720414
406.876	1.718988
407.233	1.716869
407.591	1.716800
407.949	1.716025
408.306	1.714337
408.664	1.712494
409.022	1.710696
409.379	1.708851
409.737	1.706115
410.094	1.704136
410.451	1.702397
410.809	1.700580
411.166	1.697936
411.523	1.695776
411.881	1.694515
412.238	1.692576
412.595	1.688498
412.952	1.686085
413.310	1.685266
413.667	1.683174
414.024	1.681402
414.381	1.679795
414.738	1.677238
415.095	1.673631
415.452	1.671220
415.809	1.668638
416.165	1.666525
416.522	1.663794
416.879	1.660603
417.236	1.658160
417.593	1.655612
417.949	1.652812
418.306	1.649921
418.663	1.649624
419.019	1.647247
419.376	1.643619
419.732	1.641166
420.089	1.640245
420.445	1.637245
420.802	1.634554
421.158	1.631327
421.514	1.627893
421.871	1.624778
422.227	1.622104
422.583	1.619871
422.939	1.615981
423.295	1.613312
423.652	1.610247
424.008	1.606676
424.364	1.604295
424.720	1.600877
425.076	1.598782
425.432	1.595225
425.788	1.592286
426.143	1.587511
426.499	1.582952
426.855	1.580673
427.211	1.577138
427.567	1.573938
427.922	1.570500
428.278	1.566601
428.634	1.563553
428.989	1.560586
429.345	1.556908
429.700	1.553304
430.056	1.550450
430.411	1.548628
430.767	1.545168
431.122	1.541688
431.478	1.538018
431.833	1.533969
432.188	1.530308
432.543	1.525940
432.899	1.522032
433.254	1.517595
433.609	1.513581
433.964	1.509894
434.319	1.505007
434.674	1.500428
435.029	1.495778
435.384	1.491407
435.739	1.487386
436.094	1.483924
436.449	1.479592
436.804	1.475744
437.158	1.471836
437.513	1.467332
437.868	1.462490
438.223	1.457858
438.577	1.452954
438.932	1.449388
439.287	1.445482
439.641	1.441143
439.996	1.437006
440.350	1.432715
440.704	1.428775
441.059	1.424488
441.413	1.419834
441.768	1.415226
442.122	1.411475
442.476	1.407088
442.830	1.402415
443.185	1.397822
443.539	1.392993
443.893	1.388751
444.247	1.384227
444.601	1.379595
444.955	1.374491
445.309	1.369690
445.663	1.365384
446.017	1.360865
446.371	1.355829
446.724	1.351086
447.078	1.346366
447.432	1.341433
447.786	1.336622
448.139	1.331357
448.493	1.326297
448.847	1.321539
449.200	1.316524
449.554	1.311657
449.907	1.307188
450.261	1.302155
450.614	1.297514
450.968	1.292771
451.321	1.287649
451.674	1.282892
452.027	1.278286
452.381	1.273603
452.734	1.268651
453.087	1.263462
453.440	1.258515
453.793	1.253651
454.146	1.248655
454.499	1.244182
454.852	1.239323
455.205	1.234718
455.558	1.230273
455.911	1.225950
456.264	1.221035
456.617	1.216866
456.970	1.212319
457.322	1.207817
457.675	1.204165
458.028	1.200171
458.380	1.196262
458.733	1.192580
459.086	1.188616
459.438	1.184517
459.791	1.180788
460.143	1.176923
460.496	1.172998
460.848	1.168937
461.200	1.164887
461.553	1.160738
461.905	1.156938
462.257	1.152741
462.609	1.148891
462.961	1.144831
463.314	1.140981
463.666	1.137490
464.018	1.133729
464.370	1.130317
464.722	1.126546
465.074	1.122647
465.426	1.119304
465.777	1.116006
466.129	1.112555
466.481	1.109209
466.833	1.105974
467.184	1.102716
467.536	1.099159
467.888	1.095909
468.239	1.092633
468.591	1.088940
468.943	1.085123
469.294	1.081030
469.646	1.077225
469.997	1.073424
470.348	1.069850
470.700	1.066334
471.051	1.063030
471.402	1.059569
471.754	1.056127
472.105	1.053106
472.456	1.050032
472.807	1.046785
473.158	1.043771
473.509	1.040930
473.860	1.038242
474.211	1.035673
474.562	1.033038
474.913	1.030406
475.264	1.027682
475.615	1.024931
475.966	1.022322
476.316	1.019634
476.667	1.016753
477.018	1.014340
477.368	1.011469
477.719	1.008798
478.070	1.005975
478.420	1.003340
478.771	1.000710
479.121	0.998142
479.472	0.995472
479.822	0.993060
480.172	0.990493
480.523	0.987812
480.873	0.985376
481.223	0.982795
481.573	0.980278
481.924	0.977301
482.274	0.974285
482.624	0.971293
482.974	0.968410
483.324	0.965509
483.674	0.962867
484.024	0.960605
484.374	0.958463
484.724	0.956658
485.073	0.954869
485.423	0.953272
485.773	0.951529
486.123	0.949889
486.472	0.948113
486.822	0.946375
487.172	0.944637
487.521	0.942861
487.871	0.941119
488.220	0.939130
488.570	0.936810
488.919	0.933891
489.268	0.930836
489.618	0.927579
489.967	0.923951
490.316	0.920097
490.666	0.916649
491.015	0.913571
491.364	0.910698
491.713	0.907900
492.062	0.905148
492.411	0.902508
492.760	0.899800
493.109	0.897064
493.458	0.894349
493.807	0.891788
494.156	0.889174
494.505	0.886454
494.853	0.883861
495.202	0.881124
495.551	0.878438
495.900	0.875714
496.248	0.872957
496.597	0.870262
496.945	0.867606
497.294	0.865124
497.642	0.862608
497.991	0.859934
498.339	0.857328
498.688	0.854901
499.036	0.852503
499.384	0.849988
499.732	0.847446
500.081	0.844882
500.429	0.842381
500.777	0.839903
501.125	0.837459
501.473	0.835151
501.821	0.832895
502.169	0.830660
502.517	0.828460
502.865	0.826191
503.213	0.823870
503.561	0.821753
503.908	0.819549
504.256	0.817305
504.604	0.814971
504.952	0.812695
505.299	0.810498
505.647	0.808285
505.994	0.805886
506.342	0.803538
506.689	0.801273
507.037	0.799053
507.384	0.796848
507.732	0.794793
508.079	0.792667
508.426	0.790609
508.774	0.788335
509.121	0.786071
509.468	0.783960
509.815	0.781908
510.162	0.779862
510.509	0.777881
510.856	0.775747
511.203	0.773835
511.550	0.771883
511.897	0.769922
512.244	0.768021
512.591	0.765984
512.938	0.763993
513.284	0.762116
513.631	0.760256
513.978	0.758240
514.324	0.756299
514.671	0.754369
515.018	0.752337
515.364	0.750409
515.711	0.748389
516.057	0.746559
516.403	0.744743
516.750	0.742749
517.096	0.740702
517.443	0.738700
517.789	0.736765
518.135	0.734880
518.481	0.732819
518.827	0.731006
519.173	0.729155
519.519	0.727315
519.865	0.725507
520.211	0.723735
520.557	0.721897
520.903	0.719928
521.249	0.718191
521.595	0.716305
521.941	0.714366
522.287	0.712341
522.632	0.710385
522.978	0.708490
523.324	0.706551
523.669	0.704541
524.015	0.702608
524.360	0.700609
524.706	0.698710
525.051	0.696802
525.397	0.694919
525.742	0.693110
526.087	0.691109
526.433	0.689119
526.778	0.687209
527.123	0.685294
527.468	0.683237
527.813	0.681326
528.158	0.679423
528.504	0.677386
528.849	0.675311
529.193	0.673433
529.538	0.671455
529.883	0.669336
530.228	0.667146
530.573	0.665035
530.918	0.662931
531.263	0.660737
531.607	0.658677
531.952	0.656515
532.296	0.654326
532.641	0.652239
532.986	0.650060
533.330	0.647936
533.675	0.645902
534.019	0.643688
534.363	0.641561
534.708	0.639478
535.052	0.637225
535.396	0.635079
535.741	0.632921
536.085	0.630691
536.429	0.628290
536.773	0.625990
537.117	0.623629
537.461	0.621192
537.805	0.618695
538.149	0.616200
538.493	0.613599
538.837	0.611109
539.181	0.608583
539.524	0.606051
539.868	0.603484
540.212	0.600913
540.556	0.598283
540.899	0.595695
541.243	0.593131
541.586	0.590382
541.930	0.587619
542.273	0.584869
542.617	0.582092
542.960	0.579346
543.304	0.576638
543.647	0.573824
543.990	0.570924
544.333	0.567970
544.677	0.565040
545.020	0.562111
545.363	0.559105
545.706	0.556221
546.049	0.553218
546.392	0.550327
546.735	0.547374
547.078	0.544377
547.421	0.541409
547.764	0.538440
548.106	0.535269
548.449	0.532068
548.792	0.529003
549.135	0.525901
549.477	0.522795
549.820	0.519656
550.162	0.516509
550.505	0.513308
550.847	0.510101
551.190	0.506743
551.532	0.503380
551.875	0.499887
552.217	0.496375
552.559	0.492913
552.901	0.489437
553.244	0.486064
553.586	0.482694
553.928	0.479528
554.270	0.476392
554.612	0.473222
554.954	0.470048
555.296	0.466867
555.638	0.463681
555.980	0.460317
556.322	0.456897
556.663	0.453361
557.005	0.449770
557.347	0.446214
557.689	0.442636
558.030	0.439099
558.372	0.435594
558.713	0.432124
559.055	0.428738
559.396	0.425250
559.738	0.421788
560.079	0.418379
560.421	0.415006
560.762	0.411704
561.103	0.408309
561.444	0.405024
561.786	0.401889
562.127	0.398788
562.468	0.395666
562.809	0.392484
563.150	0.389229
563.491	0.385906
563.832	0.382492
564.173	0.379028
564.514	0.375525
564.855	0.372060
565.195	0.368511
565.536	0.364947
565.877	0.361398
566.218	0.357925
566.558	0.354509
566.899	0.351169
567.239	0.347930
567.580	0.344826
567.920	0.341817
568.261	0.339079
568.601	0.336488
568.941	0.334032
569.282	0.331687
569.622	0.329393
569.962	0.327206
570.302	0.325041
570.643	0.322828
570.983	0.320645
571.323	0.318565
571.663	0.316473
572.003	0.314397
572.343	0.312343
572.683	0.310300
573.022	0.308302
573.362	0.306229
573.702	0.304095
574.042	0.301944
574.381	0.299807
574.721	0.297753
575.061	0.295727
575.400	0.293792
575.740	0.291887
576.079	0.290026
576.419	0.288262
576.758	0.286536
577.097	0.284702
577.437	0.282710
577.776	0.280681
578.115	0.278642
578.454	0.276606
578.794	0.274641
579.133	0.272788
579.472	0.271081
579.811	0.269509
580.150	0.267978
580.489	0.266488
580.828	0.265016
581.167	0.263544
581.505	0.262043
581.844	0.260513
582.183	0.259005
582.522	0.257538
582.860	0.256102
583.199	0.254703
583.538	0.253258
583.876	0.251760
584.215	0.250259
584.553	0.248727
584.891	0.247230
585.230	0.245717
585.568	0.244242
585.906	0.242861
586.245	0.241589
586.583	0.240439
586.921	0.239349
587.259	0.238242
587.597	0.237113
587.935	0.235950
588.273	0.234743
588.611	0.233465
588.949	0.232131
589.287	0.230791
589.625	0.229450
589.963	0.228121
590.300	0.226817
590.638	0.225488
590.976	0.224169
591.313	0.222772
591.651	0.221518
591.989	0.220293
592.326	0.219189
592.664	0.218133
593.001	0.217158
593.338	0.216230
593.676	0.215376
594.013	0.214619
594.350	0.213920
594.687	0.213181
595.025	0.212335
595.362	0.211442
595.699	0.210519
596.036	0.209603
596.373	0.208626
596.710	0.207620
597.047	0.206680
597.384	0.205729
597.720	0.204865
598.057	0.204040
598.394	0.203255
598.731	0.202511
599.067	0.201751
599.404	0.200979
599.741	0.200251
600.077	0.199528
600.414	0.198851
600.750	0.198149
601.087	0.197392
601.423	0.196610
601.759	0.195850
602.096	0.195149
602.432	0.194483
602.768	0.193786
603.104	0.193052
603.440	0.192370
603.776	0.191736
604.112	0.191109
604.448	0.190502
604.784	0.189905
605.120	0.189301
605.456	0.188775
605.792	0.188189
606.128	0.187620
606.463	0.187111
606.799	0.186604
607.135	0.186093
607.470	0.185532
607.806	0.184981
608.142	0.184454
608.477	0.183940
608.812	0.183428
609.148	0.182922
609.483	0.182336
609.819	0.181799
610.154	0.181307
610.489	0.180830
610.824	0.180359
611.159	0.179870
611.494	0.179399
611.830	0.178954
612.165	0.178547
612.500	0.178076
612.834	0.177622
613.169	0.177162
613.504	0.176637
613.839	0.176093
614.174	0.175579
614.509	0.175149
614.843	0.174721
615.178	0.174315
615.512	0.173939
615.847	0.173538
616.182	0.173132
616.516	0.172740
616.850	0.172368
617.185	0.171970
617.519	0.171559
617.853	0.171134
618.188	0.170730
618.522	0.170427
618.856	0.170134
619.190	0.169746
619.524	0.169406
619.858	0.169112
620.192	0.168803
620.526	0.168410
620.860	0.168101
621.194	0.167756
621.528	0.167411
621.862	0.167025
622.195	0.166623
622.529	0.166211
622.863	0.165893
623.196	0.165523
623.530	0.165206
623.864	0.164862
624.197	0.164549
624.530	0.164285
624.864	0.164000
625.197	0.163685
625.531	0.163298
625.864	0.162883
626.197	0.162503
626.530	0.162113
626.863	0.161605
627.196	0.161163
627.529	0.160859
627.862	0.160446
628.195	0.160036
628.528	0.159693
628.861	0.159409
629.194	0.159143
629.527	0.158834
629.860	0.158515
630.192	0.158178
630.525	0.157872
630.858	0.157553
631.190	0.157216
631.523	0.156878
631.855	0.156508
632.188	0.156225
632.520	0.155907
632.852	0.155525
633.185	0.155213
633.517	0.154885
633.849	0.154630
634.182	0.154399
634.514	0.154209
634.846	0.154123
635.178	0.154029
635.510	0.153847
635.842	0.153578
636.174	0.153297
636.506	0.153063
636.837	0.152779
637.169	0.152565
637.501	0.152206
637.833	0.151955
638.164	0.151655
638.496	0.151294
638.828	0.150938
639.159	0.150514
639.491	0.150097
639.822	0.149763
640.154	0.149380
640.485	0.149018
640.816	0.148605
641.147	0.148219
641.479	0.147685
641.810	0.147251
642.141	0.146801
642.472	0.146381
642.803	0.146053
643.134	0.145725
643.465	0.145515
643.796	0.145314
644.127	0.145215
644.458	0.145288
644.789	0.145173
645.119	0.145119
645.450	0.145128
645.781	0.145127
646.111	0.145065
646.442	0.145052
646.773	0.144862
647.103	0.144613
647.433	0.144426
647.764	0.144346
648.094	0.144243
648.425	0.144304
648.755	0.144193
649.085	0.144014
649.415	0.143879
649.745	0.143764
650.075	0.143697
650.405	0.143576
650.735	0.144691
651.065	0.152642
651.395	0.154949
651.725	0.140293
652.055	0.096661
652.385	0.072573
652.715	0.057298
653.044	0.046751
653.374	0.039042
653.704	0.033187
654.033	0.039705
654.363	0.044776
654.692	0.047579
655.022	0.049293
655.351	0.050421
655.680	0.051143
656.010	0.051556
656.339	0.051737
656.668	0.051777
656.997	0.051733
657.326	0.051631
657.655	0.051308
657.984	0.049101
658.313	0.043312
658.642	0.036622
658.971	0.042067
659.300	0.049048
659.629	0.058299
659.958	0.071112
660.286	0.090062
660.615	0.121004
660.944	0.127831
661.272	0.128690
661.601	0.131455
661.929	0.134066
662.258	0.135683
662.586	0.136172
662.915	0.136028
663.243	0.135661
663.571	0.135245
663.899	0.135070
664.228	0.134937
664.556	0.134843
664.884	0.134749
665.212	0.134544
665.540	0.134538
665.868	0.134481
666.196	0.134386
666.524	0.134207
666.852	0.134220
667.179	0.134288
667.507	0.134246
667.835	0.134299
668.162	0.134239
668.490	0.134287
668.818	0.134293
669.145	0.134191
669.473	0.134185
669.800	0.134042
670.127	0.133899
670.455	0.133705
670.782	0.133631
671.109	0.133522
671.436	0.133486
671.764	0.133361
672.091	0.133325
672.418	0.133225
672.745	0.133163
673.072	0.133191
673.399	0.133194
673.726	0.132986
674.053	0.132795
674.379	0.132707
674.706	0.132596
675.033	0.132509
675.359	0.132331
675.686	0.132220
676.013	0.132217
676.339	0.132057
676.666	0.132090
676.992	0.132141
677.318	0.132260
677.645	0.132044
677.971	0.131945
678.297	0.131725
678.624	0.131658
678.950	0.131515
679.276	0.131375
679.602	0.131225
679.928	0.131147
680.254	0.131059
680.580	0.131136
680.906	0.131106
681.232	0.131009
681.558	0.130924
681.883	0.130799
682.209	0.130699
682.535	0.130557
682.860	0.130340
683.186	0.130199
683.511	0.129873
683.837	0.129636
684.162	0.129447
684.488	0.129402
684.813	0.129293
685.138	0.129144
685.464	0.128994
685.789	0.128860
686.114	0.128710
686.439	0.128691
686.764	0.128520
687.089	0.128372
687.414	0.128128
687.739	0.127958
688.064	0.127796
688.389	0.127532
688.714	0.127325
689.039	0.127033
689.363	0.126843
689.688	0.126653
690.013	0.126457
690.337	0.126480
690.662	0.126441
690.986	0.126365
691.311	0.126188
691.635	0.125999
691.959	0.125965
692.284	0.125936
692.608	0.125872
692.932	0.125904
693.256	0.125814
693.580	0.125908
693.904	0.125912
694.228	0.125890
694.552	0.125769
694.876	0.125520
695.200	0.125273
695.524	0.124962
695.848	0.124736
696.172	0.124489
696.495	0.124285
696.819	0.124195
697.143	0.123883
697.466	0.123701
697.790	0.123550
698.113	0.123515
698.437	0.123476
698.760	0.123389
699.083	0.123214
699.407	0.123032
699.730	0.122818
700.053	0.122623
700.376	0.122178
700.699	0.121654
701.022	0.121226
701.345	0.120808
701.668	0.120537
701.991	0.120436
702.314	0.120372
702.637	0.120387
702.960	0.120385
703.283	0.120475
703.605	0.120385
703.928	0.120473
704.251	0.120351
704.573	0.120098
704.896	0.119835
705.218	0.119524
705.540	0.119227
705.863	0.118972
706.185	0.118734
706.507	0.118411
706.830	0.118129
707.152	0.117895
707.474	0.117684
707.796	0.117479
708.118	0.117208
708.440	0.117001
708.762	0.116783
709.084	0.116604
709.406	0.116368
709.728	0.116155
710.049	0.115893
710.371	0.115650
710.693	0.115361
711.014	0.115045
711.336	0.114837
711.658	0.114584
711.979	0.114374
712.301	0.114154
712.622	0.113867
712.943	0.113563
713.265	0.113389
713.586	0.113111
713.907	0.113012
714.228	0.113027
714.549	0.112951
714.870	0.113037
715.191	0.112963
715.512	0.112849
715.833	0.112678
716.154	0.112508
716.475	0.112240
716.796	0.111863
717.117	0.111534
717.437	0.111231
717.758	0.111069
718.078	0.110744
718.399	0.110494
718.719	0.110321
719.040	0.110150
719.360	0.110002
719.681	0.109934
720.001	0.109772
720.321	0.109727
720.642	0.109624
720.962	0.109406
721.282	0.109390
721.602	0.109269
721.922	0.109201
722.242	0.109055
722.562	0.108908
722.882	0.108713
723.202	0.108532
723.521	0.108398
723.841	0.108269
724.161	0.108052
724.481	0.107852
724.800	0.107758
725.120	0.107734
725.439	0.107640
725.759	0.107549
726.078	0.107546
726.398	0.107505
726.717	0.107525
727.036	0.107478
727.355	0.107356
727.675	0.107357
727.994	0.107220
728.313	0.107086
728.632	0.106889
728.951	0.106659
729.270	0.106455
729.589	0.106284
729.908	0.106201
730.226	0.106123
730.545	0.106033
730.864	0.105924
731.182	0.105803
731.501	0.105657
731.820	0.105459
732.138	0.105271
732.457	0.105052
732.775	0.104842
733.093	0.104584
733.412	0.104366
733.730	0.104064
734.048	0.103779
734.367	0.103464
734.685	0.103213
735.003	0.102922
735.321	0.102756
735.639	0.102558
735.957	0.102454
736.275	0.102266
736.593	0.101967
736.910	0.101619
737.228	0.101310
737.546	0.101045
737.863	0.100790
738.181	0.100549
738.499	0.100282
738.816	0.100050
739.134	0.099843
739.451	0.099638
739.768	0.099481
740.086	0.099181
740.403	0.099038
740.720	0.098821
741.038	0.098575
741.355	0.098271
741.672	0.097987
741.989	0.097640
742.306	0.097404
742.623	0.096972
742.940	0.096675
743.257	0.096379
743.573	0.096211
743.890	0.096018
744.207	0.095789
744.523	0.095618
744.840	0.095413
745.157	0.095246
745.473	0.095222
745.790	0.095239
746.106	0.095095
746.422	0.095001
746.739	0.094963
747.055	0.094838
747.371	0.094751
747.687	0.094634
748.004	0.094540
748.320	0.094420
748.636	0.094352
748.952	0.094333
749.268	0.094354
749.584	0.094341
749.899	0.094366
750.215	0.094370
750.531	0.094417
750.847	0.094467
751.162	0.094467
751.478	0.094531
751.793	0.094510
752.109	0.094396
752.424	0.094360
752.740	0.094382
753.055	0.094475
753.370	0.094585
753.686	0.094687
754.001	0.094809
754.316	0.094945
754.631	0.094987
754.946	0.095069
755.261	0.095002
755.576	0.094886
755.891	0.094780
756.206	0.094693
756.521	0.094598
756.836	0.094504
757.150	0.094337
757.465	0.094168
757.780	0.093959
758.094	0.093815
758.409	0.093699
758.723	0.093590
759.038	0.093410
759.352	0.093250
759.667	0.093078
759.981	0.092961
760.295	0.092814
760.609	0.092694
760.923	0.092573
761.238	0.092402
761.552	0.092212
761.866	0.092072
762.180	0.091891
762.493	0.091647
762.807	0.091327
763.121	0.091056
763.435	0.090823
763.749	0.090659
764.062	0.090549
764.376	0.090570
764.689	0.090567
765.003	0.090595
765.316	0.090626
765.630	0.090739
765.943	0.090744
766.257	0.090699
766.570	0.090486
766.883	0.090253
767.196	0.089920
767.509	0.089430
767.822	0.089064
768.135	0.088736
768.448	0.088496
768.761	0.088225
769.074	0.088131
769.387	0.088073
769.700	0.087978
770.013	0.087848
770.325	0.087641
770.638	0.087445
770.950	0.087125
771.263	0.086826
771.575	0.086451
771.888	0.085980
772.200	0.085459
772.513	0.084976
772.825	0.084509
773.137	0.084116
773.449	0.083816
773.761	0.083546
774.074	0.083586
774.386	0.083618
774.698	0.083635
775.010	0.083601
775.321	0.083779
775.633	0.083672
775.945	0.083740
776.257	0.083907
776.568	0.083903
776.880	0.084148
777.192	0.084261
777.503	0.084210
777.815	0.084187
778.126	0.084278
778.438	0.084462
778.749	0.084643
779.060	0.084653
779.372	0.084625
779.683	0.084575
779.994	0.084456
780.305	0.084301
780.616	0.084167
780.927	0.084102
781.238	0.083903
781.549	0.083704
781.860	0.083486
782.171	0.083404
782.481	0.083355
782.792	0.083178
783.103	0.083149
783.413	0.083001
783.724	0.082856
784.034	0.082884
784.345	0.082878
784.655	0.082869
784.966	0.082697
785.276	0.082487
785.586	0.082391
785.896	0.082310
786.207	0.082235
786.517	0.082154
786.827	0.082232
787.137	0.082253
787.447	0.082122
787.757	0.082240
788.066	0.082282
788.376	0.082336
788.686	0.082358
788.996	0.082266
789.305	0.082308
789.615	0.082462
789.925	0.082526
790.234	0.082632
790.544	0.082767
790.853	0.082781
791.162	0.082763
791.472	0.082871
791.781	0.082744
792.090	0.082577
792.399	0.082345
792.708	0.082146
793.017	0.082064
793.326	0.081898
793.635	0.081764
793.944	0.081638
794.253	0.081493
794.562	0.081468
794.871	0.081478
795.179	0.081360
795.488	0.081220
795.797	0.081051
796.105	0.080763
796.414	0.080533
796.722	0.080260
797.031	0.079905
797.339	0.079531
797.647	0.079043
797.956	0.078579
798.264	0.078344
798.572	0.078384
798.880	0.078431
799.188	0.078494
799.496	0.078453
799.804	0.078535
800.112	0.078556
800.420	0.078508
800.728	0.078412
801.035	0.078135
801.343	0.077733
801.651	0.077739
801.958	0.077892
802.266	0.078039
802.573	0.078203
802.881	0.078326
803.188	0.078461
803.496	0.078630
803.803	0.078690
804.110	0.078811
804.417	0.078816
804.724	0.078827
805.032	0.078653
805.339	0.078561
805.646	0.078439
805.953	0.078247
806.259	0.078121
806.566	0.077807
806.873	0.077830
807.180	0.077765
807.486	0.077836
807.793	0.077872
808.100	0.077729
808.406	0.077363
808.713	0.077027
809.019	0.076557
809.326	0.076238
809.632	0.076090
809.938	0.075642
810.244	0.075416
810.551	0.075075
810.857	0.074947
811.163	0.074774
811.469	0.074599
811.775	0.074411
812.081	0.074390
812.387	0.074594
812.692	0.074643
812.998	0.074903
813.304	0.074719
813.610	0.074630
813.915	0.074574
814.221	0.074511
814.526	0.074492
814.832	0.074561
815.137	0.074444
815.443	0.074420
815.748	0.074278
816.053	0.074028
816.358	0.074002
816.664	0.074146
816.969	0.074377
817.274	0.074591
817.579	0.074751
817.884	0.074846
818.189	0.075015
818.493	0.074710
818.798	0.074425
819.103	0.074095
819.408	0.073772
819.712	0.073496
820.017	0.073378
820.321	0.073080
820.626	0.073033
820.930	0.073018
821.235	0.073046
821.539	0.073072
821.843	0.073001
822.148	0.072752
822.452	0.072483
822.756	0.072512
823.060	0.072264
823.364	0.072057
823.668	0.071566
823.972	0.071294
824.276	0.071396
824.580	0.071319
824.883	0.071600
825.187	0.071600
825.491	0.071631
825.795	0.071672
826.098	0.072043
826.402	0.072001
826.705	0.071975
827.008	0.071755
827.312	0.071534
827.615	0.070986
827.918	0.070619
828.222	0.070236
828.525	0.070111
828.828	0.070301
829.131	0.070206
829.434	0.069790
829.737	0.069667
830.040	0.069660
830.343	0.069762
830.645	0.069504
830.948	0.069384
831.251	0.069329
831.553	0.069297
831.856	0.069269
832.159	0.069140
832.461	0.068590
832.764	0.068337
833.066	0.067949
833.368	0.067848
833.671	0.067439
833.973	0.067600
834.275	0.067483
834.577	0.067599
834.879	0.067402
835.181	0.066859
835.483	0.066313
835.785	0.066422
836.087	0.066292
836.389	0.066257
836.690	0.065582
836.992	0.064943
837.294	0.064152
837.595	0.063187
837.897	0.062650
838.198	0.062007
838.500	0.061636
838.801	0.061615
839.103	0.061474
839.404	0.061713
839.705	0.061400
840.006	0.061479
840.307	0.061503
840.608	0.061491
840.910	0.061855
841.210	0.062277
841.511	0.062257
841.812	0.062303
842.113	0.062012
842.414	0.060916
842.715	0.059905
843.015	0.059439
843.316	0.059019
843.616	0.058757
843.917	0.058561
844.217	0.058586
844.518	0.058237
844.818	0.057912
845.118	0.058089
845.419	0.058176
845.719	0.057793
846.019	0.057600
846.319	0.057829
846.619	0.057634
846.919	0.058087
847.219	0.057473
847.519	0.056921
847.819	0.057073
848.118	0.057215
848.418	0.057483
848.718	0.058374
849.017	0.059558
849.317	0.060938
849.616	0.061800
849.916	0.062422
850.215	0.063110
850.515	0.063092
850.814	0.063080
851.113	0.062666
851.412	0.062287
851.712	0.061894
852.011	0.061515
852.310	0.061562
852.609	0.061526
852.908	0.061307
853.206	0.060829
853.505	0.061040
853.804	0.061238
854.103	0.061195
854.401	0.060724
854.700	0.060296
854.999	0.059937
855.297	0.059267
855.595	0.058600
855.894	0.058115
856.192	0.057594
856.491	0.057030
856.789	0.056526
857.087	0.055998
857.385	0.055853
857.683	0.055904
857.981	0.055802
858.279	0.056025
858.577	0.055833
858.875	0.055761
859.173	0.055757
859.471	0.056358
859.768	0.055786
860.066	0.054903
860.363	0.054340
860.661	0.054631
860.959	0.054450
861.256	0.054243
861.553	0.054087
861.851	0.053449
862.148	0.052567
862.445	0.051983
862.742	0.051822
863.039	0.051409
863.337	0.051817
863.634	0.051650
863.931	0.050965
864.227	0.050989
864.524	0.050515
864.821	0.050513
865.118	0.049115
865.415	0.048556
865.711	0.047544
866.008	0.046597
866.304	0.046933
866.601	0.046920
866.897	0.046711
867.194	0.047185
867.490	0.046592
867.786	0.046568
868.082	0.046916
868.379	0.047558
868.675	0.047388
868.971	0.047250
869.267	0.047015
869.563	0.046908
869.859	0.046612
870.154	0.046230
870.450	0.045819
870.746	0.045987
871.042	0.045985
871.337	0.046625
871.633	0.046756
871.928	0.047541
872.224	0.047881
872.519	0.047153
872.815	0.046989
873.110	0.046954
873.405	0.046405
873.700	0.046716
873.995	0.046480
874.291	0.046670
874.586	0.046947
874.881	0.047262
875.175	0.046997
875.470	0.047377
875.765	0.046624
876.060	0.046683
876.355	0.046583
876.649	0.046515
876.944	0.046556
877.238	0.046212
877.533	0.046313
877.827	0.046779
878.122	0.046387
878.416	0.045933
878.710	0.046572
879.005	0.046266
879.299	0.045639
879.593	0.045169
879.887	0.044827
880.181	0.044584
880.475	0.044492
880.769	0.043884
881.063	0.043830
881.356	0.044094
881.650	0.043720
881.944	0.043772
882.238	0.029857
882.531	0.039653
882.825	0.034162
883.118	0.033274
883.412	0.048593
883.705	0.038215
883.998	0.044679
884.291	0.056622
884.585	0.042061
884.878	0.039697
>>>>>>>>>> END of Data <<<<<<<<<<
>>>>>>>>>> Raw Data Start <<<<<<<<
190.664	-254
191.040	6
191.415	6
191.791	4
192.166	9
192.542	9
192.917	5
193.293	7
193.668	4
194.044	9
194.419	-5
194.794	7
195.170	7
195.545	7
195.920	8
196.296	7
196.671	7
197.046	8
197.421	8
197.796	8
198.171	8
198.546	8
198.922	8
199.297	8
199.672	9
200.047	9
200.422	9
200.796	9
201.171	9
201.546	10
201.921	9
202.296	10
202.671	10
203.045	10
203.420	10
203.795	11
204.170	11
204.544	11
204.919	11
205.294	11
205.668	12
206.043	11
206.417	11
206.792	11
207.166	11
207.541	11
207.915	11
208.289	11
208.664	11
209.038	11
209.412	11
209.787	11
210.161	11
210.535	12
210.909	12
211.284	12
211.658	12
212.032	12
212.406	12
212.780	11
213.154	11
213.528	11
213.902	11
214.276	11
214.650	11
215.024	11
215.398	11
215.772	11
216.145	11
216.519	11
216.893	11
217.267	11
217.640	11
218.014	11
218.388	12
218.761	11
219.135	11
219.508	11
219.882	11
220.256	11
220.629	11
221.003	11
221.376	11
221.749	11
222.123	11
222.496	11
222.869	11
223.243	11
223.616	12
223.989	12
224.362	12
224.736	12
225.109	12
225.482	12
225.855	12
226.228	12
226.601	12
226.974	12
227.347	12
227.720	12
228.093	12
228.466	12
228.839	12
229.212	12
229.585	11
229.957	11
230.330	12
230.703	12
231.076	12
231.448	12
231.821	11
232.194	11
232.566	11
232.939	11
233.311	11
233.684	11
234.056	11
234.429	11
234.801	11
235.174	12
235.546	12
235.918	12
236.291	12
236.663	12
237.035	12
237.408	13
237.780	13
238.152	13
238.524	13
238.896	13
239.268	13
239.641	14
240.013	13
240.385	13
240.757	13
241.129	14
241.500	14
241.872	14
242.244	13
242.616	14
242.988	13
243.360	13
243.731	13
244.103	13
244.475	13
244.847	13
245.218	13
245.590	13
245.961	13
246.333	13
246.705	13
247.076	12
247.448	13
247.819	13
248.190	13
248.562	13
248.933	13
249.305	13
249.676	13
250.047	13
250.418	13
250.790	14
251.161	14
251.532	13
251.903	13
252.274	13
252.645	13
253.016	12
253.387	13
253.758	13
254.129	13
254.500	13
254.871	13
255.242	13
255.613	13
255.984	13
256.355	13
256.725	13
257.096	13
257.467	13
257.838	13
258.208	13
258.579	13
258.949	13
259.320	13
259.690	13
260.061	14
260.431	14
260.802	14
261.172	14
261.543	13
261.913	14
262.283	14
262.654	14
263.024	14
263.394	14
263.764	14
264.135	14
264.505	14
264.875	14
265.245	14
265.615	14
265.985	14
266.355	14
266.725	14
267.095	14
267.465	15
267.835	14
268.205	14
268.575	14
268.944	14
269.314	14
269.684	14
270.054	14
270.423	14
270.793	14
271.163	14
271.532	14
271.902	14
272.271	14
272.641	13
273.010	14
273.380	14
273.749	14
274.119	14
274.488	14
274.857	13
275.227	14
275.596	14
275.965	14
276.335	14
276.704	14
277.073	14
277.442	14
277.811	14
278.180	14
278.549	14
278.918	14
279.287	14
279.656	14
280.025	14
280.394	14
280.763	14
281.132	15
281.501	14
281.869	14
282.238	14
282.607	14
282.976	14
283.344	14
283.713	14
284.081	14
284.450	13
284.819	14
285.187	14
285.556	14
285.924	14
286.292	14
286.661	14
287.029	14
287.398	15
287.766	15
288.134	15
288.502	14
288.871	14
289.239	15
289.607	15
289.975	15
290.343	15
290.711	15
291.079	15
291.447	15
291.815	15
292.183	15
292.551	15
292.919	15
293.287	15
293.655	14
294.022	15
294.390	14
294.758	14
295.126	14
295.493	14
295.861	14
296.229	14
296.596	13
296.964	13
297.331	14
297.699	14
298.066	14
298.434	14
298.801	14
299.168	14
299.536	14
299.903	14
300.270	14
300.638	14
301.005	14
301.372	14
301.739	15
302.106	15
302.473	15
302.840	15
303.207	15
303.574	15
303.941	15
304.308	15
304.675	16
305.042	15
305.409	15
305.776	15
306.143	16
306.509	16
306.876	16
307.243	16
307.610	16
307.976	16
308.343	16
308.709	16
309.076	16
309.442	16
309.809	16
310.175	15
310.542	15
310.908	15
311.275	16
311.641	16
312.007	16
312.373	16
312.740	16
313.106	16
313.472	16
313.838	16
314.204	16
314.570	17
314.936	17
315.302	17
315.668	17
316.034	17
316.400	17
316.766	17
317.132	17
317.498	17
317.864	18
318.230	18
318.595	18
318.961	18
319.327	18
319.692	19
320.058	19
320.424	20
320.789	20
321.155	21
321.520	21
321.886	21
322.251	21
322.616	22
322.982	22
323.347	23
323.712	23
324.078	24
324.443	25
324.808	26
325.173	26
325.539	27
325.904	27
326.269	28
326.634	29
326.999	29
327.364	30
327.729	30
328.094	31
328.459	31
328.823	32
329.188	32
329.553	34
329.918	34
330.283	34
330.647	35
331.012	36
331.377	36
331.741	37
332.106	38
332.470	38
332.835	39
333.199	40
333.564	41
333.928	41
334.293	42
334.657	43
335.021	44
335.386	45
335.750	46
336.114	47
336.478	47
336.843	49
337.207	49
337.571	50
337.935	51
338.299	52
338.663	53
339.027	54
339.391	54
339.755	55
340.119	56
340.483	57
340.846	58
341.210	59
341.574	60
341.938	61
342.301	61
342.665	62
343.029	63
343.392	63
343.756	64
344.119	65
344.483	65
344.846	66
345.210	66
345.573	67
345.937	68
346.300	68
346.663	69
347.027	70
347.390	70
347.753	71
348.116	71
348.479	72
348.843	73
349.206	74
349.569	75
349.932	75
350.295	76
350.658	76
351.021	76
351.383	76
351.746	77
352.109	77
352.472	78
352.835	78
353.197	79
353.560	79
353.923	80
354.285	80
354.648	81
355.011	81
355.373	81
355.736	81
356.098	82
356.461	82
356.823	82
357.185	82
357.548	82
357.910	82
358.272	83
358.635	84
358.997	85
359.359	85
359.721	85
360.083	85
360.445	85
360.807	85
361.169	86
361.531	86
361.893	86
362.255	86
362.617	86
362.979	86
363.341	86
363.703	87
364.064	87
364.426	87
364.788	87
365.149	88
365.511	87
365.873	87
366.234	87
366.596	87
366.957	87
367.319	87
367.680	88
368.042	88
368.403	88
368.764	88
369.126	88
369.487	88
369.848	88
370.209	88
370.570	89
370.931	89
371.293	89
371.654	89
372.015	88
372.376	88
372.737	88
373.098	88
373.458	88
373.819	88
374.180	88
374.541	88
374.902	88
375.263	88
375.623	88
375.984	88
376.345	89
376.705	89
377.066	89
377.426	89
377.787	90
378.147	89
378.508	90
378.868	90
379.228	90
379.589	91
379.949	91
380.309	91
380.670	91
381.030	91
381.390	92
381.750	92
382.110	92
382.470	92
382.830	92
383.190	92
383.550	92
383.910	92
384.270	93
384.630	93
384.990	93
385.350	93
385.709	93
386.069	93
386.429	93
386.788	93
387.148	93
387.508	93
387.867	93
388.227	93
388.586	94
388.946	94
389.305	95
389.665	95
390.024	95
390.383	96
390.743	97
391.102	97
391.461	97
391.820	97
392.179	98
392.539	98
392.898	98
393.257	99
393.616	99
393.975	99
394.334	100
394.693	101
395.051	102
395.410	103
395.769	103
396.128	103
396.487	104
396.845	104
397.204	105
397.563	105
397.921	106
398.280	106
398.638	106
398.997	107
399.355	107
399.714	107
400.072	108
400.431	109
400.789	109
401.147	110
401.506	111
401.864	111
402.222	112
402.580	112
402.938	112
403.297	112
403.655	113
404.013	112
404.371	113
404.729	113
405.087	113
405.444	113
405.802	114
406.160	114
406.518	114
406.876	115
407.233	115
407.591	115
407.949	116
408.306	116
408.664	116
409.022	117
409.379	117
409.737	118
410.094	119
410.451	119
410.809	120
411.166	121
411.523	121
411.881	122
412.238	123
412.595	124
412.952	125
413.310	125
413.667	125
414.024	126
414.381	126
414.738	127
415.095	128
415.452	129
415.809	130
416.165	131
416.522	132
416.879	133
417.236	134
417.593	135
417.949	137
418.306	139
418.663	140
419.019	142
419.376	144
419.732	146
420.089	148
420.445	150
420.802	152
421.158	154
421.514	155
421.871	157
422.227	159
422.583	160
422.939	162
423.295	163
423.652	165
424.008	166
424.364	167
424.720	168
425.076	169
425.432	170
425.788	171
426.143	173
426.499	175
426.855	176
427.211	178
427.567	179
427.922	181
428.278	182
428.634	183
428.989	184
429.345	186
429.700	188
430.056	189
430.411	190
430.767	192
431.122	195
431.478	196
431.833	198
432.188	200
432.543	202
432.899	204
433.254	205
433.609	207
433.964	207
434.319	209
434.674	210
435.029	212
435.384	214
435.739	216
436.094	218
436.449	220
436.804	223
437.158	226
437.513	230
437.868	234
438.223	238
438.577	243
438.932	247
439.287	251
439.641	256
439.996	260
440.350	265
440.704	269
441.059	274
441.413	279
441.768	284
442.122	289
442.476	293
442.830	298
443.185	303
443.539	308
443.893	313
444.247	317
444.601	321
444.955	325
445.309	327
445.663	330
446.017	332
446.371	335
446.724	337
447.078	339
447.432	341
447.786	343
448.139	345
448.493	347
448.847	348
449.200	350
449.554	351
449.907	352
450.261	353
450.614	354
450.968	356
451.321	357
451.674	359
452.027	360
452.381	362
452.734	364
453.087	366
453.440	369
453.793	372
454.146	375
454.499	379
454.852	383
455.205	388
455.558	393
455.911	398
456.264	403
456.617	408
456.970	413
457.322	418
457.675	422
458.028	426
458.380	429
458.733	432
459.086	436
459.438	441
459.791	444
460.143	449
460.496	455
460.848	462
461.200	469
461.553	476
461.905	483
462.257	489
462.609	495
462.961	501
463.314	507
463.666	511
464.018	515
464.370	520
464.722	525
465.074	530
465.426	534
465.777	538
466.129	542
466.481	546
466.833	548
467.184	550
467.536	552
467.888	552
468.239	552
468.591	552
468.943	553
469.294	555
469.646	557
469.997	560
470.348	565
470.700	570
471.051	576
471.402	584
471.754	593
472.105	601
472.456	611
472.807	622
473.158	634
473.509	646
473.860	660
474.211	674
474.562	688
474.913	703
475.264	719
475.615	735
475.966	751
476.316	766
476.667	782
477.018	798
477.368	815
477.719	831
478.070	848
478.420	863
478.771	878
479.121	893
479.472	908
479.822	923
480.172	940
480.523	959
480.873	984
481.223	1025
481.573	1086
481.924	1164
482.274	1252
482.624	1345
482.974	1440
483.324	1524
483.674	1590
484.024	1635
484.374	1666
484.724	1687
485.073	1702
485.423	1714
485.773	1726
486.123	1737
486.472	1749
486.822	1760
487.172	1769
487.521	1777
487.871	1782
488.220	1780
488.570	1761
488.919	1724
489.268	1669
489.618	1603
489.967	1532
490.316	1459
490.666	1394
491.015	1347
491.364	1319
491.713	1306
492.062	1304
492.411	1306
492.760	1312
493.109	1319
493.458	1326
493.807	1332
494.156	1337
494.505	1343
494.853	1349
495.202	1356
495.551	1366
495.900	1375
496.248	1385
496.597	1395
496.945	1405
497.294	1414
497.642	1424
497.991	1435
498.339	1448
498.688	1462
499.036	1475
499.384	1487
499.732	1499
500.081	1509
500.429	1517
500.777	1526
501.125	1534
501.473	1541
501.821	1549
502.169	1557
502.517	1564
502.865	1569
503.213	1573
503.561	1576
503.908	1579
504.256	1581
504.604	1582
504.952	1583
505.299	1583
505.647	1581
505.994	1579
506.342	1576
506.689	1573
507.037	1570
507.384	1569
507.732	1569
508.079	1568
508.426	1568
508.774	1569
509.121	1569
509.468	1569
509.815	1567
510.162	1566
510.509	1565
510.856	1564
511.203	1562
511.550	1560
511.897	1559
512.244	1556
512.591	1555
512.938	1554
513.284	1552
513.631	1550
513.978	1548
514.324	1545
514.671	1542
515.018	1539
515.364	1536
515.711	1534
516.057	1531
516.403	1528
516.750	1526
517.096	1523
517.443	1519
517.789	1515
518.135	1511
518.481	1508
518.827	1505
519.173	1501
519.519	1498
519.865	1495
520.211	1493
520.557	1491
520.903	1490
521.249	1488
521.595	1488
521.941	1486
522.287	1486
522.632	1485
522.978	1484
523.324	1484
523.669	1485
524.015	1487
524.360	1492
524.706	1498
525.051	1505
525.397	1514
525.742	1523
526.087	1533
526.433	1543
526.778	1552
527.123	1559
527.468	1566
527.813	1572
528.158	1578
528.504	1586
528.849	1595
529.193	1608
529.538	1622
529.883	1639
530.228	1659
530.573	1681
530.918	1704
531.263	1728
531.607	1749
531.952	1769
532.296	1786
532.641	1800
532.986	1812
533.330	1823
533.675	1834
534.019	1849
534.363	1867
534.708	1888
535.052	1912
535.396	1938
535.741	1963
536.085	1986
536.429	2007
536.773	2025
537.117	2040
537.461	2053
537.805	2066
538.149	2079
538.493	2093
538.837	2107
539.181	2125
539.524	2146
539.868	2170
540.212	2197
540.556	2226
540.899	2256
541.243	2283
541.586	2307
541.930	2327
542.273	2343
542.617	2355
542.960	2368
543.304	2384
543.647	2403
543.990	2429
544.333	2457
544.677	2487
545.020	2515
545.363	2540
545.706	2560
546.049	2576
546.392	2586
546.735	2592
547.078	2597
547.421	2601
547.764	2607
548.106	2615
548.449	2625
548.792	2640
549.135	2660
549.477	2684
549.820	2708
550.162	2730
550.505	2748
550.847	2762
551.190	2773
551.532	2781
551.875	2790
552.217	2800
552.559	2812
552.901	2830
553.244	2850
553.586	2872
553.928	2895
554.270	2916
554.612	2934
554.954	2949
555.296	2961
555.638	2974
555.980	2986
556.322	3002
556.663	3022
557.005	3050
557.347	3085
557.689	3124
558.030	3162
558.372	3197
558.713	3229
559.055	3260
559.396	3290
559.738	3321
560.079	3355
560.421	3393
560.762	3436
561.103	3485
561.444	3538
561.786	3592
562.127	3651
562.468	3713
562.809	3782
563.150	3858
563.491	3940
563.832	4031
564.173	4134
564.514	4252
564.855	4392
565.195	4564
565.536	4771
565.877	5012
566.218	5287
566.558	5597
566.899	5939
567.239	6309
567.580	6698
567.920	7101
568.261	7507
568.601	7923
568.941	8353
569.282	8796
569.622	9255
569.962	9732
570.302	10240
570.643	10768
570.983	11303
571.323	11819
571.663	12320
572.003	12797
572.343	13243
572.683	13660
573.022	14080
573.362	14521
573.702	14979
574.042	15439
574.381	15882
574.721	16302
575.061	16707
575.400	17077
575.740	17406
576.079	17698
576.419	17980
576.758	18297
577.097	18672
577.437	19087
577.776	19530
578.115	19995
578.454	20472
578.794	20915
579.133	21265
579.472	21509
579.811	21655
580.150	21708
580.489	21688
580.828	21632
581.167	21576
581.505	21538
581.844	21512
582.183	21484
582.522	21470
582.860	21470
583.199	21471
583.538	21447
583.876	21362
584.215	21188
584.553	20915
584.891	20548
585.230	20095
585.568	19588
585.906	19064
586.245	18587
586.583	18174
586.921	17833
587.259	17528
587.597	17226
587.935	16911
588.273	16587
588.611	16282
588.949	16011
589.287	15782
589.625	15600
589.963	15458
590.300	15345
590.638	15246
590.976	15135
591.313	15006
591.651	14878
591.989	14767
592.326	14675
592.664	14597
593.001	14531
593.338	14492
593.676	14472
594.013	14476
594.350	14525
594.687	14614
595.025	14719
595.362	14815
595.699	14885
596.036	14930
596.373	14944
596.710	14920
597.047	14866
597.384	14801
597.720	14725
598.057	14662
598.394	14614
598.731	14584
599.067	14580
599.404	14601
599.741	14656
600.077	14736
600.414	14827
600.750	14926
601.087	15004
601.423	15044
601.759	15049
602.096	15024
602.432	14980
602.768	14914
603.104	14823
603.440	14708
603.776	14585
604.112	14453
604.448	14318
604.784	14176
605.120	14025
605.456	13878
605.792	13725
606.128	13564
606.463	13398
606.799	13229
607.135	13075
607.470	12925
607.806	12774
608.142	12628
608.477	12487
608.812	12351
609.148	12215
609.483	12074
609.819	11928
610.154	11787
610.489	11657
610.824	11543
611.159	11447
611.494	11350
611.830	11266
612.165	11183
612.500	11092
612.834	10986
613.169	10866
613.504	10734
613.839	10588
614.174	10421
614.509	10250
614.843	10080
615.178	9919
615.512	9758
615.847	9602
616.182	9448
616.516	9292
616.850	9126
617.185	8955
617.519	8782
617.853	8595
618.188	8399
618.522	8218
618.856	8063
619.190	7929
619.524	7810
619.858	7715
620.192	7640
620.526	7576
620.860	7511
621.194	7450
621.528	7389
621.862	7329
622.195	7257
622.529	7180
622.863	7099
623.196	7018
623.530	6936
623.864	6855
624.197	6772
624.530	6691
624.864	6618
625.197	6544
625.531	6460
625.864	6360
626.197	6251
626.530	6134
626.863	6003
627.196	5860
627.529	5713
627.862	5569
628.195	5426
628.528	5284
628.861	5148
629.194	5025
629.527	4909
629.860	4794
630.192	4681
630.525	4574
630.858	4476
631.190	4382
631.523	4291
631.855	4206
632.188	4131
632.520	4062
632.852	3997
633.185	3930
633.517	3866
633.849	3807
634.182	3754
634.514	3703
634.846	3657
635.178	3616
635.510	3580
635.842	3548
636.174	3517
636.506	3486
636.837	3455
637.169	3425
637.501	3394
637.833	3359
638.164	3319
638.496	3276
638.828	3227
639.159	3172
639.491	3112
639.822	3050
640.154	2986
640.485	2923
640.816	2861
641.147	2800
641.479	2741
641.810	2684
642.141	2629
642.472	2574
642.803	2520
643.134	2468
643.465	2423
643.796	2387
644.127	2361
644.458	2346
644.789	2344
645.119	2357
645.450	2378
645.781	2403
646.111	2428
646.442	2450
646.773	2468
647.103	2482
647.433	2494
647.764	2506
648.094	2522
648.425	2542
648.755	2567
649.085	2595
649.415	2626
649.745	2658
650.075	2690
650.405	2726
650.735	2788
651.065	3222
651.395	4783
651.725	7516
652.055	11140
652.385	14761
652.715	18380
653.044	22000
653.374	25626
653.704	29257
654.033	32062
654.363	33902
654.692	35133
655.022	35928
655.351	36441
655.680	36755
656.010	36924
656.339	36999
656.668	37019
656.997	37010
657.326	36980
657.655	36913
657.984	36461
658.313	34873
658.642	32105
658.971	28434
659.300	24762
659.629	21090
659.958	17419
660.286	13749
660.615	10079
660.944	7242
661.272	5374
661.601	4118
661.929	3296
662.258	2751
662.586	2400
662.915	2187
663.243	2065
663.571	1995
663.899	1952
664.228	1925
664.556	1906
664.884	1894
665.212	1885
665.540	1878
665.868	1875
666.196	1873
666.524	1872
666.852	1873
667.179	1880
667.507	1893
667.835	1914
668.162	1942
668.490	1976
668.818	2016
669.145	2059
669.473	2102
669.800	2143
670.127	2179
670.455	2209
670.782	2234
671.109	2256
671.436	2274
671.764	2290
672.091	2302
672.418	2313
672.745	2322
673.072	2330
673.399	2340
673.726	2352
674.053	2361
674.379	2364
674.706	2364
675.033	2362
675.359	2359
675.686	2353
676.013	2350
676.339	2351
676.666	2357
676.992	2374
677.318	2396
677.645	2425
677.971	2450
678.297	2475
678.624	2497
678.950	2519
679.276	2540
679.602	2559
679.928	2579
680.254	2604
680.580	2635
680.906	2676
681.232	2727
681.558	2781
681.883	2835
682.209	2886
682.535	2932
682.860	2975
683.186	3012
683.511	3041
683.837	3060
684.162	3074
684.488	3085
684.813	3096
685.138	3107
685.464	3116
685.789	3124
686.114	3132
686.439	3143
686.764	3155
687.089	3163
687.414	3166
687.739	3157
688.064	3139
688.389	3116
688.714	3087
689.039	3057
689.363	3025
689.688	2989
690.013	2954
690.337	2922
690.662	2896
690.986	2874
691.311	2851
691.635	2828
691.959	2806
692.284	2790
692.608	2786
692.932	2790
693.256	2799
693.580	2810
693.904	2825
694.228	2843
694.552	2860
694.876	2869
695.200	2868
695.524	2857
695.848	2839
696.172	2816
696.495	2792
696.819	2766
697.143	2740
697.466	2713
697.790	2689
698.113	2672
698.437	2663
698.760	2661
699.083	2660
699.407	2653
699.730	2640
700.053	2619
700.376	2590
700.699	2550
701.022	2498
701.345	2441
701.668	2386
701.991	2338
702.314	2305
702.637	2287
702.960	2290
703.283	2311
703.605	2351
703.928	2406
704.251	2470
704.573	2535
704.896	2594
705.218	2642
705.540	2681
705.863	2710
706.185	2734
706.507	2755
706.830	2774
707.152	2793
707.474	2814
707.796	2837
708.118	2863
708.440	2889
708.762	2911
709.084	2929
709.406	2940
709.728	2942
710.049	2937
710.371	2925
710.693	2905
711.014	2884
711.336	2862
711.658	2843
711.979	2826
712.301	2811
712.622	2795
712.943	2777
713.265	2753
713.586	2730
713.907	2707
714.228	2685
714.549	2669
714.870	2657
715.191	2652
715.512	2652
715.833	2649
716.154	2642
716.475	2632
716.796	2616
717.117	2592
717.437	2563
717.758	2530
718.078	2496
718.399	2463
718.719	2433
719.040	2407
719.360	2386
719.681	2371
720.001	2362
720.321	2357
720.642	2354
720.962	2355
721.282	2360
721.602	2367
721.922	2376
722.242	2386
722.562	2402
722.882	2420
723.202	2438
723.521	2454
723.841	2470
724.161	2488
724.481	2506
724.800	2523
725.120	2545
725.439	2572
725.759	2602
726.078	2636
726.398	2678
726.717	2729
727.036	2788
727.355	2851
727.675	2912
727.994	2970
728.313	3027
728.632	3076
728.951	3118
729.270	3153
729.589	3185
729.908	3223
730.226	3267
730.545	3315
730.864	3367
731.182	3423
731.501	3481
731.820	3537
732.138	3585
732.457	3628
732.775	3667
733.093	3700
733.412	3719
733.730	3725
734.048	3718
734.367	3702
734.685	3679
735.003	3653
735.321	3628
735.639	3609
735.957	3593
736.275	3579
736.593	3561
736.910	3533
737.228	3493
737.546	3440
737.863	3378
738.181	3309
738.499	3235
738.816	3163
739.134	3092
739.451	3020
739.768	2947
740.086	2878
740.403	2812
740.720	2752
741.038	2696
741.355	2642
741.672	2588
741.989	2533
742.306	2475
742.623	2416
742.940	2358
743.257	2304
743.573	2256
743.890	2216
744.207	2187
744.523	2166
744.840	2152
745.157	2143
745.473	2141
745.790	2147
746.106	2162
746.422	2186
746.739	2217
747.055	2254
747.371	2296
747.687	2341
748.004	2384
748.320	2422
748.636	2456
748.952	2489
749.268	2523
749.584	2555
749.899	2584
750.215	2614
750.531	2648
750.847	2685
751.162	2723
751.478	2759
751.793	2798
752.109	2839
752.424	2882
752.740	2927
753.055	2977
753.370	3037
753.686	3108
754.001	3185
754.316	3265
754.631	3351
754.946	3441
755.261	3537
755.576	3630
755.891	3720
756.206	3808
756.521	3900
756.836	3995
757.150	4087
757.465	4168
757.780	4239
758.094	4298
758.409	4344
758.723	4375
759.038	4389
759.352	4391
759.667	4379
759.981	4358
760.295	4336
760.609	4317
760.923	4306
761.238	4299
761.552	4294
761.866	4288
762.180	4279
762.493	4258
762.807	4216
763.121	4150
763.435	4065
763.749	3971
764.062	3882
764.376	3806
764.689	3753
765.003	3723
765.316	3717
765.630	3728
765.943	3748
766.257	3773
766.570	3795
766.883	3801
767.196	3793
767.509	3770
767.822	3735
768.135	3689
768.448	3638
768.761	3584
769.074	3536
769.387	3499
769.700	3476
770.013	3462
770.325	3452
770.638	3437
770.950	3410
771.263	3365
771.575	3303
771.888	3223
772.200	3130
772.513	3028
772.825	2921
773.137	2811
773.449	2702
773.761	2596
774.074	2497
774.386	2408
774.698	2334
775.010	2272
775.321	2227
775.633	2198
775.945	2181
776.257	2170
776.568	2167
776.880	2172
777.192	2187
777.503	2210
777.815	2240
778.126	2277
778.438	2323
778.749	2372
779.060	2421
779.372	2467
779.683	2512
779.994	2552
780.305	2585
780.616	2608
780.927	2622
781.238	2628
781.549	2624
781.860	2608
782.171	2585
782.481	2559
782.792	2533
783.103	2506
783.413	2478
783.724	2448
784.034	2418
784.345	2390
784.655	2364
784.966	2339
785.276	2313
785.586	2287
785.896	2260
786.207	2233
786.517	2204
786.827	2175
787.137	2148
787.447	2122
787.757	2097
788.066	2073
788.376	2050
788.686	2028
788.996	2005
789.305	1981
789.615	1962
789.925	1951
790.234	1948
790.544	1952
790.853	1962
791.162	1973
791.472	1982
791.781	1987
792.090	1983
792.399	1972
792.708	1954
793.017	1933
793.326	1913
793.635	1894
793.944	1877
794.253	1861
794.562	1850
794.871	1843
795.179	1838
795.488	1831
795.797	1822
796.105	1806
796.414	1780
796.722	1744
797.031	1698
797.339	1643
797.647	1580
797.956	1514
798.264	1452
798.572	1400
798.880	1359
799.188	1329
799.496	1307
799.804	1290
800.112	1277
800.420	1267
800.728	1257
801.035	1245
801.343	1230
801.651	1217
801.958	1213
802.266	1217
802.573	1226
802.881	1239
803.188	1255
803.496	1273
803.803	1292
804.110	1308
804.417	1323
804.724	1336
805.032	1349
805.339	1359
805.646	1366
805.953	1370
806.259	1371
806.566	1370
806.873	1364
807.180	1357
807.486	1350
807.793	1341
808.100	1328
808.406	1307
808.713	1278
809.019	1244
809.326	1209
809.632	1175
809.938	1143
810.244	1114
810.551	1089
810.857	1068
811.163	1051
811.469	1032
811.775	1012
812.081	991
812.387	972
812.692	956
812.998	944
813.304	935
813.610	928
813.915	922
814.221	917
814.526	913
814.832	909
815.137	905
815.443	900
815.748	891
816.053	880
816.358	867
816.664	856
816.969	845
817.274	836
817.579	828
817.884	824
818.189	822
818.493	822
818.798	820
819.103	816
819.408	808
819.712	799
820.017	788
820.321	777
820.626	766
820.930	756
821.235	749
821.539	746
821.843	746
822.148	748
822.452	749
822.756	749
823.060	747
823.364	743
823.668	737
823.972	730
824.276	722
824.580	716
824.883	712
825.187	711
825.491	710
825.795	710
826.098	710
826.402	709
826.705	707
827.008	702
827.312	695
827.615	684
827.918	670
828.222	654
828.525	638
828.828	622
829.131	606
829.434	591
829.737	576
830.040	563
830.343	553
830.645	545
830.948	536
831.251	528
831.553	520
831.856	514
832.159	509
832.461	503
832.764	496
833.066	489
833.368	483
833.671	479
833.973	475
834.275	472
834.577	469
834.879	465
835.181	460
835.483	455
835.785	449
836.087	440
836.389	431
836.690	420
836.992	409
837.294	397
837.595	384
837.897	370
838.198	357
838.500	344
838.801	333
839.103	323
839.404	314
839.705	307
840.006	301
840.307	296
840.608	292
840.910	289
841.210	288
841.511	285
841.812	283
842.113	280
842.414	276
842.715	271
843.015	266
843.316	260
843.616	254
843.917	250
844.217	245
844.518	241
844.818	238
845.118	237
845.419	235
845.719	234
846.019	233
846.319	231
846.619	230
846.919	229
847.219	228
847.519	227
847.819	226
848.118	226
848.418	228
848.718	234
849.017	245
849.317	260
849.616	279
849.916	301
850.215	326
850.515	353
850.814	379
851.113	404
851.412	426
851.712	446
852.011	465
852.310	482
852.609	498
852.908	511
853.206	524
853.505	535
853.804	544
854.103	553
854.401	560
854.700	563
854.999	561
855.297	555
855.595	545
855.894	529
856.192	511
856.491	489
856.789	465
857.087	440
857.385	417
857.683	396
857.981	376
858.279	359
858.577	341
858.875	327
859.173	315
859.471	304
859.768	296
860.066	290
860.363	284
860.661	279
860.959	275
861.256	272
861.553	267
861.851	262
862.148	257
862.445	252
862.742	247
863.039	243
863.337	239
863.634	236
863.931	235
864.227	233
864.524	233
864.821	233
865.118	232
865.415	231
865.711	228
866.008	224
866.304	220
866.601	215
866.897	211
867.194	208
867.490	206
867.786	205
868.082	204
868.379	204
868.675	205
868.971	205
869.267	206
869.563	206
869.859	205
870.154	205
870.450	204
870.746	203
871.042	202
871.337	201
871.633	201
871.928	202
872.224	203
872.519	205
872.815	206
873.110	207
873.405	207
873.700	206
873.995	206
874.291	206
874.586	206
874.881	207
875.175	210
875.470	213
875.765	217
876.060	221
876.355	225
876.649	230
876.944	234
877.238	238
877.533	242
877.827	244
878.122	247
878.416	248
878.710	248
879.005	248
879.299	247
879.593	246
879.887	245
880.181	244
880.475	243
880.769	241
881.063	239
881.356	236
881.650	233
881.944	229
882.238	194
882.531	183
882.825	181
883.118	184
883.412	181
883.705	183
883.998	186
884.291	186
884.585	193
884.878	203
>>>>>>>>>> END of Data <<<<<<<<<<