Date	2023年05月19日金曜日 04時47分40秒
Spectrometers	USB2+H05879
ダーク	使用
リファレンス	使用
積分時間[usec]	1800
平均回数	10000
ｽﾑｰｼﾞﾝｸﾞ	0
Electrical Dark	USE
ピクセル数	2048
計測モード	吸光度
保存開始波長[nm]	190.664
保存終了波長[nm]	884.878
保存ﾋﾟｯﾁ波長[nm]	全波長

>>>>>>>>>> Data Start <<<<<<<<<<<<
190.664	0.000000
191.040	0.000000
191.415	0.000000
191.791	0.142788
192.166	1.937299
192.542	0.000000
192.917	-0.236360
193.293	0.000000
193.668	0.524658
194.044	0.000000
194.419	0.227202
194.794	0.054556
195.170	0.000000
195.545	-0.452573
195.920	0.271757
196.296	0.000000
196.671	0.000000
197.046	0.000000
197.421	0.058827
197.796	0.000000
198.171	0.636429
198.546	0.490224
198.922	0.394973
199.297	-0.000512
199.672	0.000000
200.047	0.530870
200.422	1.818273
200.796	0.000000
201.171	0.406116
201.546	0.394463
201.921	0.000000
202.296	0.000000
202.671	0.340698
203.045	0.430973
203.420	1.654607
203.795	0.624230
204.170	0.797112
204.544	0.670074
204.919	0.562905
205.294	0.423611
205.668	0.000000
206.043	0.000000
206.417	0.979958
206.792	0.202435
207.166	0.454332
207.541	0.000000
207.915	0.605113
208.289	0.679922
208.664	1.262082
209.038	0.000000
209.412	0.550708
209.787	0.453121
210.161	0.216105
210.535	0.000000
210.909	0.622081
211.284	0.940111
211.658	0.000000
212.032	0.499920
212.406	0.709995
212.780	0.492177
213.154	0.000000
213.528	1.334697
213.902	0.396188
214.276	0.000000
214.650	0.598277
215.024	0.000000
215.398	1.096247
215.772	0.446158
216.145	0.741289
216.519	0.000000
216.893	0.000000
217.267	0.000000
217.640	0.416807
218.014	0.000000
218.388	0.000000
218.761	0.000000
219.135	0.644750
219.508	0.000000
219.882	1.654272
220.256	0.000000
220.629	2.089909
221.003	0.774217
221.376	0.088812
221.749	0.540340
222.123	0.365760
222.496	0.389512
222.869	0.000000
223.243	1.316298
223.616	0.497157
223.989	0.363469
224.362	2.598571
224.736	0.248135
225.109	0.000000
225.482	0.000000
225.855	0.789860
226.228	0.000000
226.601	1.053890
226.974	0.904485
227.347	0.506070
227.720	0.000000
228.093	0.698454
228.466	0.895839
228.839	0.384533
229.212	0.000000
229.585	0.359594
229.957	0.450724
230.330	1.020436
230.703	0.971517
231.076	0.000000
231.448	1.274151
231.821	0.122169
232.194	0.402714
232.566	-0.091971
232.939	0.720052
233.311	0.000000
233.684	1.229349
234.056	1.041713
234.429	0.476662
234.801	0.632336
235.174	0.592027
235.546	1.652400
235.918	0.428348
236.291	0.620570
236.663	0.568490
237.035	0.506332
237.408	0.762061
237.780	0.280467
238.152	0.890651
238.524	0.000000
238.896	0.442050
239.268	0.929925
239.641	0.000000
240.013	1.930274
240.385	0.485251
240.757	0.573344
241.129	0.362918
241.500	0.447334
241.872	0.737802
242.244	0.480404
242.616	0.773933
242.988	0.738526
243.360	0.845651
243.731	0.234018
244.103	0.000000
244.475	0.000000
244.847	0.903025
245.218	1.001487
245.590	0.000000
245.961	0.000000
246.333	0.337449
246.705	0.655274
247.076	0.000000
247.448	0.728827
247.819	0.211631
248.190	0.431013
248.562	0.451312
248.933	0.746135
249.305	1.659028
249.676	0.000000
250.047	0.000000
250.418	0.000000
250.790	0.000000
251.161	0.369900
251.532	0.000000
251.903	0.000000
252.274	0.945783
252.645	0.444574
253.016	0.351991
253.387	0.000000
253.758	0.439425
254.129	0.000000
254.500	0.560800
254.871	0.816837
255.242	0.571220
255.613	0.529536
255.984	0.411118
256.355	0.620201
256.725	0.523405
257.096	0.471888
257.467	0.437455
257.838	0.000000
258.208	0.000000
258.579	0.352016
258.949	0.000000
259.320	0.663621
259.690	0.393005
260.061	0.427400
260.431	0.652414
260.802	0.000000
261.172	0.762385
261.543	1.122550
261.913	0.437908
262.283	1.773927
262.654	0.000000
263.024	0.000000
263.394	0.642350
263.764	0.365147
264.135	0.000000
264.505	1.717995
264.875	0.902395
265.245	0.699454
265.615	0.709277
265.985	0.468634
266.355	0.455090
266.725	0.430422
267.095	0.859252
267.465	0.518279
267.835	0.425410
268.205	0.561640
268.575	1.155567
268.944	0.934692
269.314	0.567595
269.684	0.000000
270.054	0.615030
270.423	0.000000
270.793	0.638828
271.163	0.347073
271.532	0.565983
271.902	1.043067
272.271	0.469777
272.641	0.949670
273.010	0.623395
273.380	0.000000
273.749	1.000447
274.119	0.878712
274.488	0.000000
274.857	0.872020
275.227	1.607606
275.596	1.630784
275.965	0.528129
276.335	0.489681
276.704	0.521047
277.073	0.412041
277.442	0.517227
277.811	0.861570
278.180	0.000000
278.549	0.767947
278.918	0.688701
279.287	0.581729
279.656	1.580079
280.025	0.549062
280.394	0.000000
280.763	1.078327
281.132	0.414482
281.501	0.000000
281.869	1.193432
282.238	0.000000
282.607	0.000000
282.976	0.000000
283.344	0.766691
283.713	0.755377
284.081	0.000000
284.450	0.000000
284.819	0.000000
285.187	0.932676
285.556	0.000000
285.924	0.458508
286.292	0.000000
286.661	0.000000
287.029	0.713927
287.398	0.672689
287.766	0.569892
288.134	1.220643
288.502	0.932641
288.871	0.000000
289.239	0.861611
289.607	1.133428
289.975	0.576679
290.343	0.000000
290.711	0.675802
291.079	0.000000
291.447	0.742630
291.815	0.778937
292.183	0.000000
292.551	0.872383
292.919	0.000000
293.287	0.000000
293.655	0.701595
294.022	1.955825
294.390	0.000000
294.758	0.000000
295.126	0.000000
295.493	0.839341
295.861	0.695410
296.229	1.283296
296.596	0.752047
296.964	2.440100
297.331	0.997102
297.699	0.802547
298.066	0.708418
298.434	0.879150
298.801	1.089843
299.168	0.000000
299.536	1.176007
299.903	1.618526
300.270	1.715150
300.638	1.527947
301.005	2.509759
301.372	1.301903
301.739	1.418823
302.106	1.289839
302.473	1.275567
302.840	1.339250
303.207	1.592102
303.574	0.000000
303.941	0.000000
304.308	1.692764
304.675	2.553021
305.042	2.141723
305.409	1.434615
305.776	2.087123
306.143	1.899063
306.509	1.718514
306.876	1.793130
307.243	1.667236
307.610	1.604246
307.976	1.862594
308.343	1.902710
308.709	1.698497
309.076	0.000000
309.442	3.265917
309.809	1.996488
310.175	2.402131
310.542	2.004434
310.908	1.745574
311.275	1.684052
311.641	2.254195
312.007	1.865923
312.373	2.075845
312.740	2.390518
313.106	2.334374
313.472	0.000000
313.838	2.296379
314.204	4.201389
314.570	2.164215
314.936	2.116635
315.302	2.137690
315.668	2.377115
316.034	3.955551
316.400	2.175475
316.766	0.000000
317.132	2.306230
317.498	2.348761
317.864	2.507832
318.230	2.270518
318.595	2.450339
318.961	2.277395
319.327	3.187473
319.692	2.371075
320.058	2.206778
320.424	2.299777
320.789	0.000000
321.155	2.365704
321.520	2.448361
321.886	2.172791
322.251	2.191953
322.616	2.868398
322.982	2.521822
323.347	2.842779
323.712	2.639958
324.078	2.302417
324.443	2.204574
324.808	2.830199
325.173	2.269507
325.539	2.222703
325.904	2.371013
326.269	2.639364
326.634	2.567608
326.999	2.250130
327.364	2.466195
327.729	2.416330
328.094	2.512983
328.459	2.909998
328.823	2.309966
329.188	2.315876
329.553	2.596365
329.918	2.357562
330.283	2.260572
330.647	2.322495
331.012	2.456277
331.377	2.471265
331.741	2.943705
332.106	2.367547
332.470	2.775031
332.835	2.409073
333.199	2.419527
333.564	2.415672
333.928	2.526363
334.293	2.448642
334.657	2.532442
335.021	2.341574
335.386	2.272785
335.750	2.168422
336.114	2.343699
336.478	2.327608
336.843	2.395790
337.207	2.325348
337.571	2.397696
337.935	2.337866
338.299	2.416809
338.663	2.272483
339.027	2.479556
339.391	2.311008
339.755	2.336546
340.119	2.310261
340.483	2.260292
340.846	2.475127
341.210	2.276696
341.574	2.282982
341.938	2.465484
342.301	2.349577
342.665	2.316456
343.029	2.257676
343.392	2.317955
343.756	2.223011
344.119	2.353160
344.483	2.240182
344.846	2.399514
345.210	2.256126
345.573	2.329172
345.937	2.364139
346.300	2.351973
346.663	2.252170
347.027	2.300668
347.390	2.327194
347.753	2.305144
348.116	2.338339
348.479	2.357873
348.843	2.236904
349.206	2.335046
349.569	2.355088
349.932	2.341099
350.295	2.430267
350.658	2.350646
351.021	2.180931
351.383	2.379563
351.746	2.311547
352.109	2.341520
352.472	2.375063
352.835	2.249707
353.197	2.403975
353.560	2.340567
353.923	2.238980
354.285	2.251442
354.648	2.325635
355.011	2.328637
355.373	2.351077
355.736	2.276467
356.098	2.278337
356.461	2.237909
356.823	2.276282
357.185	2.382777
357.548	2.302958
357.910	2.318715
358.272	2.274891
358.635	2.314224
358.997	2.303180
359.359	2.295380
359.721	2.280908
360.083	2.313747
360.445	2.331402
360.807	2.371478
361.169	2.219718
361.531	2.280389
361.893	2.312813
362.255	2.363361
362.617	2.413942
362.979	2.336696
363.341	2.195932
363.703	2.351522
364.064	2.267719
364.426	2.217032
364.788	2.332516
365.149	2.220129
365.511	2.347535
365.873	2.249640
366.234	2.309646
366.596	2.353369
366.957	2.265729
367.319	2.310558
367.680	2.293597
368.042	2.371908
368.403	2.370200
368.764	2.393922
369.126	2.325725
369.487	2.233701
369.848	2.331791
370.209	2.374811
370.570	2.224148
370.931	2.242214
371.293	2.322450
371.654	2.275542
372.015	2.226347
372.376	2.304469
372.737	2.237803
373.098	2.251435
373.458	2.277834
373.819	2.269280
374.180	2.330254
374.541	2.226750
374.902	2.286082
375.263	2.283209
375.623	2.238621
375.984	2.220497
376.345	2.222288
376.705	2.307774
377.066	2.334852
377.426	2.418030
377.787	2.363448
378.147	2.287830
378.508	2.194274
378.868	2.234957
379.228	2.338192
379.589	2.227945
379.949	2.286092
380.309	2.259980
380.670	2.299671
381.030	2.329973
381.390	2.362424
381.750	2.392842
382.110	2.292859
382.470	2.268715
382.830	2.252069
383.190	2.332884
383.550	2.220096
383.910	2.315613
384.270	2.285254
384.630	2.262884
384.990	2.228405
385.350	2.311396
385.709	2.220088
386.069	2.228080
386.429	2.366628
386.788	2.273708
387.148	2.260283
387.508	2.362007
387.867	2.207971
388.227	2.263221
388.586	2.256035
388.946	2.352312
389.305	2.286223
389.665	2.233083
390.024	2.293388
390.383	2.266740
390.743	2.251196
391.102	2.371035
391.461	2.286030
391.820	2.190559
392.179	2.253309
392.539	2.314889
392.898	2.253495
393.257	2.272497
393.616	2.208785
393.975	2.171294
394.334	2.285867
394.693	2.296046
395.051	2.272771
395.410	2.265203
395.769	2.258598
396.128	2.225904
396.487	2.188978
396.845	2.296492
397.204	2.260252
397.563	2.266460
397.921	2.373011
398.280	2.243486
398.638	2.244619
398.997	2.347091
399.355	2.291224
399.714	2.184048
400.072	2.250524
400.431	2.205263
400.789	2.215897
401.147	2.204281
401.506	2.341560
401.864	2.247118
402.222	2.229713
402.580	2.211512
402.938	2.205322
403.297	2.219713
403.655	2.206012
404.013	2.210451
404.371	2.151173
404.729	2.189174
405.087	2.178207
405.444	2.219501
405.802	2.180657
406.160	2.222721
406.518	2.232284
406.876	2.274493
407.233	2.244187
407.591	2.321590
407.949	2.213488
408.306	2.187261
408.664	2.160358
409.022	2.187611
409.379	2.232183
409.737	2.137675
410.094	2.106352
410.451	2.107051
410.809	2.207991
411.166	2.218606
411.523	2.186442
411.881	2.110732
412.238	2.135627
412.595	2.130672
412.952	2.179218
413.310	2.142857
413.667	2.192533
414.024	2.137307
414.381	2.194380
414.738	2.115236
415.095	2.102892
415.452	2.097232
415.809	2.120826
416.165	2.156574
416.522	2.059281
416.879	2.095403
417.236	2.069433
417.593	2.019196
417.949	2.074846
418.306	2.105207
418.663	2.114643
419.019	2.073720
419.376	2.048502
419.732	2.084684
420.089	2.097298
420.445	2.046935
420.802	2.045245
421.158	2.012585
421.514	2.041387
421.871	2.055086
422.227	2.085165
422.583	2.054225
422.939	2.057956
423.295	2.054444
423.652	2.041651
424.008	2.032999
424.364	2.013520
424.720	1.978052
425.076	1.985203
425.432	2.030311
425.788	1.981511
426.143	1.985774
426.499	2.007423
426.855	2.025841
427.211	1.970027
427.567	1.985792
427.922	1.984340
428.278	1.978769
428.634	1.935910
428.989	1.963707
429.345	1.968178
429.700	1.975509
430.056	1.913566
430.411	1.959949
430.767	1.958118
431.122	1.930763
431.478	1.924989
431.833	1.942222
432.188	1.905427
432.543	1.881218
432.899	1.923648
433.254	1.894435
433.609	1.881221
433.964	1.854449
434.319	1.888029
434.674	1.876042
435.029	1.851998
435.384	1.884187
435.739	1.830818
436.094	1.840286
436.449	1.854347
436.804	1.835588
437.158	1.863691
437.513	1.835434
437.868	1.842918
438.223	1.823780
438.577	1.813268
438.932	1.800498
439.287	1.804332
439.641	1.796397
439.996	1.805621
440.350	1.799577
440.704	1.779138
441.059	1.781797
441.413	1.774849
441.768	1.757253
442.122	1.778186
442.476	1.746181
442.830	1.725983
443.185	1.751000
443.539	1.743318
443.893	1.720690
444.247	1.700511
444.601	1.706720
444.955	1.704292
445.309	1.720021
445.663	1.706706
446.017	1.688638
446.371	1.693940
446.724	1.684344
447.078	1.670090
447.432	1.696430
447.786	1.683815
448.139	1.665349
448.493	1.677099
448.847	1.665614
449.200	1.639275
449.554	1.634826
449.907	1.640541
450.261	1.641427
450.614	1.623412
450.968	1.621526
451.321	1.614144
451.674	1.603400
452.027	1.585654
452.381	1.579561
452.734	1.577541
453.087	1.567802
453.440	1.564551
453.793	1.567761
454.146	1.558713
454.499	1.550893
454.852	1.551925
455.205	1.545319
455.558	1.521311
455.911	1.526903
456.264	1.541789
456.617	1.527241
456.970	1.531657
457.322	1.513692
457.675	1.502782
458.028	1.495983
458.380	1.492190
458.733	1.497763
459.086	1.495966
459.438	1.500527
459.791	1.487218
460.143	1.475951
460.496	1.470134
460.848	1.462721
461.200	1.465543
461.553	1.457702
461.905	1.439853
462.257	1.440719
462.609	1.437068
462.961	1.434449
463.314	1.431814
463.666	1.427785
464.018	1.427314
464.370	1.418652
464.722	1.425039
465.074	1.405421
465.426	1.415462
465.777	1.402540
466.129	1.400298
466.481	1.401035
466.833	1.393354
467.184	1.389971
467.536	1.399280
467.888	1.384630
468.239	1.389724
468.591	1.372399
468.943	1.370873
469.294	1.362443
469.646	1.358528
469.997	1.348819
470.348	1.356583
470.700	1.350078
471.051	1.338115
471.402	1.349655
471.754	1.342121
472.105	1.337221
472.456	1.320856
472.807	1.331769
473.158	1.324515
473.509	1.317755
473.860	1.318462
474.211	1.319262
474.562	1.314503
474.913	1.320770
475.264	1.310893
475.615	1.300428
475.966	1.301226
476.316	1.303603
476.667	1.290644
477.018	1.292665
477.368	1.297057
477.719	1.291483
478.070	1.293602
478.420	1.287842
478.771	1.275056
479.121	1.278179
479.472	1.276615
479.822	1.272690
480.172	1.270354
480.523	1.270566
480.873	1.261276
481.223	1.264231
481.573	1.262215
481.924	1.260806
482.274	1.256304
482.624	1.251289
482.974	1.253904
483.324	1.250216
483.674	1.246080
484.024	1.245108
484.374	1.247253
484.724	1.237489
485.073	1.222142
485.423	1.207401
485.773	1.194552
486.123	1.195418
486.472	1.207499
486.822	1.222232
487.172	1.221360
487.521	1.216646
487.871	1.214178
488.220	1.213173
488.570	1.205640
488.919	1.205593
489.268	1.201009
489.618	1.200972
489.967	1.195704
490.316	1.189776
490.666	1.188013
491.015	1.181678
491.364	1.177465
491.713	1.172987
492.062	1.175008
492.411	1.169800
492.760	1.169235
493.109	1.172277
493.458	1.165901
493.807	1.157583
494.156	1.154991
494.505	1.158303
494.853	1.147898
495.202	1.148909
495.551	1.148467
495.900	1.141625
496.248	1.144782
496.597	1.141423
496.945	1.134362
497.294	1.132722
497.642	1.129656
497.991	1.124889
498.339	1.124035
498.688	1.123233
499.036	1.115151
499.384	1.113602
499.732	1.114281
500.081	1.106841
500.429	1.103263
500.777	1.100294
501.125	1.100446
501.473	1.099235
501.821	1.096869
502.169	1.088856
502.517	1.093759
502.865	1.082883
503.213	1.083799
503.561	1.085559
503.908	1.079583
504.256	1.072016
504.604	1.071915
504.952	1.068461
505.299	1.063864
505.647	1.064802
505.994	1.063282
506.342	1.058176
506.689	1.055700
507.037	1.047863
507.384	1.050650
507.732	1.046453
508.079	1.042861
508.426	1.040553
508.774	1.040692
509.121	1.034636
509.468	1.028473
509.815	1.030346
510.162	1.030197
510.509	1.025303
510.856	1.025137
511.203	1.020097
511.550	1.016902
511.897	1.012524
512.244	1.018637
512.591	1.004401
512.938	1.004569
513.284	1.006581
513.631	1.003166
513.978	1.000148
514.324	0.998615
514.671	0.992122
515.018	0.994336
515.364	0.989969
515.711	0.991459
516.057	0.984792
516.403	0.983791
516.750	0.976338
517.096	0.978975
517.443	0.975032
517.789	0.972664
518.135	0.973410
518.481	0.972385
518.827	0.967206
519.173	0.963568
519.519	0.958887
519.865	0.954461
520.211	0.958942
520.557	0.952034
520.903	0.948853
521.249	0.946388
521.595	0.948503
521.941	0.942899
522.287	0.941067
522.632	0.937092
522.978	0.938413
523.324	0.935075
523.669	0.928273
524.015	0.927904
524.360	0.928227
524.706	0.923924
525.051	0.922318
525.397	0.921450
525.742	0.917406
526.087	0.913572
526.433	0.913253
526.778	0.912748
527.123	0.911707
527.468	0.903703
527.813	0.908322
528.158	0.904013
528.504	0.902742
528.849	0.900297
529.193	0.898642
529.538	0.890065
529.883	0.889249
530.228	0.889647
530.573	0.884371
530.918	0.878888
531.263	0.877668
531.607	0.876838
531.952	0.873803
532.296	0.871401
532.641	0.870594
532.986	0.871143
533.330	0.866600
533.675	0.866489
534.019	0.861533
534.363	0.863089
534.708	0.859144
535.052	0.857434
535.396	0.851738
535.741	0.850629
536.085	0.843767
536.429	0.843192
536.773	0.841382
537.117	0.837358
537.461	0.837989
537.805	0.834614
538.149	0.831283
538.493	0.828573
538.837	0.826796
539.181	0.822451
539.524	0.821689
539.868	0.815780
540.212	0.812755
540.556	0.810064
540.899	0.807614
541.243	0.804761
541.586	0.804244
541.930	0.802081
542.273	0.799002
542.617	0.793391
542.960	0.791795
543.304	0.789676
543.647	0.786187
543.990	0.784429
544.333	0.782488
544.677	0.775294
545.020	0.776576
545.363	0.770122
545.706	0.766091
546.049	0.763472
546.392	0.762459
546.735	0.758065
547.078	0.758302
547.421	0.754088
547.764	0.751673
548.106	0.748661
548.449	0.744767
548.792	0.738534
549.135	0.736189
549.477	0.732867
549.820	0.729579
550.162	0.723350
550.505	0.723390
550.847	0.717345
551.190	0.713288
551.532	0.710825
551.875	0.710569
552.217	0.706374
552.559	0.704517
552.901	0.699630
553.244	0.696404
553.586	0.692996
553.928	0.689431
554.270	0.684027
554.612	0.681197
554.954	0.678150
555.296	0.674860
555.638	0.671931
555.980	0.668064
556.322	0.664868
556.663	0.662052
557.005	0.658288
557.347	0.651404
557.689	0.650491
558.030	0.644715
558.372	0.641395
558.713	0.637133
559.055	0.637800
559.396	0.632874
559.738	0.630636
560.079	0.623949
560.421	0.623960
560.762	0.621085
561.103	0.616169
561.444	0.614788
561.786	0.610579
562.127	0.605309
562.468	0.603824
562.809	0.598843
563.150	0.597609
563.491	0.592808
563.832	0.590958
564.173	0.585375
564.514	0.582041
564.855	0.578783
565.195	0.573290
565.536	0.571295
565.877	0.567493
566.218	0.568434
566.558	0.563935
566.899	0.560249
567.239	0.558398
567.580	0.556665
567.920	0.552231
568.261	0.550227
568.601	0.545413
568.941	0.542311
569.282	0.535947
569.622	0.527927
569.962	0.517636
570.302	0.506731
570.643	0.497007
570.983	0.490286
571.323	0.482792
571.663	0.477166
572.003	0.468201
572.343	0.461091
572.683	0.452487
573.022	0.438158
573.362	0.423317
573.702	0.410587
574.042	0.404348
574.381	0.398407
574.721	0.397539
575.061	0.393837
575.400	0.392589
575.740	0.386465
576.079	0.374543
576.419	0.346818
576.758	0.325508
577.097	0.310228
577.437	0.303033
577.776	0.297562
578.115	0.303025
578.454	0.308564
578.794	0.322746
579.133	0.331542
579.472	0.322033
579.811	0.292957
580.150	0.262209
580.489	0.232517
580.828	0.213963
581.167	0.201931
581.505	0.197062
581.844	0.216136
582.183	0.244531
582.522	0.285483
582.860	0.321281
583.199	0.342997
583.538	0.339035
583.876	0.332833
584.215	0.320791
584.553	0.310707
584.891	0.306670
585.230	0.309761
585.568	0.318543
585.906	0.323974
586.245	0.328728
586.583	0.333368
586.921	0.333638
587.259	0.334852
587.597	0.339336
587.935	0.348650
588.273	0.361054
588.611	0.373226
588.949	0.384613
589.287	0.394337
589.625	0.399309
589.963	0.402029
590.300	0.403812
590.638	0.403900
590.976	0.403160
591.313	0.398687
591.651	0.391269
591.989	0.380425
592.326	0.371157
592.664	0.361529
593.001	0.355124
593.338	0.352467
593.676	0.353610
594.013	0.357022
594.350	0.361945
594.687	0.364812
595.025	0.366486
595.362	0.370771
595.699	0.375526
596.036	0.378096
596.373	0.381087
596.710	0.381018
597.047	0.379291
597.384	0.377089
597.720	0.372745
598.057	0.370449
598.394	0.366485
598.731	0.360929
599.067	0.355842
599.404	0.353969
599.741	0.352417
600.077	0.353433
600.414	0.354729
600.750	0.355203
601.087	0.356720
601.423	0.355879
601.759	0.355219
602.096	0.352285
602.432	0.351974
602.768	0.351342
603.104	0.350906
603.440	0.352020
603.776	0.354111
604.112	0.355049
604.448	0.357136
604.784	0.356485
605.120	0.357119
605.456	0.355633
605.792	0.356259
606.128	0.356638
606.463	0.355543
606.799	0.356916
607.135	0.356603
607.470	0.355862
607.806	0.356207
608.142	0.355841
608.477	0.356149
608.812	0.354473
609.148	0.353563
609.483	0.353598
609.819	0.352563
610.154	0.353067
610.489	0.352202
610.824	0.351887
611.159	0.349277
611.494	0.350374
611.830	0.349793
612.165	0.349163
612.500	0.349630
612.834	0.349078
613.169	0.346706
613.504	0.347630
613.839	0.348062
614.174	0.346749
614.509	0.346144
614.843	0.344051
615.178	0.343954
615.512	0.343938
615.847	0.343619
616.182	0.342264
616.516	0.340222
616.850	0.341858
617.185	0.339724
617.519	0.341852
617.853	0.339051
618.188	0.336946
618.522	0.338090
618.856	0.338160
619.190	0.337311
619.524	0.337322
619.858	0.337602
620.192	0.335478
620.526	0.333872
620.860	0.335779
621.194	0.333780
621.528	0.332268
621.862	0.334973
622.195	0.334112
622.529	0.332173
622.863	0.332263
623.196	0.333050
623.530	0.332025
623.864	0.329216
624.197	0.329030
624.530	0.327616
624.864	0.325232
625.197	0.326120
625.531	0.325439
625.864	0.324365
626.197	0.324542
626.530	0.322966
626.863	0.323189
627.196	0.324068
627.529	0.321358
627.862	0.320539
628.195	0.320450
628.528	0.320033
628.861	0.321142
629.194	0.322730
629.527	0.318357
629.860	0.318630
630.192	0.316324
630.525	0.312902
630.858	0.314437
631.190	0.310391
631.523	0.313090
631.855	0.307570
632.188	0.309365
632.520	0.309293
632.852	0.308205
633.185	0.307152
633.517	0.305904
633.849	0.307062
634.182	0.307065
634.514	0.304499
634.846	0.306340
635.178	0.307201
635.510	0.308148
635.842	0.305182
636.174	0.309684
636.506	0.306708
636.837	0.305064
637.169	0.301684
637.501	0.304857
637.833	0.304911
638.164	0.301531
638.496	0.302603
638.828	0.300046
639.159	0.298510
639.491	0.300953
639.822	0.296489
640.154	0.294985
640.485	0.296666
640.816	0.295953
641.147	0.298103
641.479	0.297072
641.810	0.292473
642.141	0.294110
642.472	0.294661
642.803	0.292352
643.134	0.291073
643.465	0.292471
643.796	0.289979
644.127	0.289959
644.458	0.295450
644.789	0.293440
645.119	0.286491
645.450	0.287552
645.781	0.288896
646.111	0.285178
646.442	0.284021
646.773	0.287159
647.103	0.291723
647.433	0.290366
647.764	0.291894
648.094	0.293074
648.425	0.293262
648.755	0.290797
649.085	0.289874
649.415	0.286887
649.745	0.288946
650.075	0.288938
650.405	0.288246
650.735	0.286282
651.065	0.287092
651.395	0.287855
651.725	0.286205
652.055	0.286058
652.385	0.288832
652.715	0.285998
653.044	0.286160
653.374	0.284820
653.704	0.283141
654.033	0.288190
654.363	0.099156
654.692	0.000010
655.022	0.000010
655.351	0.000010
655.680	0.000010
656.010	0.000010
656.339	0.000010
656.668	0.000010
656.997	0.000010
657.326	0.021233
657.655	0.148113
657.984	0.252377
658.313	0.262954
658.642	0.266540
658.971	0.265801
659.300	0.263476
659.629	0.263293
659.958	0.265650
660.286	0.268248
660.615	0.272600
660.944	0.273822
661.272	0.275418
661.601	0.275417
661.929	0.274142
662.258	0.274190
662.586	0.273013
662.915	0.275999
663.243	0.278091
663.571	0.277848
663.899	0.278285
664.228	0.277144
664.556	0.279282
664.884	0.280931
665.212	0.275809
665.540	0.272347
665.868	0.272983
666.196	0.269891
666.524	0.270731
666.852	0.275465
667.179	0.272721
667.507	0.275594
667.835	0.270916
668.162	0.273903
668.490	0.271757
668.818	0.272619
669.145	0.271649
669.473	0.271529
669.800	0.274236
670.127	0.273644
670.455	0.273563
670.782	0.276159
671.109	0.276118
671.436	0.274159
671.764	0.275674
672.091	0.274596
672.418	0.270316
672.745	0.272967
673.072	0.271378
673.399	0.269457
673.726	0.267297
674.053	0.270530
674.379	0.266573
674.706	0.268495
675.033	0.268445
675.359	0.268364
675.686	0.270434
676.013	0.268093
676.339	0.269941
676.666	0.272570
676.992	0.269336
677.318	0.268708
677.645	0.268262
677.971	0.268207
678.297	0.269089
678.624	0.266864
678.950	0.266128
679.276	0.271507
679.602	0.267799
679.928	0.267191
680.254	0.269628
680.580	0.267037
680.906	0.264382
681.232	0.267251
681.558	0.265673
681.883	0.266490
682.209	0.266375
682.535	0.263794
682.860	0.263757
683.186	0.262203
683.511	0.264873
683.837	0.267690
684.162	0.263498
684.488	0.268942
684.813	0.266919
685.138	0.266172
685.464	0.267925
685.789	0.264989
686.114	0.266034
686.439	0.262147
686.764	0.263395
687.089	0.263866
687.414	0.261077
687.739	0.257769
688.064	0.259517
688.389	0.256419
688.714	0.260896
689.039	0.258881
689.363	0.258335
689.688	0.261269
690.013	0.261145
690.337	0.262769
690.662	0.263574
690.986	0.264092
691.311	0.262938
691.635	0.263641
691.959	0.262626
692.284	0.260819
692.608	0.258302
692.932	0.256923
693.256	0.256917
693.580	0.256788
693.904	0.256970
694.228	0.261703
694.552	0.252717
694.876	0.254362
695.200	0.256787
695.524	0.256029
695.848	0.257512
696.172	0.257166
696.495	0.257788
696.819	0.258626
697.143	0.259803
697.466	0.257922
697.790	0.258230
698.113	0.255558
698.437	0.257786
698.760	0.258083
699.083	0.251554
699.407	0.254194
699.730	0.252956
700.053	0.255407
700.376	0.251304
700.699	0.249972
701.022	0.251452
701.345	0.248903
701.668	0.252573
701.991	0.250985
702.314	0.251796
702.637	0.251299
702.960	0.250892
703.283	0.251125
703.605	0.248144
703.928	0.252386
704.251	0.252277
704.573	0.251109
704.896	0.254162
705.218	0.250106
705.540	0.251719
705.863	0.252651
706.185	0.256375
706.507	0.257054
706.830	0.255187
707.152	0.256566
707.474	0.252399
707.796	0.253031
708.118	0.253644
708.440	0.252488
708.762	0.252404
709.084	0.251344
709.406	0.251809
709.728	0.247887
710.049	0.251134
710.371	0.248712
710.693	0.250257
711.014	0.248673
711.336	0.249297
711.658	0.250989
711.979	0.250019
712.301	0.248198
712.622	0.246780
712.943	0.248206
713.265	0.246595
713.586	0.249326
713.907	0.246487
714.228	0.245492
714.549	0.244760
714.870	0.248577
715.191	0.249787
715.512	0.241627
715.833	0.245741
716.154	0.246952
716.475	0.240279
716.796	0.242115
717.117	0.241868
717.437	0.241305
717.758	0.243740
718.078	0.241671
718.399	0.245875
718.719	0.244524
719.040	0.241545
719.360	0.238325
719.681	0.241079
720.001	0.238588
720.321	0.241162
720.642	0.239237
720.962	0.241168
721.282	0.242463
721.602	0.240961
721.922	0.241999
722.242	0.236060
722.562	0.237734
722.882	0.235067
723.202	0.236817
723.521	0.235334
723.841	0.239706
724.161	0.243295
724.481	0.236944
724.800	0.237932
725.120	0.234417
725.439	0.235473
725.759	0.240336
726.078	0.238694
726.398	0.233935
726.717	0.237170
727.036	0.235690
727.355	0.233467
727.675	0.235389
727.994	0.235910
728.313	0.238089
728.632	0.232741
728.951	0.237290
729.270	0.234157
729.589	0.232126
729.908	0.237653
730.226	0.237560
730.545	0.235828
730.864	0.238494
731.182	0.237761
731.501	0.234791
731.820	0.233830
732.138	0.234332
732.457	0.232839
732.775	0.233633
733.093	0.231299
733.412	0.234303
733.730	0.232009
734.048	0.233404
734.367	0.231699
734.685	0.232067
735.003	0.228448
735.321	0.234482
735.639	0.230490
735.957	0.231054
736.275	0.232469
736.593	0.226168
736.910	0.226000
737.228	0.227107
737.546	0.231508
737.863	0.228414
738.181	0.225563
738.499	0.225740
738.816	0.229010
739.134	0.229368
739.451	0.228929
739.768	0.226606
740.086	0.224612
740.403	0.221312
740.720	0.227945
741.038	0.223894
741.355	0.224168
741.672	0.229251
741.989	0.228840
742.306	0.219876
742.623	0.224463
742.940	0.223002
743.257	0.225480
743.573	0.219955
743.890	0.223669
744.207	0.220818
744.523	0.223025
744.840	0.220561
745.157	0.213445
745.473	0.219592
745.790	0.220058
746.106	0.218006
746.422	0.222701
746.739	0.224201
747.055	0.218504
747.371	0.219019
747.687	0.220090
748.004	0.222571
748.320	0.220562
748.636	0.216551
748.952	0.218083
749.268	0.221223
749.584	0.218337
749.899	0.217559
750.215	0.219106
750.531	0.220888
750.847	0.221767
751.162	0.218769
751.478	0.217217
751.793	0.216394
752.109	0.218825
752.424	0.220715
752.740	0.218141
753.055	0.221153
753.370	0.217040
753.686	0.219949
754.001	0.219332
754.316	0.215060
754.631	0.218660
754.946	0.217788
755.261	0.219320
755.576	0.221155
755.891	0.219549
756.206	0.220263
756.521	0.221003
756.836	0.220598
757.150	0.222024
757.465	0.220801
757.780	0.220237
758.094	0.218739
758.409	0.218555
758.723	0.217270
759.038	0.214782
759.352	0.218562
759.667	0.221260
759.981	0.217102
760.295	0.216583
760.609	0.219302
760.923	0.217208
761.238	0.216497
761.552	0.215647
761.866	0.215641
762.180	0.214535
762.493	0.214790
762.807	0.219960
763.121	0.215453
763.435	0.215070
763.749	0.213641
764.062	0.216373
764.376	0.215751
764.689	0.214277
765.003	0.214901
765.316	0.214773
765.630	0.210195
765.943	0.209224
766.257	0.211003
766.570	0.210414
766.883	0.211809
767.196	0.217708
767.509	0.213444
767.822	0.216953
768.135	0.217130
768.448	0.212988
768.761	0.214652
769.074	0.216876
769.387	0.213147
769.700	0.209281
770.013	0.211204
770.325	0.206357
770.638	0.207183
770.950	0.210664
771.263	0.207040
771.575	0.204265
771.888	0.205634
772.200	0.204474
772.513	0.206039
772.825	0.206881
773.137	0.203750
773.449	0.205063
773.761	0.204396
774.074	0.205318
774.386	0.203649
774.698	0.202301
775.010	0.205375
775.321	0.205304
775.633	0.205564
775.945	0.209879
776.257	0.201609
776.568	0.206520
776.880	0.206912
777.192	0.202353
777.503	0.205663
777.815	0.202237
778.126	0.207135
778.438	0.206578
778.749	0.204412
779.060	0.209532
779.372	0.204590
779.683	0.203146
779.994	0.206540
780.305	0.206416
780.616	0.206330
780.927	0.206462
781.238	0.206106
781.549	0.207565
781.860	0.205936
782.171	0.204112
782.481	0.204018
782.792	0.204658
783.103	0.208106
783.413	0.206017
783.724	0.202134
784.034	0.202488
784.345	0.205369
784.655	0.206914
784.966	0.205166
785.276	0.207334
785.586	0.206340
785.896	0.207174
786.207	0.203558
786.517	0.203796
786.827	0.203161
787.137	0.203675
787.447	0.205300
787.757	0.205631
788.066	0.205955
788.376	0.202907
788.686	0.202050
788.996	0.201119
789.305	0.204845
789.615	0.203896
789.925	0.207491
790.234	0.207328
790.544	0.204378
790.853	0.208581
791.162	0.204826
791.472	0.204605
791.781	0.202136
792.090	0.208281
792.399	0.206187
792.708	0.203405
793.017	0.204322
793.326	0.202176
793.635	0.204932
793.944	0.204329
794.253	0.208032
794.562	0.207214
794.871	0.206704
795.179	0.202470
795.488	0.203719
795.797	0.195574
796.105	0.196841
796.414	0.195276
796.722	0.206374
797.031	0.201801
797.339	0.199608
797.647	0.204925
797.956	0.197123
798.264	0.195190
798.572	0.197788
798.880	0.201853
799.188	0.191367
799.496	0.197044
799.804	0.197744
800.112	0.200733
800.420	0.198951
800.728	0.194585
801.035	0.196836
801.343	0.195544
801.651	0.200807
801.958	0.202070
802.266	0.198456
802.573	0.203747
802.881	0.194774
803.188	0.198233
803.496	0.195839
803.803	0.191963
804.110	0.185615
804.417	0.195924
804.724	0.199338
805.032	0.200343
805.339	0.197040
805.646	0.197083
805.953	0.198995
806.259	0.204219
806.566	0.202637
806.873	0.202176
807.180	0.197241
807.486	0.196376
807.793	0.192789
808.100	0.198782
808.406	0.196984
808.713	0.203811
809.019	0.197528
809.326	0.199111
809.632	0.203021
809.938	0.192524
810.244	0.195347
810.551	0.196430
810.857	0.195807
811.163	0.202074
811.469	0.197669
811.775	0.194728
812.081	0.194099
812.387	0.195160
812.692	0.197368
812.998	0.194175
813.304	0.201294
813.610	0.189953
813.915	0.189258
814.221	0.192421
814.526	0.194360
814.832	0.188057
815.137	0.202413
815.443	0.198258
815.748	0.192832
816.053	0.189095
816.358	0.196577
816.664	0.194847
816.969	0.204685
817.274	0.195083
817.579	0.190117
817.884	0.193320
818.189	0.196370
818.493	0.195690
818.798	0.193329
819.103	0.196042
819.408	0.195164
819.712	0.200310
820.017	0.202517
820.321	0.185346
820.626	0.201440
820.930	0.191721
821.235	0.192602
821.539	0.200556
821.843	0.199849
822.148	0.193641
822.452	0.205251
822.756	0.194727
823.060	0.197605
823.364	0.200058
823.668	0.197878
823.972	0.195364
824.276	0.198178
824.580	0.189517
824.883	0.193719
825.187	0.198588
825.491	0.197864
825.795	0.198617
826.098	0.195013
826.402	0.207956
826.705	0.192227
827.008	0.198197
827.312	0.202338
827.615	0.198213
827.918	0.187938
828.222	0.202162
828.525	0.205819
828.828	0.190553
829.131	0.184000
829.434	0.198675
829.737	0.198604
830.040	0.201366
830.343	0.196369
830.645	0.197760
830.948	0.221166
831.251	0.198439
831.553	0.188229
831.856	0.192841
832.159	0.199591
832.461	0.204314
832.764	0.189937
833.066	0.198447
833.368	0.194285
833.671	0.181014
833.973	0.192024
834.275	0.191034
834.577	0.195584
834.879	0.193723
835.181	0.191729
835.483	0.207759
835.785	0.195991
836.087	0.179825
836.389	0.188944
836.690	0.201293
836.992	0.202698
837.294	0.215341
837.595	0.210168
837.897	0.195458
838.198	0.197666
838.500	0.188718
838.801	0.167989
839.103	0.197895
839.404	0.212722
839.705	0.187800
840.006	0.192743
840.307	0.192478
840.608	0.194730
840.910	0.191217
841.210	0.181576
841.511	0.201903
841.812	0.200412
842.113	0.210121
842.414	0.192468
842.715	0.178659
843.015	0.202857
843.316	0.209718
843.616	0.207239
843.917	0.186010
844.217	0.200343
844.518	0.177350
844.818	0.195141
845.118	0.197604
845.419	0.183154
845.719	0.184876
846.019	0.173549
846.319	0.194163
846.619	0.192627
846.919	0.202406
847.219	0.211471
847.519	0.191456
847.819	0.198033
848.118	0.193471
848.418	0.217290
848.718	0.190117
849.017	0.197193
849.317	0.225744
849.616	0.179660
849.916	0.171747
850.215	0.199674
850.515	0.182621
850.814	0.194811
851.113	0.183765
851.412	0.187455
851.712	0.188737
852.011	0.182428
852.310	0.182091
852.609	0.199229
852.908	0.184295
853.206	0.182137
853.505	0.190828
853.804	0.192583
854.103	0.179754
854.401	0.191484
854.700	0.181753
854.999	0.189935
855.297	0.189167
855.595	0.181906
855.894	0.187958
856.192	0.197808
856.491	0.184934
856.789	0.183639
857.087	0.189885
857.385	0.179978
857.683	0.165140
857.981	0.179003
858.279	0.179756
858.577	0.183802
858.875	0.178742
859.173	0.193301
859.471	0.180796
859.768	0.177264
860.066	0.209834
860.363	0.184097
860.661	0.182520
860.959	0.177063
861.256	0.183791
861.553	0.206437
861.851	0.166494
862.148	0.195634
862.445	0.184982
862.742	0.187113
863.039	0.174957
863.337	0.181645
863.634	0.171023
863.931	0.184342
864.227	0.169172
864.524	0.180127
864.821	0.210223
865.118	0.162743
865.415	0.165867
865.711	0.176228
866.008	0.172683
866.304	0.207885
866.601	0.185326
866.897	0.200747
867.194	0.145700
867.490	0.198004
867.786	0.186473
868.082	0.178498
868.379	0.201735
868.675	0.201144
868.971	0.169699
869.267	0.169460
869.563	0.192181
869.859	0.170421
870.154	0.174898
870.450	0.178705
870.746	0.188115
871.042	0.192204
871.337	0.183481
871.633	0.172759
871.928	0.170990
872.224	0.196302
872.519	0.183177
872.815	0.180988
873.110	0.196351
873.405	0.183130
873.700	0.171908
873.995	0.191086
874.291	0.196607
874.586	0.173836
874.881	0.186244
875.175	0.186843
875.470	0.175922
875.765	0.159903
876.060	0.171305
876.355	0.164203
876.649	0.163765
876.944	0.191733
877.238	0.193253
877.533	0.203691
877.827	0.170229
878.122	0.186733
878.416	0.217853
878.710	0.180249
879.005	0.183289
879.299	0.197199
879.593	0.184584
879.887	0.184421
880.181	0.195179
880.475	0.168053
880.769	0.195196
881.063	0.167476
881.356	0.195234
881.650	0.192629
881.944	0.177314
882.238	0.166828
882.531	0.195155
882.825	0.170263
883.118	0.191301
883.412	0.158841
883.705	0.146515
883.998	0.182665
884.291	0.157048
884.585	0.180077
884.878	0.155400
>>>>>>>>>> END of Data <<<<<<<<<<
