Date	2023年05月19日金曜日 04時50分44秒
Spectrometers	USB2+H05879
ダーク	使用
リファレンス	使用
積分時間[usec]	1800
平均回数	10000
ｽﾑｰｼﾞﾝｸﾞ	0
Electrical Dark	USE
ピクセル数	2048
計測モード	吸光度
保存開始波長[nm]	190.664
保存終了波長[nm]	884.878
保存ﾋﾟｯﾁ波長[nm]	全波長

>>>>>>>>>> Data Start <<<<<<<<<<<<
190.664	0.000000
191.040	0.000000
191.415	0.000000
191.791	0.058072
192.166	1.202685
192.542	0.000000
192.917	-0.343209
193.293	0.000000
193.668	0.343190
194.044	0.000000
194.419	0.171238
194.794	0.014309
195.170	0.000000
195.545	-0.493626
195.920	0.133760
196.296	0.000000
196.671	0.000000
197.046	0.000000
197.421	-0.014070
197.796	0.000000
198.171	0.419893
198.546	0.419849
198.922	0.323825
199.297	-0.079270
199.672	0.000000
200.047	0.535442
200.422	1.660634
200.796	0.000000
201.171	0.505088
201.546	0.376431
201.921	0.000000
202.296	0.000000
202.671	0.315050
203.045	0.419838
203.420	1.313555
203.795	0.681951
204.170	0.860172
204.544	0.727831
204.919	0.533233
205.294	0.427207
205.668	0.000000
206.043	0.000000
206.417	0.963185
206.792	0.191273
207.166	0.402623
207.541	0.000000
207.915	0.639623
208.289	0.714200
208.664	1.113786
209.038	0.000000
209.412	0.539929
209.787	0.444239
210.161	0.220271
210.535	0.000000
210.909	0.640929
211.284	0.996091
211.658	0.000000
212.032	0.549748
212.406	0.679191
212.780	0.526332
213.154	0.000000
213.528	1.313738
213.902	0.406317
214.276	0.000000
214.650	0.605298
215.024	0.000000
215.398	1.175793
215.772	0.454709
216.145	0.749975
216.519	0.000000
216.893	0.000000
217.267	0.000000
217.640	0.418606
218.014	0.000000
218.388	0.000000
218.761	0.000000
219.135	0.697792
219.508	0.000000
219.882	1.729952
220.256	0.000000
220.629	1.291868
221.003	0.731303
221.376	0.083479
221.749	0.525254
222.123	0.389528
222.496	0.399419
222.869	0.000000
223.243	1.328371
223.616	0.481839
223.989	0.367560
224.362	0.000000
224.736	0.236877
225.109	0.000000
225.482	0.000000
225.855	0.747473
226.228	0.000000
226.601	1.054494
226.974	0.985352
227.347	0.527161
227.720	0.000000
228.093	0.711817
228.466	0.883262
228.839	0.397237
229.212	0.000000
229.585	0.362284
229.957	0.466081
230.330	1.070035
230.703	1.009458
231.076	0.000000
231.448	1.267563
231.821	0.124858
232.194	0.410776
232.566	-0.081015
232.939	0.789916
233.311	0.000000
233.684	1.285083
234.056	0.959579
234.429	0.466221
234.801	0.736676
235.174	0.645908
235.546	1.608140
235.918	0.445931
236.291	0.688009
236.663	0.555469
237.035	0.512532
237.408	0.758028
237.780	0.292925
238.152	0.949507
238.524	0.000000
238.896	0.458664
239.268	1.027218
239.641	0.000000
240.013	0.000000
240.385	0.494070
240.757	0.555762
241.129	0.368495
241.500	0.511298
241.872	0.772222
242.244	0.534683
242.616	0.798704
242.988	0.745029
243.360	0.994508
243.731	0.246340
244.103	0.000000
244.475	0.000000
244.847	0.932488
245.218	1.082140
245.590	0.000000
245.961	0.000000
246.333	0.350552
246.705	0.645713
247.076	0.000000
247.448	0.800226
247.819	0.223407
248.190	0.449926
248.562	0.470256
248.933	0.776748
249.305	0.000000
249.676	0.000000
250.047	0.000000
250.418	0.000000
250.790	0.000000
251.161	0.384887
251.532	0.000000
251.903	0.000000
252.274	1.099302
252.645	0.486899
253.016	0.392985
253.387	0.000000
253.758	0.459368
254.129	0.000000
254.500	0.600259
254.871	0.898096
255.242	0.711821
255.613	0.589260
255.984	0.445402
256.355	0.685464
256.725	0.573569
257.096	0.497423
257.467	0.457083
257.838	0.000000
258.208	0.000000
258.579	0.374037
258.949	0.000000
259.320	0.787591
259.690	0.428563
260.061	0.437903
260.431	0.678880
260.802	0.000000
261.172	0.894314
261.543	1.516940
261.913	0.458534
262.283	0.000000
262.654	0.000000
263.024	0.000000
263.394	0.700756
263.764	0.413926
264.135	0.000000
264.505	0.000000
264.875	1.170033
265.245	0.728554
265.615	0.754452
265.985	0.514649
266.355	0.478523
266.725	0.486811
267.095	0.940270
267.465	0.555455
267.835	0.446101
268.205	0.554631
268.575	1.569748
268.944	1.117783
269.314	0.581577
269.684	0.000000
270.054	0.645543
270.423	0.000000
270.793	0.767037
271.163	0.378883
271.532	0.598118
271.902	1.208497
272.271	0.545732
272.641	1.030200
273.010	0.661050
273.380	0.000000
273.749	1.139469
274.119	0.992953
274.488	0.000000
274.857	0.954762
275.227	0.000000
275.596	2.309109
275.965	0.556913
276.335	0.504511
276.704	0.541209
277.073	0.444352
277.442	0.528404
277.811	0.907830
278.180	0.000000
278.549	0.838132
278.918	0.737061
279.287	0.589909
279.656	2.186600
280.025	0.592030
280.394	0.000000
280.763	1.169037
281.132	0.435710
281.501	0.000000
281.869	0.000000
282.238	0.000000
282.607	0.000000
282.976	0.000000
283.344	0.818357
283.713	0.811815
284.081	0.000000
284.450	0.000000
284.819	0.000000
285.187	1.094264
285.556	0.000000
285.924	0.480108
286.292	0.000000
286.661	0.000000
287.029	0.784745
287.398	0.752194
287.766	0.565104
288.134	1.242266
288.502	0.954973
288.871	0.000000
289.239	0.915510
289.607	1.170710
289.975	0.605694
290.343	0.000000
290.711	0.725781
291.079	0.000000
291.447	0.781571
291.815	0.763388
292.183	0.000000
292.551	0.896989
292.919	0.000000
293.287	0.000000
293.655	0.728898
294.022	2.925290
294.390	0.000000
294.758	0.000000
295.126	0.000000
295.493	0.874624
295.861	0.727152
296.229	1.348154
296.596	0.776331
296.964	0.000000
297.331	1.026132
297.699	0.812727
298.066	0.724558
298.434	0.909598
298.801	1.135558
299.168	0.000000
299.536	1.196420
299.903	1.673418
300.270	1.895966
300.638	1.658573
301.005	3.591678
301.372	1.306172
301.739	1.440963
302.106	1.324505
302.473	1.320462
302.840	1.396242
303.207	1.635168
303.574	0.000000
303.941	0.000000
304.308	1.738966
304.675	2.885382
305.042	2.258213
305.409	1.434158
305.776	2.132417
306.143	1.933426
306.509	1.734228
306.876	1.818872
307.243	1.685686
307.610	1.617531
307.976	1.855741
308.343	1.917442
308.709	1.691300
309.076	0.000000
309.442	0.000000
309.809	1.987157
310.175	2.453211
310.542	2.020390
310.908	1.742571
311.275	1.679759
311.641	2.203678
312.007	1.867739
312.373	2.052644
312.740	2.352263
313.106	2.331478
313.472	0.000000
313.838	2.260089
314.204	3.199371
314.570	2.139756
314.936	2.085642
315.302	2.101545
315.668	2.337564
316.034	3.207145
316.400	2.140392
316.766	3.057447
317.132	2.253559
317.498	2.265366
317.864	2.430534
318.230	2.243052
318.595	2.370806
318.961	2.229153
319.327	2.884700
319.692	2.305786
320.058	2.153946
320.424	2.223025
320.789	0.000000
321.155	2.279391
321.520	2.360236
321.886	2.124750
322.251	2.126429
322.616	2.636557
322.982	2.398331
323.347	2.608637
323.712	2.481570
324.078	2.227560
324.443	2.139290
324.808	2.611662
325.173	2.185971
325.539	2.158351
325.904	2.278614
326.269	2.482301
326.634	2.435875
326.999	2.173057
327.364	2.349509
327.729	2.310724
328.094	2.380558
328.459	2.634235
328.823	2.217709
329.188	2.225232
329.553	2.441494
329.918	2.259341
330.283	2.181032
330.647	2.224876
331.012	2.329539
331.377	2.346519
331.741	2.639957
332.106	2.262672
332.470	2.531907
332.835	2.282404
333.199	2.299641
333.564	2.294692
333.928	2.366012
334.293	2.302463
334.657	2.370255
335.021	2.232127
335.386	2.176729
335.750	2.088635
336.114	2.229723
336.478	2.222178
336.843	2.268286
337.207	2.209746
337.571	2.264821
337.935	2.222950
338.299	2.273151
338.663	2.165982
339.027	2.316864
339.391	2.193551
339.755	2.212247
340.119	2.189970
340.483	2.148737
340.846	2.306943
341.210	2.163657
341.574	2.162088
341.938	2.291109
342.301	2.212556
342.665	2.183351
343.029	2.138451
343.392	2.186717
343.756	2.111452
344.119	2.209649
344.483	2.125199
344.846	2.234614
345.210	2.136215
345.573	2.189658
345.937	2.216748
346.300	2.200136
346.663	2.127673
347.027	2.165930
347.390	2.185898
347.753	2.168380
348.116	2.186695
348.479	2.197009
348.843	2.114451
349.206	2.188732
349.569	2.201447
349.932	2.192534
350.295	2.245507
350.658	2.197076
351.021	2.069959
351.383	2.211078
351.746	2.168663
352.109	2.187600
352.472	2.209121
352.835	2.120669
353.197	2.228426
353.560	2.185990
353.923	2.111921
354.285	2.120393
354.648	2.173015
355.011	2.179851
355.373	2.196017
355.736	2.138842
356.098	2.136635
356.461	2.111998
356.823	2.139375
357.185	2.210231
357.548	2.161883
357.910	2.170174
358.272	2.137592
358.635	2.167933
358.997	2.160011
359.359	2.154441
359.721	2.140801
360.083	2.165913
360.445	2.177663
360.807	2.207532
361.169	2.096699
361.531	2.140858
361.893	2.166001
362.255	2.203842
362.617	2.236289
362.979	2.185208
363.341	2.082513
363.703	2.193107
364.064	2.134816
364.426	2.096461
364.788	2.179696
365.149	2.103039
365.511	2.196614
365.873	2.122166
366.234	2.168947
366.596	2.200038
366.957	2.138247
367.319	2.166840
367.680	2.157779
368.042	2.213494
368.403	2.210108
368.764	2.228810
369.126	2.182290
369.487	2.110644
369.848	2.184461
370.209	2.217957
370.570	2.107273
370.931	2.121079
371.293	2.177025
371.654	2.148408
372.015	2.108793
372.376	2.170920
372.737	2.119925
373.098	2.130258
373.458	2.151731
373.819	2.142955
374.180	2.191111
374.541	2.112210
374.902	2.158769
375.263	2.156861
375.623	2.122167
375.984	2.106331
376.345	2.113015
376.705	2.180629
377.066	2.194391
377.426	2.257735
377.787	2.216293
378.147	2.165672
378.508	2.093676
378.868	2.125143
379.228	2.202015
379.589	2.119063
379.949	2.164048
380.309	2.142018
380.670	2.174183
381.030	2.197350
381.390	2.218099
381.750	2.247692
382.110	2.171166
382.470	2.153619
382.830	2.138313
383.190	2.205763
383.550	2.121649
383.910	2.192261
384.270	2.166517
384.630	2.153509
384.990	2.126922
385.350	2.193010
385.709	2.117178
386.069	2.125362
386.429	2.230496
386.788	2.167533
387.148	2.154021
387.508	2.232383
387.867	2.113112
388.227	2.157958
388.586	2.153757
388.946	2.229599
389.305	2.176069
389.665	2.138185
390.024	2.186122
390.383	2.164406
390.743	2.153556
391.102	2.248481
391.461	2.182005
391.820	2.106789
392.179	2.159884
392.539	2.208133
392.898	2.160805
393.257	2.175345
393.616	2.126059
393.975	2.096778
394.334	2.192112
394.693	2.198124
395.051	2.183687
395.410	2.171397
395.769	2.169029
396.128	2.143166
396.487	2.116030
396.845	2.202117
397.204	2.176252
397.563	2.185567
397.921	2.273032
398.280	2.166459
398.638	2.171507
398.997	2.254570
399.355	2.211441
399.714	2.121501
400.072	2.181786
400.431	2.141694
400.789	2.155400
401.147	2.146927
401.506	2.264203
401.864	2.186540
402.222	2.172279
402.580	2.157280
402.938	2.152454
403.297	2.167881
403.655	2.156077
404.013	2.163750
404.371	2.110619
404.729	2.148036
405.087	2.135060
405.444	2.178563
405.802	2.143434
406.160	2.184767
406.518	2.194649
406.876	2.232224
407.233	2.205531
407.591	2.283076
407.949	2.182644
408.306	2.162996
408.664	2.139752
409.022	2.167986
409.379	2.209735
409.737	2.125617
410.094	2.096204
410.451	2.100301
410.809	2.199747
411.166	2.215485
411.523	2.184801
411.881	2.109819
412.238	2.138844
412.595	2.135953
412.952	2.183132
413.310	2.153068
413.667	2.208196
414.024	2.152340
414.381	2.210240
414.738	2.132764
415.095	2.126762
415.452	2.120964
415.809	2.147115
416.165	2.189029
416.522	2.086809
416.879	2.129745
417.236	2.105141
417.593	2.051735
417.949	2.115612
418.306	2.153787
418.663	2.169133
419.019	2.125130
419.376	2.097910
419.732	2.143429
420.089	2.161168
420.445	2.104434
420.802	2.106333
421.158	2.072937
421.514	2.109550
421.871	2.127810
422.227	2.164448
422.583	2.132200
422.939	2.140878
423.295	2.139434
423.652	2.131460
424.008	2.123992
424.364	2.101577
424.720	2.063434
425.076	2.075534
425.432	2.135602
425.788	2.079001
426.143	2.089495
426.499	2.120240
426.855	2.152650
427.211	2.080692
427.567	2.106717
427.922	2.109349
428.278	2.104481
428.634	2.054251
428.989	2.094211
429.345	2.104616
429.700	2.118284
430.056	2.039656
430.411	2.107151
430.767	2.108447
431.122	2.076583
431.478	2.073328
431.833	2.103917
432.188	2.057370
432.543	2.028062
432.899	2.095403
433.254	2.058886
433.609	2.042606
433.964	2.010336
434.319	2.062717
434.674	2.052333
435.029	2.022117
435.384	2.075354
435.739	2.001526
436.094	2.019642
436.449	2.049033
436.804	2.021994
437.158	2.075698
437.513	2.033699
437.868	2.051576
438.223	2.026070
438.577	2.018013
438.932	2.002951
439.287	2.015785
439.641	2.010103
439.996	2.034848
440.350	2.026390
440.704	1.999161
441.059	2.009194
441.413	2.003348
441.768	1.979793
442.122	2.021895
442.476	1.972953
442.830	1.946303
443.185	1.996764
443.539	1.987004
443.893	1.958654
444.247	1.927565
444.601	1.944376
444.955	1.944295
445.309	1.981377
445.663	1.967219
446.017	1.939462
446.371	1.952818
446.724	1.944223
447.078	1.921207
447.432	1.982537
447.786	1.965702
448.139	1.938098
448.493	1.969105
448.847	1.953289
449.200	1.907144
449.554	1.906335
449.907	1.926111
450.261	1.937503
450.614	1.909079
450.968	1.910512
451.321	1.903294
451.674	1.889684
452.027	1.864106
452.381	1.856862
452.734	1.861226
453.087	1.850139
453.440	1.848119
453.793	1.858726
454.146	1.845346
454.499	1.841934
454.852	1.850667
455.205	1.842547
455.558	1.803862
455.911	1.817110
456.264	1.852247
456.617	1.832211
456.970	1.845268
457.322	1.811879
457.675	1.795134
458.028	1.790051
458.380	1.788575
458.733	1.805218
459.086	1.805885
459.438	1.819841
459.791	1.799821
460.143	1.779674
460.496	1.773936
460.848	1.768352
461.200	1.776218
461.553	1.770760
461.905	1.739684
462.257	1.747595
462.609	1.739037
462.961	1.740777
463.314	1.741499
463.666	1.737767
464.018	1.736062
464.370	1.725052
464.722	1.742146
465.074	1.705422
465.426	1.731942
465.777	1.710141
466.129	1.710273
466.481	1.718533
466.833	1.707104
467.184	1.705028
467.536	1.732036
467.888	1.703698
468.239	1.716945
468.591	1.688389
468.943	1.694127
469.294	1.677088
469.646	1.676199
469.997	1.660554
470.348	1.680939
470.700	1.670789
471.051	1.654450
471.402	1.681678
471.754	1.667905
472.105	1.660302
472.456	1.626598
472.807	1.655030
473.158	1.645193
473.509	1.628597
473.860	1.634862
474.211	1.639261
474.562	1.634189
474.913	1.650621
475.264	1.631110
475.615	1.614784
475.966	1.617678
476.316	1.627332
476.667	1.603451
477.018	1.609443
477.368	1.624587
477.719	1.615782
478.070	1.624726
478.420	1.615715
478.771	1.588240
479.121	1.601435
479.472	1.599720
479.822	1.594464
480.172	1.593876
480.523	1.597594
480.873	1.580119
481.223	1.589018
481.573	1.589509
481.924	1.588580
482.274	1.581901
482.624	1.574088
482.974	1.582724
483.324	1.578381
483.674	1.572918
484.024	1.573128
484.374	1.577379
484.724	1.566871
485.073	1.552119
485.423	1.538173
485.773	1.524304
486.123	1.527363
486.472	1.534833
486.822	1.550265
487.172	1.547814
487.521	1.541722
487.871	1.541379
488.220	1.542783
488.570	1.531268
488.919	1.538051
489.268	1.530818
489.618	1.533163
489.967	1.524379
490.316	1.516213
490.666	1.515773
491.015	1.506846
491.364	1.501753
491.713	1.495126
492.062	1.503330
492.411	1.497161
492.760	1.499320
493.109	1.508168
493.458	1.496789
493.807	1.484251
494.156	1.481875
494.505	1.491943
494.853	1.473862
495.202	1.476428
495.551	1.482136
495.900	1.470454
496.248	1.476362
496.597	1.475328
496.945	1.465662
497.294	1.463955
497.642	1.461616
497.991	1.454528
498.339	1.455266
498.688	1.457186
499.036	1.444089
499.384	1.443682
499.732	1.448327
500.081	1.435597
500.429	1.431777
500.777	1.427787
501.125	1.430594
501.473	1.429999
501.821	1.429530
502.169	1.416493
502.517	1.428579
502.865	1.410762
503.213	1.417093
503.561	1.421906
503.908	1.413856
504.256	1.400172
504.604	1.403485
504.952	1.396235
505.299	1.388831
505.647	1.396414
505.994	1.395677
506.342	1.388797
506.689	1.387000
507.037	1.374174
507.384	1.380316
507.732	1.376924
508.079	1.372998
508.426	1.371049
508.774	1.373231
509.121	1.363736
509.468	1.354327
509.815	1.360525
510.162	1.362448
510.509	1.355897
510.856	1.356658
511.203	1.348855
511.550	1.344930
511.897	1.337917
512.244	1.353737
512.591	1.330570
512.938	1.329886
513.284	1.338176
513.631	1.333058
513.978	1.329820
514.324	1.328149
514.671	1.321357
515.018	1.326323
515.364	1.320643
515.711	1.326591
516.057	1.312447
516.403	1.314351
516.750	1.302415
517.096	1.309995
517.443	1.304928
517.789	1.306287
518.135	1.307118
518.481	1.306534
518.827	1.297523
519.173	1.291882
519.519	1.288745
519.865	1.281896
520.211	1.294571
520.557	1.281511
520.903	1.280715
521.249	1.274507
521.595	1.282986
521.941	1.275396
522.287	1.274758
522.632	1.267684
522.978	1.273796
523.324	1.268680
523.669	1.260528
524.015	1.259108
524.360	1.262129
524.706	1.257501
525.051	1.255815
525.397	1.256098
525.742	1.250146
526.087	1.246041
526.433	1.248024
526.778	1.249008
527.123	1.248001
527.468	1.238232
527.813	1.248242
528.158	1.240064
528.504	1.239378
528.849	1.237016
529.193	1.237536
529.538	1.222584
529.883	1.225622
530.228	1.224725
530.573	1.221783
530.918	1.212249
531.263	1.213026
531.607	1.215795
531.952	1.209196
532.296	1.207561
532.641	1.207922
532.986	1.211940
533.330	1.204174
533.675	1.205396
534.019	1.197430
534.363	1.202509
534.708	1.198391
535.052	1.197068
535.396	1.190076
535.741	1.190093
536.085	1.181516
536.429	1.183044
536.773	1.180685
537.117	1.174278
537.461	1.178951
537.805	1.175124
538.149	1.170185
538.493	1.168456
538.837	1.166395
539.181	1.160697
539.524	1.162482
539.868	1.154115
540.212	1.150559
540.556	1.147257
540.899	1.145964
541.243	1.140746
541.586	1.144340
541.930	1.142979
542.273	1.138355
542.617	1.131050
542.960	1.128759
543.304	1.129855
543.647	1.124463
543.990	1.125827
544.333	1.123905
544.677	1.114112
545.020	1.116987
545.363	1.108633
545.706	1.101364
546.049	1.098700
546.392	1.100159
546.735	1.095602
547.078	1.098323
547.421	1.091902
547.764	1.089475
548.106	1.086633
548.449	1.082471
548.792	1.073486
549.135	1.070938
549.477	1.068650
549.820	1.064239
550.162	1.055744
550.505	1.059379
550.847	1.049122
551.190	1.047274
551.532	1.041536
551.875	1.045610
552.217	1.038072
552.559	1.036987
552.901	1.031748
553.244	1.029137
553.586	1.024526
553.928	1.017572
554.270	1.012222
554.612	1.007149
554.954	1.005089
555.296	1.002177
555.638	0.997012
555.980	0.992593
556.322	0.988762
556.663	0.984979
557.005	0.982026
557.347	0.972962
557.689	0.971386
558.030	0.965000
558.372	0.959672
558.713	0.955577
559.055	0.956902
559.396	0.951215
559.738	0.948240
560.079	0.939502
560.421	0.939810
560.762	0.935891
561.103	0.928697
561.444	0.927338
561.786	0.922893
562.127	0.914332
562.468	0.912101
562.809	0.906849
563.150	0.905368
563.491	0.899656
563.832	0.897844
564.173	0.888736
564.514	0.886880
564.855	0.881971
565.195	0.874172
565.536	0.872015
565.877	0.867814
566.218	0.867922
566.558	0.862160
566.899	0.857895
567.239	0.855553
567.580	0.853100
567.920	0.848719
568.261	0.846276
568.601	0.841729
568.941	0.837849
569.282	0.831626
569.622	0.823256
569.962	0.812735
570.302	0.801795
570.643	0.790749
570.983	0.783799
571.323	0.775216
571.663	0.768685
572.003	0.758428
572.343	0.750456
572.683	0.740899
573.022	0.725183
573.362	0.709690
573.702	0.695995
574.042	0.688736
574.381	0.681969
574.721	0.679485
575.061	0.675017
575.400	0.672534
575.740	0.665449
576.079	0.652178
576.419	0.622393
576.758	0.600228
577.097	0.583928
577.437	0.575368
577.776	0.569008
578.115	0.573424
578.454	0.578064
578.794	0.591484
579.133	0.599252
579.472	0.588195
579.811	0.557594
580.150	0.525074
580.489	0.493334
580.828	0.473398
581.167	0.460024
581.505	0.454163
581.844	0.473429
582.183	0.501847
582.522	0.542655
582.860	0.578117
583.199	0.598842
583.538	0.593746
583.876	0.586195
584.215	0.572881
584.553	0.561564
584.891	0.556851
585.230	0.559057
585.568	0.567190
585.906	0.571662
586.245	0.575275
586.583	0.579368
586.921	0.578669
587.259	0.579316
587.597	0.582926
587.935	0.591370
588.273	0.603204
588.611	0.614383
588.949	0.625285
589.287	0.634098
589.625	0.637837
589.963	0.639616
590.300	0.640394
590.638	0.639385
590.976	0.638281
591.313	0.632568
591.651	0.624287
591.989	0.612356
592.326	0.602548
592.664	0.591842
593.001	0.584884
593.338	0.581545
593.676	0.581606
594.013	0.584465
594.350	0.588711
594.687	0.590743
595.025	0.591612
595.362	0.595773
595.699	0.599494
596.036	0.601108
596.373	0.603358
596.710	0.602425
597.047	0.599858
597.384	0.596704
597.720	0.591596
598.057	0.588819
598.394	0.584228
598.731	0.577520
599.067	0.571855
599.404	0.569118
599.741	0.566680
600.077	0.567035
600.414	0.567736
600.750	0.567429
601.087	0.568486
601.423	0.567150
601.759	0.565274
602.096	0.561508
602.432	0.560771
602.768	0.559027
603.104	0.558136
603.440	0.558876
603.776	0.560375
604.112	0.560510
604.448	0.561945
604.784	0.560387
605.120	0.560720
605.456	0.558229
605.792	0.558217
606.128	0.558198
606.463	0.556320
606.799	0.557228
607.135	0.555991
607.470	0.554572
607.806	0.554328
608.142	0.553068
608.477	0.553104
608.812	0.550364
609.148	0.549139
609.483	0.548394
609.819	0.546770
610.154	0.546633
610.489	0.545109
610.824	0.543783
611.159	0.540595
611.494	0.541219
611.830	0.539998
612.165	0.538957
612.500	0.538651
612.834	0.537332
613.169	0.534211
613.504	0.534788
613.839	0.534885
614.174	0.532822
614.509	0.531783
614.843	0.529254
615.178	0.528382
615.512	0.527508
615.847	0.526400
616.182	0.524049
616.516	0.521838
616.850	0.522188
617.185	0.519087
617.519	0.520459
617.853	0.517393
618.188	0.514613
618.522	0.514951
618.856	0.514022
619.190	0.512955
619.524	0.512252
619.858	0.512221
620.192	0.509727
620.526	0.507180
620.860	0.508505
621.194	0.506031
621.528	0.503653
621.862	0.506417
622.195	0.505029
622.529	0.502929
622.863	0.502560
623.196	0.502907
623.530	0.501269
623.864	0.497727
624.197	0.497573
624.530	0.495157
624.864	0.491802
625.197	0.492560
625.531	0.490795
625.864	0.489444
626.197	0.489337
626.530	0.486840
626.863	0.486248
627.196	0.486741
627.529	0.483258
627.862	0.481987
628.195	0.481784
628.528	0.480199
628.861	0.481424
629.194	0.481835
629.527	0.477443
629.860	0.476855
630.192	0.474342
630.525	0.470563
630.858	0.471092
631.190	0.466854
631.523	0.469635
631.855	0.463453
632.188	0.465115
632.520	0.463487
632.852	0.461906
633.185	0.460915
633.517	0.459123
633.849	0.459938
634.182	0.459694
634.514	0.456815
634.846	0.457557
635.178	0.459040
635.510	0.459096
635.842	0.455872
636.174	0.459417
636.506	0.456588
636.837	0.454051
637.169	0.450432
637.501	0.453099
637.833	0.453394
638.164	0.449081
638.496	0.450028
638.828	0.447182
639.159	0.445274
639.491	0.447064
639.822	0.441186
640.154	0.439068
640.485	0.441511
640.816	0.440509
641.147	0.441712
641.479	0.441263
641.810	0.434695
642.141	0.435774
642.472	0.436741
642.803	0.433888
643.134	0.432969
643.465	0.433091
643.796	0.430281
644.127	0.429872
644.458	0.435243
644.789	0.432654
645.119	0.424554
645.450	0.424767
645.781	0.427190
646.111	0.422591
646.442	0.421304
646.773	0.424632
647.103	0.429334
647.433	0.428155
647.764	0.428464
648.094	0.429271
648.425	0.429668
648.755	0.425961
649.085	0.425233
649.415	0.421179
649.745	0.424346
650.075	0.423487
650.405	0.422824
650.735	0.420975
651.065	0.420203
651.395	0.421796
651.725	0.418453
652.055	0.417900
652.385	0.420769
652.715	0.418249
653.044	0.417835
653.374	0.415940
653.704	0.414094
654.033	0.423018
654.363	0.218297
654.692	0.045968
655.022	0.000035
655.351	0.000035
655.680	0.000035
656.010	0.000035
656.339	0.000035
656.668	0.000035
656.997	0.018088
657.326	0.135089
657.655	0.279262
657.984	0.388193
658.313	0.399506
658.642	0.404185
658.971	0.403003
659.300	0.398694
659.629	0.396663
659.958	0.396548
660.286	0.397641
660.615	0.400602
660.944	0.400344
661.272	0.401277
661.601	0.399024
661.929	0.396396
662.258	0.396466
662.586	0.394949
662.915	0.397347
663.243	0.399656
663.571	0.399094
663.899	0.398860
664.228	0.397487
664.556	0.400031
664.884	0.400717
665.212	0.395135
665.540	0.391915
665.868	0.392077
666.196	0.388089
666.524	0.389040
666.852	0.394580
667.179	0.390850
667.507	0.393614
667.835	0.386879
668.162	0.390533
668.490	0.388431
668.818	0.388308
669.145	0.387145
669.473	0.386874
669.800	0.389310
670.127	0.388725
670.455	0.387589
670.782	0.390558
671.109	0.390530
671.436	0.387889
671.764	0.388693
672.091	0.388481
672.418	0.383296
672.745	0.386037
673.072	0.384384
673.399	0.381443
673.726	0.379566
674.053	0.382561
674.379	0.377060
674.706	0.379338
675.033	0.379354
675.359	0.378470
675.686	0.381070
676.013	0.377439
676.339	0.379629
676.666	0.381628
676.992	0.377944
677.318	0.377033
677.645	0.376405
677.971	0.376138
678.297	0.376988
678.624	0.374515
678.950	0.373166
679.276	0.378929
679.602	0.373845
679.928	0.374001
680.254	0.375958
680.580	0.372590
680.906	0.370336
681.232	0.372724
681.558	0.370766
681.883	0.371487
682.209	0.371500
682.535	0.368306
682.860	0.367869
683.186	0.365909
683.511	0.367561
683.837	0.371177
684.162	0.366931
684.488	0.371687
684.813	0.369695
685.138	0.368282
685.464	0.370064
685.789	0.366728
686.114	0.367550
686.439	0.363695
686.764	0.364954
687.089	0.364981
687.414	0.361958
687.739	0.358200
688.064	0.359385
688.389	0.355967
688.714	0.360795
689.039	0.358289
689.363	0.357552
689.688	0.359671
690.013	0.359574
690.337	0.361261
690.662	0.362052
690.986	0.362443
691.311	0.359949
691.635	0.360808
691.959	0.359714
692.284	0.357836
692.608	0.354970
692.932	0.353426
693.256	0.353650
693.580	0.353032
693.904	0.352896
694.228	0.357834
694.552	0.348529
694.876	0.349169
695.200	0.352192
695.524	0.350334
695.848	0.351741
696.172	0.351049
696.495	0.351737
696.819	0.352702
697.143	0.353521
697.466	0.351494
697.790	0.352066
698.113	0.349205
698.437	0.351820
698.760	0.351735
699.083	0.344796
699.407	0.347758
699.730	0.345650
700.053	0.347905
700.376	0.342747
700.699	0.342058
701.022	0.343809
701.345	0.340496
701.668	0.343862
701.991	0.341649
702.314	0.342409
702.637	0.341760
702.960	0.342707
703.283	0.342416
703.605	0.338544
703.928	0.343673
704.251	0.343704
704.573	0.342387
704.896	0.345892
705.218	0.341679
705.540	0.342635
705.863	0.344338
706.185	0.347692
706.507	0.347989
706.830	0.346491
707.152	0.347646
707.474	0.343312
707.796	0.344604
708.118	0.345448
708.440	0.344830
708.762	0.344606
709.084	0.342836
709.406	0.343670
709.728	0.340061
710.049	0.343846
710.371	0.340274
710.693	0.342357
711.014	0.339932
711.336	0.340576
711.658	0.342177
711.979	0.340536
712.301	0.338551
712.622	0.337158
712.943	0.337599
713.265	0.334848
713.586	0.338140
713.907	0.335325
714.228	0.334053
714.549	0.333391
714.870	0.336471
715.191	0.338682
715.512	0.329960
715.833	0.334228
716.154	0.335331
716.475	0.328797
716.796	0.330472
717.117	0.329339
717.437	0.328906
717.758	0.331503
718.078	0.329050
718.399	0.333009
718.719	0.331944
719.040	0.328744
719.360	0.324817
719.681	0.326866
720.001	0.325370
720.321	0.328134
720.642	0.325328
720.962	0.326942
721.282	0.328620
721.602	0.327624
721.922	0.329278
722.242	0.322007
722.562	0.323037
722.882	0.320876
723.202	0.321872
723.521	0.320947
723.841	0.325387
724.161	0.328077
724.481	0.321750
724.800	0.322861
725.120	0.318477
725.439	0.320415
725.759	0.324212
726.078	0.323047
726.398	0.318108
726.717	0.321526
727.036	0.320394
727.355	0.317888
727.675	0.319686
727.994	0.320883
728.313	0.321861
728.632	0.316984
728.951	0.321425
729.270	0.317955
729.589	0.316044
729.908	0.321846
730.226	0.321851
730.545	0.319846
730.864	0.322760
731.182	0.321733
731.501	0.318845
731.820	0.317999
732.138	0.318184
732.457	0.317007
732.775	0.317159
733.093	0.315149
733.412	0.317952
733.730	0.315269
734.048	0.316752
734.367	0.315291
734.685	0.315038
735.003	0.311983
735.321	0.317827
735.639	0.313769
735.957	0.314263
736.275	0.315631
736.593	0.309218
736.910	0.308438
737.228	0.309686
737.546	0.314972
737.863	0.311157
738.181	0.308190
738.499	0.308165
738.816	0.311296
739.134	0.311641
739.451	0.311100
739.768	0.308857
740.086	0.306772
740.403	0.303538
740.720	0.310272
741.038	0.305722
741.355	0.305977
741.672	0.311771
741.989	0.310597
742.306	0.301964
742.623	0.306572
742.940	0.305044
743.257	0.306788
743.573	0.301879
743.890	0.304833
744.207	0.302519
744.523	0.304384
744.840	0.301423
745.157	0.294996
745.473	0.300408
745.790	0.300838
746.106	0.298705
746.422	0.303507
746.739	0.306154
747.055	0.299433
747.371	0.300089
747.687	0.301258
748.004	0.303538
748.320	0.301434
748.636	0.297329
748.952	0.298888
749.268	0.302434
749.584	0.299101
749.899	0.298534
750.215	0.300550
750.531	0.302096
750.847	0.302986
751.162	0.299678
751.478	0.298096
751.793	0.297412
752.109	0.299602
752.424	0.301684
752.740	0.299092
753.055	0.302189
753.370	0.297732
753.686	0.300471
754.001	0.300310
754.316	0.295936
754.631	0.299838
754.946	0.298475
755.261	0.299931
755.576	0.301679
755.891	0.299737
756.206	0.300989
756.521	0.301671
756.836	0.301023
757.150	0.302552
757.465	0.301145
757.780	0.300800
758.094	0.299156
758.409	0.298897
758.723	0.297695
759.038	0.295226
759.352	0.298831
759.667	0.301292
759.981	0.296908
760.295	0.296686
760.609	0.299347
760.923	0.297008
761.238	0.296365
761.552	0.295490
761.866	0.294958
762.180	0.293497
762.493	0.294249
762.807	0.299298
763.121	0.294656
763.435	0.294340
763.749	0.292839
764.062	0.295546
764.376	0.294950
764.689	0.293159
765.003	0.294236
765.316	0.293899
765.630	0.288760
765.943	0.287617
766.257	0.289549
766.570	0.288184
766.883	0.289127
767.196	0.295823
767.509	0.290944
767.822	0.294473
768.135	0.294830
768.448	0.290527
768.761	0.292037
769.074	0.294565
769.387	0.291033
769.700	0.286979
770.013	0.288640
770.325	0.283777
770.638	0.284722
770.950	0.288073
771.263	0.284004
771.575	0.281329
771.888	0.282637
772.200	0.281300
772.513	0.282306
772.825	0.283199
773.137	0.279834
773.449	0.281077
773.761	0.280502
774.074	0.281175
774.386	0.279182
774.698	0.277520
775.010	0.280780
775.321	0.280778
775.633	0.280979
775.945	0.285181
776.257	0.276310
776.568	0.281926
776.880	0.281455
777.192	0.276232
777.503	0.279632
777.815	0.276858
778.126	0.282256
778.438	0.281156
778.749	0.278150
779.060	0.284177
779.372	0.279045
779.683	0.277131
779.994	0.280659
780.305	0.280707
780.616	0.280466
780.927	0.280385
781.238	0.279721
781.549	0.280935
781.860	0.279216
782.171	0.276865
782.481	0.276914
782.792	0.277679
783.103	0.281386
783.413	0.278849
783.724	0.274783
784.034	0.274808
784.345	0.277674
784.655	0.278672
784.966	0.277346
785.276	0.278734
785.586	0.277621
785.896	0.278389
786.207	0.274881
786.517	0.275502
786.827	0.275143
787.137	0.274176
787.447	0.276235
787.757	0.276483
788.066	0.277080
788.376	0.273344
788.686	0.272618
788.996	0.271699
789.305	0.275424
789.615	0.273958
789.925	0.277666
790.234	0.276611
790.544	0.273983
790.853	0.278897
791.162	0.274865
791.472	0.273962
791.781	0.271412
792.090	0.278114
792.399	0.274770
792.708	0.272460
793.017	0.272362
793.326	0.270442
793.635	0.273518
793.944	0.272681
794.253	0.276141
794.562	0.275338
794.871	0.274777
795.179	0.269944
795.488	0.271357
795.797	0.262771
796.105	0.264344
796.414	0.263129
796.722	0.273294
797.031	0.268614
797.339	0.266540
797.647	0.271833
797.956	0.263201
798.264	0.260997
798.572	0.264059
798.880	0.267874
799.188	0.256530
799.496	0.263061
799.804	0.263699
800.112	0.265450
800.420	0.263833
800.728	0.260209
801.035	0.261506
801.343	0.260106
801.651	0.265364
801.958	0.266791
802.266	0.262946
802.573	0.268443
802.881	0.258068
803.188	0.261851
803.496	0.258567
803.803	0.254117
804.110	0.248126
804.417	0.258095
804.724	0.261744
805.032	0.263270
805.339	0.259367
805.646	0.259109
805.953	0.261377
806.259	0.266511
806.566	0.264938
806.873	0.264590
807.180	0.259892
807.486	0.256946
807.793	0.254369
808.100	0.259796
808.406	0.257902
808.713	0.265178
809.019	0.257378
809.326	0.259238
809.632	0.263537
809.938	0.252657
810.244	0.254826
810.551	0.256219
810.857	0.254561
811.163	0.261906
811.469	0.256107
811.775	0.253041
812.081	0.251858
812.387	0.254379
812.692	0.255384
812.998	0.251908
813.304	0.259680
813.610	0.247657
813.915	0.246520
814.221	0.250763
814.526	0.252097
814.832	0.245467
815.137	0.259901
815.443	0.255883
815.748	0.249132
816.053	0.246550
816.358	0.253004
816.664	0.251612
816.969	0.262359
817.274	0.249631
817.579	0.245562
817.884	0.249415
818.189	0.253014
818.493	0.251465
818.798	0.247826
819.103	0.248680
819.408	0.249623
819.712	0.256893
820.017	0.257551
820.321	0.239474
820.626	0.255933
820.930	0.244370
821.235	0.246025
821.539	0.253873
821.843	0.254009
822.148	0.246861
822.452	0.260111
822.756	0.248937
823.060	0.251399
823.364	0.252558
823.668	0.251222
823.972	0.247213
824.276	0.249069
824.580	0.240812
824.883	0.244334
825.187	0.251170
825.491	0.248659
825.795	0.249118
826.098	0.246067
826.402	0.259479
826.705	0.242190
827.008	0.250448
827.312	0.252381
827.615	0.249011
827.918	0.238566
828.222	0.252733
828.525	0.257131
828.828	0.238615
829.131	0.232666
829.434	0.248353
829.737	0.247841
830.040	0.251237
830.343	0.245155
830.645	0.247738
830.948	0.274270
831.251	0.246674
831.553	0.235487
831.856	0.240487
832.159	0.247962
832.461	0.252018
832.764	0.234862
833.066	0.245426
833.368	0.240815
833.671	0.227469
833.973	0.239046
834.275	0.237806
834.577	0.244188
834.879	0.239637
835.181	0.237719
835.483	0.254365
835.785	0.242390
836.087	0.225077
836.389	0.233002
836.690	0.245387
836.992	0.246848
837.294	0.262928
837.595	0.256192
837.897	0.240794
838.198	0.244042
838.500	0.231085
838.801	0.209011
839.103	0.240858
839.404	0.258957
839.705	0.230932
840.006	0.235689
840.307	0.237788
840.608	0.236933
840.910	0.235738
841.210	0.222138
841.511	0.247187
841.812	0.244837
842.113	0.251396
842.414	0.236979
842.715	0.222050
843.015	0.243379
843.316	0.256675
843.616	0.248806
843.917	0.228534
844.217	0.243191
844.518	0.217743
844.818	0.236668
845.118	0.242989
845.419	0.222612
845.719	0.227636
846.019	0.214423
846.319	0.232697
846.619	0.230339
846.919	0.241753
847.219	0.252635
847.519	0.233765
847.819	0.238388
848.118	0.232718
848.418	0.257243
848.718	0.229787
849.017	0.235104
849.317	0.271100
849.616	0.216021
849.916	0.211283
850.215	0.238421
850.515	0.219596
850.814	0.232634
851.113	0.223481
851.412	0.225617
851.712	0.228527
852.011	0.221613
852.310	0.220304
852.609	0.238816
852.908	0.223133
853.206	0.220797
853.505	0.230003
853.804	0.232461
854.103	0.219725
854.401	0.230616
854.700	0.220446
854.999	0.228619
855.297	0.227227
855.595	0.221328
855.894	0.226305
856.192	0.236548
856.491	0.223023
856.789	0.221724
857.087	0.227976
857.385	0.217239
857.683	0.202590
857.981	0.215244
858.279	0.217821
858.577	0.221364
858.875	0.215398
859.173	0.230270
859.471	0.218961
859.768	0.211358
860.066	0.245853
860.363	0.221701
860.661	0.219394
860.959	0.212274
861.256	0.219819
861.553	0.241144
861.851	0.200496
862.148	0.230811
862.445	0.218107
862.742	0.224253
863.039	0.209456
863.337	0.217224
863.634	0.207296
863.931	0.218954
864.227	0.202560
864.524	0.214534
864.821	0.242268
865.118	0.196660
865.415	0.199755
865.711	0.208436
866.008	0.206606
866.304	0.246187
866.601	0.217291
866.897	0.231365
867.194	0.179084
867.490	0.236840
867.786	0.220385
868.082	0.213360
868.379	0.239219
868.675	0.236371
868.971	0.204829
869.267	0.201604
869.563	0.230212
869.859	0.204080
870.154	0.209482
870.450	0.211648
870.746	0.219989
871.042	0.225111
871.337	0.219158
871.633	0.206888
871.928	0.202158
872.224	0.230646
872.519	0.217758
872.815	0.210636
873.110	0.229550
873.405	0.213677
873.700	0.203576
873.995	0.222178
874.291	0.231887
874.586	0.206475
874.881	0.216590
875.175	0.218930
875.470	0.211621
875.765	0.195640
876.060	0.203350
876.355	0.194488
876.649	0.192663
876.944	0.224248
877.238	0.222740
877.533	0.234771
877.827	0.204433
878.122	0.220068
878.416	0.253404
878.710	0.211136
879.005	0.215343
879.299	0.229900
879.593	0.218192
879.887	0.215901
880.181	0.226633
880.475	0.199909
880.769	0.226384
881.063	0.200649
881.356	0.231377
881.650	0.223956
881.944	0.205710
882.238	0.198432
882.531	0.226427
882.825	0.201478
883.118	0.224979
883.412	0.190627
883.705	0.174658
883.998	0.212301
884.291	0.189225
884.585	0.210467
884.878	0.184454
>>>>>>>>>> END of Data <<<<<<<<<<
